time,seconds_elapsed,z,y,x
2024-12-07 16:10:00.597247200,0.161247314453125,-0.1777598857879638,-0.9645662307739258,-0.540617823600769
2024-12-07 16:10:00.607284500,0.171284423828125,0.0287022590637207,-0.4880132675170898,-0.5258938670158386
2024-12-07 16:10:00.617325800,0.181325927734375,-0.121793508529663,-0.195779800415039,-0.4403788447380066
2024-12-07 16:10:00.627370500,0.19137060546875,-0.1191515922546386,-0.0885906219482421,-0.5450122952461243
2024-12-07 16:10:00.637417700,0.201417724609375,-0.1904823780059814,-0.0926189422607421,-0.5430658459663391
2024-12-07 16:10:00.647466800,0.211466796875,-0.218951940536499,-0.0750226974487304,-0.5215408205986023
2024-12-07 16:10:00.657516800,0.221516845703125,-0.3462157249450683,0.177495002746582,-0.2669526040554046
2024-12-07 16:10:00.667566600,0.231566650390625,-0.5991532802581787,0.0028038024902343,-0.5014960765838623
2024-12-07 16:10:00.677595100,0.24159521484375,-0.4256815910339355,-0.0658473968505859,-0.6381070017814636
2024-12-07 16:10:00.687623700,0.251623779296875,-0.2588820457458496,0.4750270843505859,-0.804767370223999
2024-12-07 16:10:00.697652200,0.26165234375,-0.5778234004974365,0.2903375625610351,-0.6028220057487488
2024-12-07 16:10:00.707680800,0.2716806640625,-0.4966168403625488,0.4988269805908203,-0.8520848751068115
2024-12-07 16:10:00.717709300,0.281709228515625,-0.0862455368041992,0.5074319839477539,-0.4065742790699005
2024-12-07 16:10:00.727737600,0.291737548828125,-0.1612815856933593,0.2195577621459961,-0.2597081065177917
2024-12-07 16:10:00.737766100,0.30176611328125,-0.1552577018737793,-0.0553255081176757,-0.1509837210178375
2024-12-07 16:10:00.747794700,0.311794677734375,-0.1477036476135254,-0.157719612121582,-0.0840909481048584
2024-12-07 16:10:00.757823200,0.3218232421875,-0.008927583694458,0.0248842239379882,-0.1523091942071914
2024-12-07 16:10:00.767851500,0.3318515625,-0.0017023086547851,0.1735239028930664,-0.096355140209198
2024-12-07 16:10:00.777880000,0.341880126953125,-0.1146357059478759,0.3687782287597656,-0.0550859421491622
2024-12-07 16:10:00.787908600,0.35190869140625,0.0852982997894287,0.6324625015258789,0.0487852990627288
2024-12-07 16:10:00.797937200,0.361937255859375,0.2072455883026123,0.7531976699829102,-0.0036714076995849
2024-12-07 16:10:00.807965700,0.371965576171875,-0.2787609100341797,0.9765291213989258,-0.0846298485994339
2024-12-07 16:10:00.817994000,0.381993896484375,-0.6612386703491211,0.9573087692260742,-0.1161367297172546
2024-12-07 16:10:00.828022500,0.3920224609375,-0.7045484781265259,0.7408647537231445,-0.017480120062828
2024-12-07 16:10:00.838051000,0.402051025390625,-0.2946417331695556,0.1792201995849609,0.2188236713409423
2024-12-07 16:10:00.848079600,0.41207958984375,-0.042734146118164,-0.2314176559448242,0.2618992924690246
2024-12-07 16:10:00.858108200,0.422108154296875,-0.4014761447906494,-0.3941640853881836,0.0399317294359207
2024-12-07 16:10:00.868136400,0.432136474609375,-1.0297247171401978,-0.2920761108398437,-0.2907654345035553
2024-12-07 16:10:00.878165000,0.4421650390625,-1.6223256587982178,-0.2338199615478515,-0.5707363486289978
2024-12-07 16:10:00.888193500,0.452193603515625,-1.4961568117141724,-0.2033681869506836,-0.6384398341178894
2024-12-07 16:10:00.898222000,0.46222216796875,-0.5006539821624756,-0.5695171356201172,-0.6665847301483154
2024-12-07 16:10:00.908250400,0.47225048828125,0.734641432762146,-1.114166259765625,-0.6568335294723511
2024-12-07 16:10:00.918279000,0.48227880859375,1.4224519729614258,-1.5407447814941406,-0.4484902620315552
2024-12-07 16:10:00.928307500,0.492307373046875,1.2280223369598389,-1.4464397430419922,-0.5925562977790833
2024-12-07 16:10:00.938336000,0.5023359375,0.2674201726913452,-1.3105716705322266,-0.6233916878700256
2024-12-07 16:10:00.948364500,0.512364501953125,-0.287298321723938,-1.0067033767700195,-0.6155087351799011
2024-12-07 16:10:00.958392800,0.522392822265625,-0.5441235303878784,-0.6411533355712891,-0.5995790362358093
2024-12-07 16:10:00.968421400,0.53242138671875,-0.5826071500778198,-0.5189542770385742,-0.3868671655654907
2024-12-07 16:10:00.978450000,0.542449951171875,-0.432263970375061,-0.4703025817871094,-0.2147500067949295
2024-12-07 16:10:00.988478500,0.552478515625,-0.2416143417358398,-0.4608936309814453,0.0602108836174011
2024-12-07 16:10:00.998507000,0.562507080078125,-0.3737328052520752,-0.7013998031616211,0.5253210067749023
2024-12-07 16:10:01.008535300,0.572535400390625,-0.442870020866394,-0.8865213394165039,0.9426668286323548
2024-12-07 16:10:01.018563800,0.582563720703125,-0.4507802724838257,-0.8204555511474609,0.81516432762146
2024-12-07 16:10:01.028592400,0.59259228515625,-0.2384626865386963,-1.0585918426513672,0.6151201725006104
2024-12-07 16:10:01.038621000,0.602620849609375,-0.5212856531143188,-1.4875154495239258,1.1606132984161377
2024-12-07 16:10:01.048649200,0.612649169921875,-1.1240154504776,-1.9032878875732424,1.705438256263733
2024-12-07 16:10:01.058677800,0.622677734375,-0.6762896776199341,-0.948129653930664,0.242261528968811
2024-12-07 16:10:01.068706300,0.632706298828125,-0.185007095336914,-0.4690771102905273,-0.9302298426628112
2024-12-07 16:10:01.078734800,0.64273486328125,-0.1369363069534301,-0.5119485855102539,-0.8474458456039429
2024-12-07 16:10:01.088763400,0.652763427734375,-0.476650059223175,-0.4505939483642578,-0.7892118096351624
2024-12-07 16:10:01.098791700,0.662791748046875,-0.4029701948165893,-0.4461030960083008,-0.4045183658599853
2024-12-07 16:10:01.108820200,0.6728203125,0.3112318515777588,0.056192398071289,-0.7897531986236572
2024-12-07 16:10:01.118848800,0.682848876953125,0.4294312000274658,0.1825418472290039,-1.0796940326690674
2024-12-07 16:10:01.128877300,0.692877197265625,0.4674698114395141,0.0959949493408203,-0.8696603775024414
2024-12-07 16:10:01.138905900,0.70290576171875,0.185103178024292,-0.268986701965332,-0.2836973667144775
2024-12-07 16:10:01.148934100,0.71293408203125,0.1578974723815918,-0.2444515228271484,0.3392813205718994
2024-12-07 16:10:01.158962700,0.722962646484375,0.0449105501174926,0.3004179000854492,-0.2432563304901123
2024-12-07 16:10:01.168991200,0.7329912109375,-0.2132428288459777,0.0843629837036132,-0.6223485469818115
2024-12-07 16:10:01.179019800,0.743019775390625,0.0441328287124633,0.1890897750854492,-0.7830362319946289
2024-12-07 16:10:01.189048300,0.75304833984375,-1.6755554676055908,-1.8987922668457031,2.509506940841675
2024-12-07 16:10:01.199076600,0.76307666015625,-1.187871336936951,-1.5216903686523438,0.535513162612915
2024-12-07 16:10:01.209105200,0.773105224609375,-0.3599914908409118,0.3306818008422851,-1.5899038314819336
2024-12-07 16:10:01.219133700,0.7831337890625,-1.017873764038086,0.5654897689819336,-0.3488156795501709
2024-12-07 16:10:01.229162200,0.793162353515625,-0.5625224113464355,0.7284126281738281,-0.0921857357025146
2024-12-07 16:10:01.239190500,0.8031904296875,-0.1010118126869201,0.5589113235473633,0.1161990165710449
2024-12-07 16:10:01.249219000,0.813218994140625,0.8598445653915405,2.1268887519836426,-3.39040756225586
2024-12-07 16:10:01.259247600,0.82324755859375,0.4243639707565307,1.5036354064941406,-2.651935815811157
2024-12-07 16:10:01.269276200,0.833276123046875,-0.6363618969917297,0.4863319396972656,-0.3438916206359863
2024-12-07 16:10:01.279304700,0.8433046875,-0.5060301423072815,0.5095224380493164,0.0565059185028076
2024-12-07 16:10:01.289333000,0.8533330078125,-0.1190093755722045,1.0183095932006836,-0.8798118829727173
2024-12-07 16:10:01.299361500,0.863361572265625,0.1548407673835754,1.6320323944091797,-2.344746351242065
2024-12-07 16:10:01.309390000,0.87339013671875,-0.3363863527774811,1.222163200378418,-2.362481117248535
2024-12-07 16:10:01.319418600,0.883418701171875,-0.2881036698818207,1.4380836486816406,-3.245553970336914
2024-12-07 16:10:01.329447200,0.893447265625,0.2250234484672546,0.1781787872314453,-2.3099915981292725
2024-12-07 16:10:01.339475500,0.903475341796875,0.618030846118927,-0.807621955871582,-2.331246852874756
2024-12-07 16:10:01.349504000,0.91350390625,0.9262354373931884,-0.9019346237182616,-3.698032855987549
2024-12-07 16:10:01.359532500,0.923532470703125,1.0116790533065796,-1.957371711730957,-2.5829968452453613
2024-12-07 16:10:01.369561000,0.93356103515625,1.1212806701660156,-3.512153625488281,-0.2615620493888855
2024-12-07 16:10:01.379589400,0.94358935546875,0.878058671951294,-4.283537864685059,1.3803551197052002
2024-12-07 16:10:01.389618000,0.953617919921875,0.4473454356193542,-3.9666919708251953,2.202955961227417
2024-12-07 16:10:01.399646500,0.963646484375,-0.2448762655258178,-3.861026763916016,4.535674095153809
2024-12-07 16:10:01.409675000,0.973675048828125,0.1001759767532348,-1.5577239990234375,0.6992126703262329
2024-12-07 16:10:01.419703600,0.98370361328125,0.4810115098953247,-0.6535367965698242,-1.5615007877349854
2024-12-07 16:10:01.429731800,0.99373193359375,-0.2141916155815124,-0.9862823486328124,-1.324028730392456
2024-12-07 16:10:01.439760400,1.003760498046875,-0.6016983985900879,-1.1779727935791016,-1.904533863067627
2024-12-07 16:10:01.449789000,1.013788818359375,-1.1230010986328125,-1.81745719909668,-0.9195985794067384
2024-12-07 16:10:01.459817500,1.0238173828125,-0.5966395139694214,-1.4740123748779297,-0.7102965116500854
2024-12-07 16:10:01.469846000,1.033845947265625,0.8124397397041321,-0.1342248916625976,-1.5167598724365234
2024-12-07 16:10:01.479874300,1.043874267578125,3.894765615463257,2.8036489486694336,-7.455521106719971
2024-12-07 16:10:01.489902800,1.05390283203125,2.375328063964844,-1.4519166946411133,-1.029058575630188
2024-12-07 16:10:01.499931400,1.063931396484375,2.183385372161865,-0.9742259979248048,0.207957774400711
2024-12-07 16:10:01.509960000,1.0739599609375,2.923916339874268,-0.8732004165649414,1.440123200416565
2024-12-07 16:10:01.519988500,1.083988525390625,3.960174798965454,-1.2726554870605469,2.961490631103516
2024-12-07 16:10:01.530016800,1.094016845703125,3.946190357208252,-2.517765045166016,6.4363627433776855
2024-12-07 16:10:01.540045300,1.10404541015625,4.037290096282959,-0.9198780059814452,5.050215244293213
2024-12-07 16:10:01.550073900,1.114073974609375,4.861538410186768,-0.1610403060913086,0.6680427193641663
2024-12-07 16:10:01.560102400,1.124102294921875,4.133657455444336,-0.164529800415039,-0.5660827159881592
2024-12-07 16:10:01.570130700,1.134130615234375,2.619342565536499,-0.4165048599243164,-0.7661451101303101
2024-12-07 16:10:01.580159200,1.1441591796875,0.9616028070449828,-0.4309062957763672,-1.4141134023666382
2024-12-07 16:10:01.590187800,1.154187744140625,-0.7208251953125,-0.11865234375,-2.3794875144958496
2024-12-07 16:10:01.600216300,1.16421630859375,-1.5511853694915771,-0.0023069381713867,-2.242172718048096
2024-12-07 16:10:01.610244900,1.174244873046875,-0.2617093324661255,-0.0893154144287109,-1.974589347839356
2024-12-07 16:10:01.620273200,1.184273193359375,2.3845415115356445,0.1252918243408203,-3.317304372787476
2024-12-07 16:10:01.630301700,1.1943017578125,0.3383927345275879,-2.115359306335449,0.8056315779685974
2024-12-07 16:10:01.640330200,1.204330322265625,-1.7689945697784424,-2.045416831970215,3.836283445358277
2024-12-07 16:10:01.650358800,1.21435888671875,-3.647474765777588,-1.1406450271606443,4.293533802032471
2024-12-07 16:10:01.660387300,1.22438720703125,-6.707282543182373,-0.8366060256958008,3.522075653076172
2024-12-07 16:10:01.670415600,1.23441552734375,-8.03764533996582,-0.8909244537353516,2.2272839546203613
2024-12-07 16:10:01.680444200,1.244444091796875,-6.864138603210449,-2.043381690979004,2.004821538925171
2024-12-07 16:10:01.690472700,1.25447265625,-3.968568563461304,-2.8734130859375,1.7331691980361938
2024-12-07 16:10:01.700501200,1.264501220703125,-1.3372842073440552,-3.006117820739746,0.7776297926902771
2024-12-07 16:10:01.710529500,1.274529541015625,-0.466580867767334,-2.801488876342773,-0.6397016644477844
2024-12-07 16:10:01.720558000,1.28455810546875,-0.5279228687286377,-2.377416610717773,-1.6478773355484009
2024-12-07 16:10:01.730586600,1.294586669921875,0.2573704719543457,-1.6439695358276367,-2.309924840927124
2024-12-07 16:10:01.740615200,1.304615234375,0.6264636516571045,-0.7530546188354492,-1.5438601970672607
2024-12-07 16:10:01.750643700,1.314643798828125,1.1879878044128418,0.1119661331176757,0.2880891859531402
2024-12-07 16:10:01.760672000,1.324672119140625,-0.2166237831115722,0.647857666015625,1.4510382413864136
2024-12-07 16:10:01.770700500,1.334700439453125,-1.4130440950393677,1.7052545547485352,1.443674087524414
2024-12-07 16:10:01.780729000,1.34472900390625,-1.9543248414993288,2.428530216217041,1.7170064449310305
2024-12-07 16:10:01.790757600,1.354757568359375,-2.346303224563598,2.6593503952026367,2.3915719985961914
2024-12-07 16:10:01.800786200,1.3647861328125,-2.537494421005249,2.773954391479492,2.554897785186768
2024-12-07 16:10:01.810814500,1.374814453125,-2.099193572998047,2.85500717163086,2.163958072662353
2024-12-07 16:10:01.820843000,1.384843017578125,-1.8234548568725584,2.6449050903320312,1.9737709760665896
2024-12-07 16:10:01.830871600,1.39487158203125,-1.4131098985671997,2.301353931427002,2.280946016311645
2024-12-07 16:10:01.840900000,1.404900146484375,-0.9549341201782228,2.094505786895752,2.493326663970948
2024-12-07 16:10:01.850928400,1.414928466796875,-0.6951749324798584,1.9698634147644043,2.962156057357788
2024-12-07 16:10:01.860957000,1.42495703125,-0.5621981620788574,2.0737080574035645,3.0812759399414062
2024-12-07 16:10:01.870985500,1.4349853515625,-0.70835280418396,2.1567606925964355,3.186915874481201
2024-12-07 16:10:01.881014000,1.445013916015625,-1.1949143409729004,2.286670684814453,3.1408822536468506
2024-12-07 16:10:01.891042600,1.45504248046875,-1.7326840162277222,2.2748098373413086,3.1813266277313232
2024-12-07 16:10:01.901070800,1.46507080078125,-1.7012563943862915,2.037076473236084,3.4688539505004883
2024-12-07 16:10:01.911099400,1.475099365234375,-0.8768980503082275,1.720484733581543,3.988361835479736
2024-12-07 16:10:01.921128000,1.4851279296875,0.0761435031890869,1.3180475234985352,3.958104133605957
2024-12-07 16:10:01.931156500,1.495156494140625,0.6205554008483887,0.7575035095214844,3.316274881362915
2024-12-07 16:10:01.941185000,1.50518505859375,1.0109765529632568,0.0969448089599609,2.452695369720459
2024-12-07 16:10:01.951213300,1.51521337890625,1.516141653060913,-0.5386142730712891,1.2366549968719482
2024-12-07 16:10:01.961241900,1.525241943359375,2.178123235702514,-0.9822092056274414,-0.2991265058517456
2024-12-07 16:10:01.971270400,1.5352705078125,2.6979222297668457,-1.2777166366577148,-1.7831170558929443
2024-12-07 16:10:01.981299000,1.545298828125,2.9305875301361084,-1.4926872253417969,-2.8394031524658203
2024-12-07 16:10:01.991327500,1.555327392578125,2.499019861221313,-1.431325912475586,-4.0507683753967285
2024-12-07 16:10:02.001355800,1.565355712890625,1.777188777923584,-1.2210769653320312,-4.715753555297852
2024-12-07 16:10:02.011384300,1.57538427734375,1.3393940925598145,-0.9751567840576172,-4.658334732055664
2024-12-07 16:10:02.021412900,1.585412841796875,0.9929773807525636,-0.6834554672241211,-4.124904155731201
2024-12-07 16:10:02.031441400,1.59544140625,0.5329587459564209,-0.397775650024414,-3.2145416736602783
2024-12-07 16:10:02.041470000,1.605469970703125,0.4514234066009521,0.0622920989990234,-2.4979264736175537
2024-12-07 16:10:02.051498500,1.61549853515625,0.5383882522583008,0.7273731231689453,-2.221674919128418
2024-12-07 16:10:02.061527000,1.625527099609375,0.5442442893981934,1.4180727005004885,-2.251384735107422
2024-12-07 16:10:02.071555600,1.6355556640625,0.450610876083374,1.975924015045166,-2.112369537353516
2024-12-07 16:10:02.081584000,1.645584228515625,0.6851527690887451,2.558558464050293,-1.7801302671432495
2024-12-07 16:10:02.091612700,1.65561279296875,0.9201984405517578,2.952288150787353,-1.0455094575881958
2024-12-07 16:10:02.101641200,1.66564111328125,1.0373575687408447,3.0071282386779785,-0.2061788141727447
2024-12-07 16:10:02.111669800,1.675669677734375,0.8777050971984863,2.649432182312012,0.5451197624206543
2024-12-07 16:10:02.121698300,1.6856982421875,0.2536630630493164,1.6439895629882812,1.439219951629639
2024-12-07 16:10:02.131726800,1.695726806640625,-0.5179791450500488,-0.2862529754638672,2.7797980308532715
2024-12-07 16:10:02.141755400,1.70575537109375,-1.1385005712509155,-2.9986696243286133,4.274535655975342
2024-12-07 16:10:02.151784000,1.715783935546875,-1.7871092557907104,-6.032769203186035,5.396872043609619
2024-12-07 16:10:02.161812500,1.7258125,-2.153623104095459,-8.136229515075684,5.184895515441895
2024-12-07 16:10:02.171841000,1.735841064453125,-1.0817519426345823,-8.640416145324707,3.899279356002808
2024-12-07 16:10:02.181869600,1.74586962890625,1.8349881172180176,-7.198498725891113,2.4022104740142822
2024-12-07 16:10:02.191898000,1.755898193359375,4.576808929443359,-4.244792938232422,1.6651201248168943
2024-12-07 16:10:02.201926700,1.7659267578125,5.159457206726074,-1.7556686401367188,2.4585256576538086
2024-12-07 16:10:02.211955200,1.775955078125,3.845835447311402,-0.3163433074951172,0.2929543256759643
2024-12-07 16:10:02.221983700,1.785983642578125,0.6588122844696045,0.7297515869140625,-2.188734531402588
2024-12-07 16:10:02.232012300,1.79601220703125,-2.2803423404693604,1.8653173446655271,-3.228992462158203
2024-12-07 16:10:02.242040800,1.806040771484375,-3.8138318061828618,3.229809284210205,-2.741796970367432
2024-12-07 16:10:02.252069400,1.8160693359375,-4.611270427703857,4.479561805725098,-2.116421222686768
2024-12-07 16:10:02.262098000,1.826097900390625,-5.203048706054688,4.950279712677002,-1.7330138683319092
2024-12-07 16:10:02.272126500,1.83612646484375,-5.418694019317627,4.690156936645508,-1.131606101989746
2024-12-07 16:10:02.282155000,1.846155029296875,-4.9587249755859375,3.616387367248535,-0.3725776672363281
2024-12-07 16:10:02.292183300,1.856183349609375,-4.259125709533691,1.7692441940307615,0.5242522954940796
2024-12-07 16:10:02.302211800,1.8662119140625,-3.61407732963562,-0.0474357604980468,1.0529508590698242
2024-12-07 16:10:02.312240400,1.876240478515625,-2.6582963466644287,-1.633234977722168,1.7030391693115234
2024-12-07 16:10:02.322269000,1.88626904296875,-1.510514736175537,-2.613611221313477,1.997786045074463
2024-12-07 16:10:02.332297500,1.89629736328125,-0.2775067090988159,-2.7935104370117188,1.2857859134674072
2024-12-07 16:10:02.342325800,1.90632568359375,0.8126598596572876,-2.470095634460449,0.1573699712753296
2024-12-07 16:10:02.352354300,1.916354248046875,1.340562105178833,-1.9804258346557613,-1.1876014471054075
2024-12-07 16:10:02.362382800,1.9263828125,1.310329794883728,-1.4437789916992188,-2.1626672744750977
2024-12-07 16:10:02.372411400,1.936411376953125,0.9225900173187256,-0.9974632263183594,-2.070329189300537
2024-12-07 16:10:02.382440000,1.94643994140625,0.1751086711883545,-0.559661865234375,-1.1932498216629028
2024-12-07 16:10:02.392468200,1.95646826171875,-0.8649927973747253,-0.0868682861328125,-0.3581576943397522
2024-12-07 16:10:02.402496800,1.966496826171875,-1.8833266496658323,0.3501844406127929,0.4051111340522766
2024-12-07 16:10:02.412525300,1.976525390625,-2.593092679977417,0.8761510848999023,1.2718801498413086
2024-12-07 16:10:02.422553900,1.986553955078125,-2.496189832687378,1.228194236755371,1.9414867162704468
2024-12-07 16:10:02.432582100,1.99658203125,-2.4665746688842773,1.254133224487305,2.174377918243408
2024-12-07 16:10:02.442610700,2.006610595703125,-2.3932342529296875,0.9081306457519532,1.862574577331543
2024-12-07 16:10:02.452639200,2.01663916015625,-2.1906578540802,0.5542783737182617,1.216700553894043
2024-12-07 16:10:02.462667800,2.026667724609375,-1.854009747505188,0.2690639495849609,0.2794752717018127
2024-12-07 16:10:02.472696300,2.0366962890625,-1.432321548461914,-0.0047426223754882,-0.655877947807312
2024-12-07 16:10:02.482724600,2.046724609375,-1.1228296756744385,-0.1572999954223632,-1.5874216556549072
2024-12-07 16:10:02.492753200,2.056753173828125,-0.8030141592025757,-0.2079277038574218,-2.3987791538238525
2024-12-07 16:10:02.502781700,2.06678173828125,-0.4221556186676025,-0.2665300369262695,-2.8384101390838623
2024-12-07 16:10:02.512810200,2.076810302734375,-0.1535607576370239,-0.2190389633178711,-2.7563672065734863
2024-12-07 16:10:02.522838800,2.0868388671875,-0.3015693426132202,-0.0091114044189453,-2.3816347122192383
2024-12-07 16:10:02.532867000,2.0968671875,-0.2768592834472656,0.2097806930541992,-1.86620831489563
2024-12-07 16:10:02.542895600,2.1068955078125,-0.0089591741561889,0.2465229034423828,-1.124743938446045
2024-12-07 16:10:02.552924200,2.116924072265625,0.2975635528564453,-0.0419044494628906,-0.3991537094116211
2024-12-07 16:10:02.562952700,2.12695263671875,0.3649964332580566,-0.2777042388916015,-0.1112545728683471
2024-12-07 16:10:02.572981000,2.13698095703125,0.1728754043579101,-0.4464073181152344,0.1522133350372314
2024-12-07 16:10:02.583009500,2.147009521484375,0.0777690410614013,-0.4240703582763672,0.3395030498504638
2024-12-07 16:10:02.593038000,2.1570380859375,0.1849511265754699,-0.2163581848144531,0.6258265376091003
2024-12-07 16:10:02.603066600,2.167066650390625,0.4439716339111328,-0.0147838592529296,0.5604156255722046
2024-12-07 16:10:02.613095200,2.17709521484375,0.5962164402008057,0.2045001983642578,0.893351137638092
2024-12-07 16:10:02.623123500,2.18712353515625,0.7614511847496033,0.3269500732421875,1.0391595363616943
2024-12-07 16:10:02.633152000,2.197152099609375,0.9812593460083008,0.3479871749877929,1.5815656185150146
2024-12-07 16:10:02.643180500,2.2071806640625,1.1665863990783691,0.153477668762207,1.3319603204727173
2024-12-07 16:10:02.653209000,2.217208984375,0.8549987077713013,0.0447359085083007,1.3815447092056274
2024-12-07 16:10:02.663237600,2.227237548828125,0.3705792427062988,-0.0214796066284179,1.1214995384216309
2024-12-07 16:10:02.673266000,2.237265869140625,-0.0980705618858337,-0.030740737915039,0.5662397146224976
2024-12-07 16:10:02.683294500,2.24729443359375,-0.4442422688007355,-0.0211219787597656,0.1253982186317443
2024-12-07 16:10:02.693323000,2.257322998046875,-0.7619620561599731,0.2125539779663086,-0.1224921941757202
2024-12-07 16:10:02.703351600,2.2673515625,-0.513845682144165,0.2685117721557617,-0.3058816194534302
2024-12-07 16:10:02.713379800,2.2773798828125,-0.1881540417671203,0.2191333770751953,-0.8872737288475037
2024-12-07 16:10:02.723408400,2.287408447265625,-0.1175587773323059,0.1367616653442382,-0.7989615797996521
2024-12-07 16:10:02.733437000,2.29743701171875,-0.0509555339813232,0.0835170745849609,-0.708403468132019
2024-12-07 16:10:02.743465500,2.307465576171875,-0.0022470951080322,0.0736846923828125,-0.7003617882728577
2024-12-07 16:10:02.753494000,2.317493896484375,0.0620966553688049,0.0737161636352539,-0.588508129119873
2024-12-07 16:10:02.763522300,2.327522216796875,0.2603920698165893,0.1215496063232421,-0.4842861294746399
2024-12-07 16:10:02.773550800,2.33755078125,0.337637722492218,0.0832643508911132,-0.5705505609512329
2024-12-07 16:10:02.783579400,2.347579345703125,0.1155000329017639,-0.0647163391113281,-0.7895283102989197
2024-12-07 16:10:02.793608000,2.35760791015625,-0.4709476232528686,-0.2312698364257812,-0.9926700592041016
2024-12-07 16:10:02.803636500,2.367636474609375,-1.0962121486663818,-0.3207159042358398,-0.8741886615753174
2024-12-07 16:10:02.813664800,2.377664794921875,-1.1937782764434814,-0.2284278869628906,-0.4501500129699707
2024-12-07 16:10:02.823693300,2.387693359375,-0.6747963428497314,-0.0030450820922851,0.1574425101280212
2024-12-07 16:10:02.833721900,2.397721923828125,0.0407889783382415,0.2353591918945312,0.664543628692627
2024-12-07 16:10:02.843750400,2.40775048828125,0.6242896914482117,0.3863773345947265,0.8510226607322693
2024-12-07 16:10:02.853779000,2.417779052734375,0.8070839047431946,0.4409160614013672,0.7289475202560425
2024-12-07 16:10:02.863807200,2.42780712890625,0.7195703387260437,0.4567975997924804,0.5016855597496033
2024-12-07 16:10:02.873835800,2.437835693359375,0.5459353923797607,0.4104833602905273,0.3232293128967285
2024-12-07 16:10:02.883864300,2.4478642578125,0.4014013409614563,0.2831945419311523,0.2031054496765136
2024-12-07 16:10:02.893892900,2.457892822265625,0.2862241268157959,0.1656713485717773,0.1153548955917358
2024-12-07 16:10:02.903921200,2.467921142578125,0.3472199440002441,0.0055828094482421,-0.3485822081565857
2024-12-07 16:10:02.913949700,2.47794970703125,0.4325452744960785,-0.0775508880615234,-0.5565530061721802
2024-12-07 16:10:02.923978200,2.487978271484375,0.7093045711517334,-0.2176313400268554,-0.7819841504096985
2024-12-07 16:10:02.934006800,2.4980068359375,1.0140739679336548,-0.3477544784545898,-0.9922381639480592
2024-12-07 16:10:02.944035300,2.508035400390625,1.2263222932815552,-0.3821926116943359,-1.226221203804016
2024-12-07 16:10:02.954063600,2.518063720703125,1.4687349796295166,-0.7267971038818359,-1.5470993518829346
2024-12-07 16:10:02.964092200,2.528092041015625,1.0665136575698853,-1.170452117919922,-1.7783094644546509
2024-12-07 16:10:02.974120700,2.53812060546875,0.6850700378417969,-1.903421401977539,-2.2056469917297363
2024-12-07 16:10:02.984149200,2.548149169921875,0.288143128156662,-2.537886619567871,-2.476888656616211
2024-12-07 16:10:02.994177800,2.558177734375,0.0769172608852386,-3.0172061920166016,-2.6799612045288086
2024-12-07 16:10:03.004206000,2.5682060546875,0.0201800763607025,-3.322629928588867,-2.807346820831299
2024-12-07 16:10:03.014234600,2.578234619140625,0.5758237242698669,-3.383143424987793,-2.600236892700196
2024-12-07 16:10:03.024263200,2.58826318359375,1.3010398149490356,-3.0471086502075195,-2.066270351409912
2024-12-07 16:10:03.034291700,2.598291748046875,1.861382842063904,-2.3352622985839844,-1.7144392728805542
2024-12-07 16:10:03.044320000,2.608320068359375,1.923311710357666,-1.444157600402832,-1.531930685043335
2024-12-07 16:10:03.054348500,2.6183486328125,1.1266400814056396,-0.5842933654785156,-0.9582717418670654
2024-12-07 16:10:03.064377000,2.628377197265625,0.7922759056091309,-0.1515884399414062,-0.4051548838615417
2024-12-07 16:10:03.074405600,2.638405517578125,0.7635753154754639,0.0411138534545898,0.6101973056793213
2024-12-07 16:10:03.084434200,2.64843408203125,1.3826342821121216,0.1564807891845703,1.1038286685943604
2024-12-07 16:10:03.094462500,2.65846240234375,1.7025933265686035,0.2426586151123047,1.2458791732788086
2024-12-07 16:10:03.104491000,2.668490966796875,1.7195611000061035,0.3378849029541015,1.2531896829605105
2024-12-07 16:10:03.114519600,2.67851953125,1.5893988609313965,0.4562721252441406,1.112030863761902
2024-12-07 16:10:03.124548000,2.688548095703125,1.65157151222229,0.540318489074707,0.7655830383300781
2024-12-07 16:10:03.134576600,2.69857666015625,1.759488821029663,0.6138982772827148,0.2871472835540771
2024-12-07 16:10:03.144605000,2.70860498046875,1.7486436367034912,0.7912483215332031,-0.2413229346275329
2024-12-07 16:10:03.154633500,2.718633544921875,1.5570268630981443,0.9952964782714844,-0.8288066387176514
2024-12-07 16:10:03.164662000,2.728662109375,1.3058464527130127,1.2256851196289062,-1.321345567703247
2024-12-07 16:10:03.174690600,2.738690673828125,1.0775163173675537,1.3294353485107422,-1.698888063430786
2024-12-07 16:10:03.184719000,2.748718994140625,0.8241392374038696,1.1683835983276367,-1.8362600803375244
2024-12-07 16:10:03.194747400,2.758747314453125,0.4979329109191894,1.057896614074707,-1.8291610479354856
2024-12-07 16:10:03.204776000,2.76877587890625,0.085389494895935,0.6969146728515625,-1.6237831115722656
2024-12-07 16:10:03.214804500,2.778804443359375,-0.4920021295547485,0.25299072265625,-1.158890724182129
2024-12-07 16:10:03.224833000,2.7888330078125,-1.2922865152359009,-0.2593345642089844,-0.5884135961532593
2024-12-07 16:10:03.234861300,2.798861328125,-2.142991542816162,-0.7488822937011719,0.2052398324012756
2024-12-07 16:10:03.244889900,2.808889892578125,-2.8278963565826416,-1.138667106628418,1.0463006496429443
2024-12-07 16:10:03.254918400,2.81891845703125,-2.7301857471466064,-1.1994905471801758,1.5278571844100952
2024-12-07 16:10:03.264947000,2.828947021484375,-2.134211778640747,-1.0895538330078125,1.914990782737732
2024-12-07 16:10:03.274975500,2.8389755859375,-1.7056143283843994,-1.067068099975586,2.3741655349731445
2024-12-07 16:10:03.285003800,2.849003662109375,-1.349024534225464,-1.2178373336791992,2.9436702728271484
2024-12-07 16:10:03.295032300,2.8590322265625,-0.998497486114502,-1.3555002212524414,3.3941941261291504
2024-12-07 16:10:03.305060900,2.869060791015625,-0.9617571830749512,-1.4127626419067385,3.567922592163086
2024-12-07 16:10:03.315089400,2.87908935546875,-1.109293818473816,-1.4218320846557615,2.8384451866149902
2024-12-07 16:10:03.325118000,2.889117919921875,-1.1286861896514893,-1.3148584365844729,1.7993717193603516
2024-12-07 16:10:03.335146200,2.899146240234375,-1.2049086093902588,-1.302504539489746,0.9417068362236024
2024-12-07 16:10:03.345174800,2.9091748046875,-1.0040194988250732,-1.3282175064086914,0.0730112791061401
2024-12-07 16:10:03.355203300,2.919203369140625,-1.021083116531372,-1.2202091217041016,-0.9315814971923828
2024-12-07 16:10:03.365231900,2.92923193359375,-1.1726298332214355,-1.1209735870361328,-1.7732924222946167
2024-12-07 16:10:03.375260200,2.93926025390625,-0.8554127216339111,-1.1106719970703125,-2.5817325115203857
2024-12-07 16:10:03.385288700,2.949288818359375,-0.3784956932067871,-1.0465307235717771,-2.816723823547364
2024-12-07 16:10:03.395317200,2.959317138671875,-0.0833194255828857,-0.7820358276367188,-2.637698173522949
2024-12-07 16:10:03.405345800,2.969345703125,-0.5134801864624023,-0.2134962081909179,-1.837571740150452
2024-12-07 16:10:03.415374300,2.979374267578125,-1.357255220413208,0.2917728424072265,-0.7491296529769897
2024-12-07 16:10:03.425402600,2.989402587890625,-2.208399534225464,0.7402801513671875,0.2713252305984497
2024-12-07 16:10:03.435431200,2.99943115234375,-2.7419283390045166,1.1564970016479492,1.0379266738891602
2024-12-07 16:10:03.445459700,3.009459716796875,-3.1571340560913086,1.2964353561401367,1.812366008758545
2024-12-07 16:10:03.455488300,3.01948828125,-3.2815067768096924,1.4509077072143557,2.0663034915924072
2024-12-07 16:10:03.465516800,3.029516845703125,-3.370918035507202,1.4999713897705078,2.173907995223999
2024-12-07 16:10:03.475545000,3.039545166015625,-3.262808561325073,1.4538240432739258,2.28244948387146
2024-12-07 16:10:03.485573600,3.04957373046875,-2.951959609985352,1.3467178344726562,2.4409899711608887
2024-12-07 16:10:03.495602200,3.059602294921875,-2.860414505004883,1.0609664916992188,2.7811026573181152
2024-12-07 16:10:03.505630700,3.069630615234375,-2.488039493560791,1.0232925415039062,2.4293670654296875
2024-12-07 16:10:03.515659000,3.079658935546875,-2.205785751342773,0.9142475128173828,2.012394666671753
2024-12-07 16:10:03.525687600,3.0896875,-1.888746738433838,0.6485166549682617,1.8485723733901973
2024-12-07 16:10:03.535716000,3.099716064453125,-1.5624406337738037,0.2067766189575195,2.2685024738311768
2024-12-07 16:10:03.545744600,3.10974462890625,-1.0501911640167236,0.0075788497924804,1.5146944522857666
2024-12-07 16:10:03.555773200,3.119773193359375,-0.7485990524291992,-0.1807765960693359,1.06219482421875
2024-12-07 16:10:03.565801500,3.129801513671875,-0.3610472679138183,-0.4366655349731445,0.9311126470565796
2024-12-07 16:10:03.575830000,3.139830078125,-0.1627309322357177,-0.6084136962890625,0.9569871425628662
2024-12-07 16:10:03.585858600,3.149858642578125,-0.0247423648834228,-0.6345710754394531,1.0050294399261477
2024-12-07 16:10:03.595887000,3.15988720703125,0.0256659984588623,-0.6107091903686523,1.2297003269195557
2024-12-07 16:10:03.605915600,3.16991552734375,-0.0515792369842529,-0.5312538146972656,1.47838294506073
2024-12-07 16:10:03.615944000,3.17994384765625,0.1181845664978027,-0.2142210006713867,1.1571533679962158
2024-12-07 16:10:03.625972500,3.189972412109375,-0.4658684730529785,-0.5519590377807617,2.045571565628052
2024-12-07 16:10:03.636001000,3.2000009765625,-0.195897102355957,-0.2576475143432617,1.5898120403289795
2024-12-07 16:10:03.646029600,3.210029541015625,-0.0683789253234863,0.0840272903442382,1.2604724168777466
2024-12-07 16:10:03.656058000,3.22005810546875,-0.073221206665039,0.4013929367065429,1.1713790893554688
2024-12-07 16:10:03.666086400,3.23008642578125,-0.2424592971801757,0.7570390701293945,1.199893593788147
2024-12-07 16:10:03.676115000,3.240114990234375,-0.2272236347198486,1.1508407592773438,0.6931899785995483
2024-12-07 16:10:03.686143500,3.2501435546875,-0.3098161220550537,1.3630924224853516,0.7120351791381836
2024-12-07 16:10:03.696172000,3.260172119140625,-0.3416028022766113,1.5711522102355957,0.4890517294406891
2024-12-07 16:10:03.706200600,3.27020068359375,-0.2797226905822754,1.646165370941162,0.2024422287940979
2024-12-07 16:10:03.716229000,3.28022900390625,-0.1435027122497558,1.6458287239074707,-0.180900752544403
2024-12-07 16:10:03.726257700,3.290257568359375,0.061655044555664,1.5940308570861816,-0.4987311363220215
2024-12-07 16:10:03.736286200,3.3002861328125,0.3019640445709228,1.4860234260559082,-0.8377573490142822
2024-12-07 16:10:03.746314800,3.310314697265625,0.4677057266235351,1.326751708984375,-1.239590406417847
2024-12-07 16:10:03.756343300,3.32034326171875,0.5882365703582764,1.0831031799316406,-1.586682915687561
2024-12-07 16:10:03.766371800,3.330371826171875,0.7306792736053467,0.7458267211914062,-1.8668779134750368
2024-12-07 16:10:03.776400400,3.340400390625,0.7625284194946289,0.372990608215332,-2.18350887298584
2024-12-07 16:10:03.786429000,3.350428955078125,0.8693814277648926,0.0025663375854492,-2.437391519546509
2024-12-07 16:10:03.796457500,3.36045751953125,0.9209043979644777,-0.2656173706054687,-2.65924072265625
2024-12-07 16:10:03.806486000,3.370486083984375,1.006556510925293,-0.3560094833374023,-2.500097274780273
2024-12-07 16:10:03.816514600,3.3805146484375,1.1095035076141355,-0.2605781555175781,-2.020537853240967
2024-12-07 16:10:03.826543000,3.390543212890625,1.1299219131469729,-0.0178766250610351,-1.895607829093933
2024-12-07 16:10:03.836571600,3.400571533203125,1.0845041275024414,-0.3244695663452148,-1.4163814783096311
2024-12-07 16:10:03.846600200,3.41060009765625,1.3872883319854736,-0.4632816314697265,-0.8975183963775635
2024-12-07 16:10:03.856628700,3.420628662109375,1.5906307697296145,-0.3069906234741211,-0.7243779897689819
2024-12-07 16:10:03.866657300,3.4306572265625,1.508552312850952,-0.1620702743530273,-0.5351433157920837
2024-12-07 16:10:03.876685800,3.440685791015625,1.405736207962036,0.014967918395996,-0.4686964154243469
2024-12-07 16:10:03.886714400,3.45071435546875,1.3311004638671875,0.1814661026000976,-0.286704808473587
2024-12-07 16:10:03.896743000,3.460742919921875,1.2057535648345947,0.2857532501220703,-0.0197734534740448
2024-12-07 16:10:03.906771500,3.470771484375,0.9994914531707764,0.2765455245971679,0.4504363238811493
2024-12-07 16:10:03.916800000,3.480800048828125,0.8683812618255615,0.2649860382080078,0.770002543926239
2024-12-07 16:10:03.926828500,3.49082861328125,0.7942483425140381,0.1749477386474609,0.8872239589691162
2024-12-07 16:10:03.936857000,3.500857177734375,0.7096307277679443,-0.0986900329589843,1.0522781610488892
2024-12-07 16:10:03.946885600,3.5108857421875,0.6788947582244873,-0.5706272125244141,1.2636711597442627
2024-12-07 16:10:03.956914200,3.5209140625,0.7222778797149658,-1.2461977005004885,1.729860782623291
2024-12-07 16:10:03.966942700,3.530942626953125,0.775104284286499,-2.1208057403564453,2.2695555686950684
2024-12-07 16:10:03.976971300,3.54097119140625,0.9317502975463868,-3.117886543273926,2.604372024536133
2024-12-07 16:10:03.986999800,3.550999755859375,1.1899094581604004,-3.965566635131836,2.400139331817627
2024-12-07 16:10:03.997028400,3.5610283203125,1.479360580444336,-4.5074968338012695,1.9030792713165283
2024-12-07 16:10:04.007057000,3.571056884765625,1.9135377407073977,-4.407031059265137,1.2448079586029053
2024-12-07 16:10:04.017085400,3.58108544921875,2.1331887245178223,-3.5528059005737305,0.6504448652267456
2024-12-07 16:10:04.027114000,3.591114013671875,1.946328401565552,-2.457087516784668,-0.0042185187339782
2024-12-07 16:10:04.037142500,3.601142578125,1.869517803192139,-1.391016960144043,-0.9202322363853456
2024-12-07 16:10:04.047171000,3.611171142578125,1.6617741584777832,-0.1431417465209961,-1.6189014911651611
2024-12-07 16:10:04.057199900,3.621199951171875,0.7932460308074951,1.1680059432983398,-1.757309913635254
2024-12-07 16:10:04.067228400,3.631228515625,-0.6066389083862305,2.4871082305908203,-1.427005410194397
2024-12-07 16:10:04.077257000,3.641257080078125,-1.528861165046692,3.533764839172364,-1.1512315273284912
2024-12-07 16:10:04.087285500,3.651285400390625,-2.2413175106048584,3.859858989715576,-0.5515264272689819
2024-12-07 16:10:04.097314000,3.66131396484375,-2.8576467037200928,3.548611640930176,0.1082792282104492
2024-12-07 16:10:04.107342800,3.6713427734375,-3.1980721950531006,2.8493051528930664,0.7336816191673279
2024-12-07 16:10:04.117371400,3.681371337890625,-3.361795663833618,1.948424816131592,1.308578372001648
2024-12-07 16:10:04.127400000,3.69139990234375,-3.2459826469421387,0.8888282775878906,2.009756326675415
2024-12-07 16:10:04.137428500,3.701428466796875,-2.858722448348999,0.0759992599487304,2.2307286262512207
2024-12-07 16:10:04.147457000,3.71145703125,-2.5144693851470947,-0.2955303192138672,2.0644047260284424
2024-12-07 16:10:04.157485800,3.72148583984375,-2.1833841800689697,-0.5850143432617188,2.240633249282837
2024-12-07 16:10:04.167514400,3.731514404296875,-1.5784265995025637,-0.7070693969726562,2.0324037075042725
2024-12-07 16:10:04.177543000,3.74154296875,-0.8937395811080933,-0.6388864517211914,1.355424165725708
2024-12-07 16:10:04.187571500,3.751571533203125,-0.3564692735671997,-0.5438814163208008,0.6797533631324768
2024-12-07 16:10:04.197600000,3.76160009765625,-0.0368368625640869,-0.5518617630004883,0.0198367238044738
2024-12-07 16:10:04.207628500,3.771628662109375,-0.1108913421630859,-0.6488475799560547,-0.7071189284324646
2024-12-07 16:10:04.217657300,3.7816572265625,-0.6735693216323853,-0.6812887191772461,-1.262629747390747
2024-12-07 16:10:04.227686000,3.791685791015625,-1.7287803888320925,-0.5764522552490234,-1.5783100128173828
2024-12-07 16:10:04.237714400,3.80171435546875,-3.0287795066833496,-0.2612085342407226,-1.8821251392364504
2024-12-07 16:10:04.247743000,3.811742919921875,-3.9775424003601074,0.0268735885620117,-1.7476069927215576
2024-12-07 16:10:04.257771500,3.821771484375,-4.156526565551758,0.1499366760253906,-1.3631324768066406
2024-12-07 16:10:04.267800300,3.83180029296875,-3.215003490447998,0.1504411697387695,-1.0806092023849487
2024-12-07 16:10:04.277828900,3.841828857421875,-1.877726674079895,0.0027141571044921,-0.209263801574707
2024-12-07 16:10:04.287857400,3.851857421875,-0.7610177993774414,-0.1938991546630859,0.4642088413238525
2024-12-07 16:10:04.297886000,3.861885986328125,-0.0056884288787841,-0.3675804138183594,0.2921758890151977
2024-12-07 16:10:04.307914500,3.87191455078125,0.3217566013336181,-0.5268659591674805,-0.4431425333023071
2024-12-07 16:10:04.317943300,3.881943359375,0.2991663217544555,-0.5854692459106445,-0.8254203796386719
2024-12-07 16:10:04.327971800,3.891971923828125,-0.1207597255706787,-0.5389194488525391,-1.0798529386520386
2024-12-07 16:10:04.338000400,3.90200048828125,-0.4440263509750366,-0.4252481460571289,-1.6100733280181885
2024-12-07 16:10:04.348029000,3.91202880859375,-0.5471922755241394,-0.3159904479980469,-1.848449945449829
2024-12-07 16:10:04.358057500,3.922057373046875,-0.4743047952651977,-0.1588668823242187,-1.6587344408035278
2024-12-07 16:10:04.368086300,3.932086181640625,-0.2734501361846924,-0.0021114349365234,-1.24583101272583
2024-12-07 16:10:04.378114800,3.94211474609375,-0.0452040433883667,0.0965003967285156,-0.801166296005249
2024-12-07 16:10:04.388143400,3.952143310546875,0.1234591007232666,0.1224174499511718,-0.4280768632888794
2024-12-07 16:10:04.398172000,3.962171875,0.1838576793670654,0.1711893081665039,-0.18457692861557
2024-12-07 16:10:04.408200400,3.972200439453125,0.2073974609375,0.2188711166381836,-0.0130966901779174
2024-12-07 16:10:04.418229200,3.982229248046875,0.1893188953399658,0.2178268432617187,0.0969215035438537
2024-12-07 16:10:04.428257800,3.9922578125,0.1069823503494262,0.1922969818115234,0.1034295558929443
2024-12-07 16:10:04.438286300,4.002286376953125,-0.0336036682128906,0.1283245086669922,-0.0678306818008422
2024-12-07 16:10:04.448315000,4.01231494140625,-0.2113743424415588,0.0550537109375,-0.2136562466621399
2024-12-07 16:10:04.458343400,4.022343505859375,-0.3435614705085754,-0.0464763641357421,-0.3486175537109375
2024-12-07 16:10:04.468372200,4.032372314453125,-0.3686052560806274,-0.1045598983764648,-0.5771884918212891
2024-12-07 16:10:04.478400800,4.04240087890625,-0.4130064845085144,-0.0763769149780273,-0.7206026911735535
2024-12-07 16:10:04.488429300,4.05242919921875,-0.529405951499939,-0.0099697113037109,-0.6409839391708374
2024-12-07 16:10:04.498457900,4.062457763671875,-0.4784598350524902,0.1470699310302734,-0.5736332535743713
2024-12-07 16:10:04.508486400,4.072486328125,-0.4714269340038299,0.3322887420654297,-0.2804999351501465
2024-12-07 16:10:04.518515200,4.08251513671875,-0.6550164222717285,0.5456399917602539,0.0123201012611389
2024-12-07 16:10:04.528543700,4.092543701171875,-0.6022170782089233,0.6485586166381836,0.3133668303489685
2024-12-07 16:10:04.538572300,4.102572265625,-0.5521308183670044,0.6507530212402344,0.644737958908081
2024-12-07 16:10:04.548600800,4.112600830078125,-0.4668925404548645,0.5189180374145508,0.9478482007980348
2024-12-07 16:10:04.558629400,4.12262939453125,-0.3614714443683624,0.4489669799804687,1.2293822765350342
2024-12-07 16:10:04.568658000,4.132657958984375,-0.3131998479366302,0.2400531768798828,1.431692361831665
2024-12-07 16:10:04.578686700,4.142686767578125,-0.3749698996543884,0.0309810638427734,1.640650749206543
2024-12-07 16:10:04.588715300,4.15271533203125,-0.3225825428962707,-0.0588397979736328,1.5941920280456543
2024-12-07 16:10:04.598743800,4.162743896484375,-0.1911568939685821,-0.0917081832885742,1.257149338722229
2024-12-07 16:10:04.608772400,4.1727724609375,-0.2057290971279144,0.0183935165405273,0.8190168142318726
2024-12-07 16:10:04.618801000,4.18280078125,-0.3452046513557434,0.1279993057250976,0.4627464413642883
2024-12-07 16:10:04.628829700,4.19282958984375,-0.3689830899238586,0.117802619934082,0.1695254445075988
2024-12-07 16:10:04.638858200,4.202858154296875,-0.3580825626850128,0.1026678085327148,0.043312668800354
2024-12-07 16:10:04.648886800,4.21288671875,-0.1316083371639251,-0.051152229309082,-0.3555485606193542
2024-12-07 16:10:04.658915300,4.222915283203125,-0.0590006113052368,-0.1283378601074218,-0.5192704200744629
2024-12-07 16:10:04.668944000,4.23294384765625,-0.0724086463451385,-0.1099624633789062,-0.6300591230392456
2024-12-07 16:10:04.678972700,4.24297265625,-0.0369576215744018,-0.0344161987304687,-0.5347577333450317
2024-12-07 16:10:04.689001200,4.253001220703125,0.1283158659934997,0.0455904006958007,-0.3677889108657837
2024-12-07 16:10:04.699029800,4.26302978515625,0.360046923160553,0.1491336822509765,-0.2487176656723022
2024-12-07 16:10:04.709058300,4.273058349609375,0.5615448951721191,0.1949796676635742,-0.1388836503028869
2024-12-07 16:10:04.719086800,4.2830869140625,0.6419541239738464,0.1832647323608398,-0.0193675756454467
2024-12-07 16:10:04.729115600,4.29311572265625,0.6641577482223511,0.1284132003784179,0.0804973840713501
2024-12-07 16:10:04.739144200,4.303144287109375,0.5801160335540771,0.1069440841674804,-0.0447558164596557
2024-12-07 16:10:04.749172700,4.3131728515625,0.3090234398841858,0.0280618667602539,-0.2939706444740295
2024-12-07 16:10:04.759201300,4.323201171875,-0.0042295232415199,-0.0649776458740234,-0.4842244386672973
2024-12-07 16:10:04.769229800,4.333229736328125,-0.2723686099052429,0.0189743041992187,-0.5482175946235657
2024-12-07 16:10:04.779258600,4.343258544921875,-0.4178053140640259,0.1934614181518554,-0.500739336013794
2024-12-07 16:10:04.789287200,4.353287109375,-0.4029068946838379,0.3674802780151367,-0.3277830481529236
2024-12-07 16:10:04.799315700,4.363315673828125,-0.2140050083398819,0.5074586868286133,-0.0068274736404418
2024-12-07 16:10:04.809344300,4.37334423828125,0.1438325941562652,0.4747676849365234,0.3839166164398193
2024-12-07 16:10:04.819372800,4.383372802734375,0.622281551361084,0.3460369110107422,0.799659013748169
2024-12-07 16:10:04.829401600,4.393401611328125,1.15863835811615,0.168985366821289,1.0089771747589111
2024-12-07 16:10:04.839430100,4.40343017578125,1.632314920425415,-0.0421352386474609,0.8533413410186768
2024-12-07 16:10:04.849458700,4.413458740234375,1.704258918762207,-0.0963926315307617,0.2847423553466797
2024-12-07 16:10:04.859487200,4.4234873046875,1.5698108673095703,-0.2796964645385742,-0.8852370381355286
2024-12-07 16:10:04.869515800,4.433515869140625,0.9958444833755492,-0.34735107421875,-1.59422767162323
2024-12-07 16:10:04.879544300,4.44354443359375,0.6420519948005676,-0.4190130233764648,-2.162183284759521
2024-12-07 16:10:04.889573000,4.453572998046875,1.0245317220687866,-0.5039434432983398,-2.706937789916992
2024-12-07 16:10:04.899601700,4.4636015625,0.3497474193572998,-0.6355314254760742,-2.397909879684448
2024-12-07 16:10:04.909630200,4.473630126953125,0.3168249130249023,-0.6855182647705078,-2.460742712020874
2024-12-07 16:10:04.919658800,4.48365869140625,0.6495434045791626,-0.8015403747558594,-2.790867328643799
2024-12-07 16:10:04.929687300,4.493687255859375,0.7881159782409668,-1.0067110061645508,-2.777012825012207
2024-12-07 16:10:04.939716000,4.503716064453125,0.7500749230384827,-1.0903949737548828,-2.624739170074463
2024-12-07 16:10:04.949744600,4.51374462890625,0.504097580909729,-1.0961294174194336,-2.258735418319702
2024-12-07 16:10:04.959773200,4.523773193359375,0.3368374407291412,-1.1060771942138672,-1.9813036918640137
2024-12-07 16:10:04.969801700,4.5338017578125,0.1140410304069519,-1.3213386535644531,-1.7388372421264648
2024-12-07 16:10:04.979830300,4.543830322265625,-0.1006325483322143,-1.8036251068115232,-1.483810305595398
2024-12-07 16:10:04.989859000,4.553859130859375,-0.1080152988433837,-2.8343610763549805,-0.9012243747711182
2024-12-07 16:10:04.999887600,4.5638876953125,-0.0755036473274231,-3.4471206665039062,-0.1428611278533935
2024-12-07 16:10:05.009916200,4.573916259765625,0.1251836419105529,-3.552671432495117,1.0015592575073242
2024-12-07 16:10:05.019944700,4.58394482421875,0.822083055973053,-3.328685760498047,1.922714710235596
2024-12-07 16:10:05.029973200,4.59397314453125,1.4580061435699463,-2.6990785598754883,2.758604049682617
2024-12-07 16:10:05.040002000,4.604001953125,1.6534544229507446,-1.9515714645385744,3.396897315979004
2024-12-07 16:10:05.050030600,4.614030517578125,1.796997308731079,-1.1059942245483398,3.410613775253296
2024-12-07 16:10:05.060059100,4.62405908203125,1.8260334730148315,-0.3774909973144531,2.511349678039551
2024-12-07 16:10:05.070087700,4.634087646484375,1.440908908843994,0.2390270233154297,1.54474139213562
2024-12-07 16:10:05.080116200,4.6441162109375,1.1373512744903564,0.7485418319702148,0.6761808395385742
2024-12-07 16:10:05.090145000,4.65414501953125,1.0552871227264404,1.0558347702026367,0.008420705795288
2024-12-07 16:10:05.100173600,4.664173583984375,0.9991797804832458,1.2236003875732422,-0.5378909111022949
2024-12-07 16:10:05.110202000,4.6742021484375,1.0267748832702637,1.323868751525879,-1.071373701095581
2024-12-07 16:10:05.120230700,4.684230712890625,0.9857406616210938,1.3330802917480469,-1.3748679161071775
2024-12-07 16:10:05.130259200,4.69425927734375,1.0483022928237915,1.2609891891479492,-1.4816431999206543
2024-12-07 16:10:05.140288000,4.7042880859375,1.1268773078918457,1.1651382446289062,-1.448458552360535
2024-12-07 16:10:05.150316500,4.714316650390625,1.1104669570922852,1.050248146057129,-1.2129082679748535
2024-12-07 16:10:05.160345000,4.724344970703125,0.8750683069229126,0.9638729095458984,-0.8708512187004089
2024-12-07 16:10:05.170373600,4.73437353515625,0.7120375037193298,0.8053178787231445,-0.4606810808181762
2024-12-07 16:10:05.180402200,4.744402099609375,0.6483362317085266,0.6601600646972656,-0.0980323553085327
2024-12-07 16:10:05.190431000,4.754430908203125,0.433818519115448,0.4321546554565429,0.2739030122756958
2024-12-07 16:10:05.200459500,4.76445947265625,0.1311967372894287,0.2068052291870117,0.6211191415786743
2024-12-07 16:10:05.210488000,4.774488037109375,-0.0950077176094055,0.0075111389160156,0.8815112113952637
2024-12-07 16:10:05.220516600,4.7845166015625,-0.3287995457649231,-0.2378168106079101,1.0837583541870115
2024-12-07 16:10:05.230545200,4.794545166015625,-0.6298823952674866,-0.4624128341674804,1.3137547969818115
2024-12-07 16:10:05.240573700,4.80457373046875,-0.9997721910476683,-0.661503791809082,1.4851298332214355
2024-12-07 16:10:05.250602500,4.8146025390625,-1.1047135591506958,-0.758173942565918,1.4742209911346436
2024-12-07 16:10:05.260631000,4.824631103515625,-0.9849603772163392,-0.7760009765625,1.404839277267456
2024-12-07 16:10:05.270659600,4.83465966796875,-0.905091404914856,-0.8672666549682617,1.0847302675247192
2024-12-07 16:10:05.280688000,4.844688232421875,-1.005335807800293,-1.1455421447753906,1.0048526525497437
2024-12-07 16:10:05.290716700,4.854716552734375,-1.4281251430511477,-1.3995132446289062,0.8875911235809326
2024-12-07 16:10:05.300745500,4.864745361328125,-2.344929456710815,-1.4689044952392578,0.3102856874465942
2024-12-07 16:10:05.310774000,4.87477392578125,-2.323537349700928,-1.2848186492919922,-0.6540917754173279
2024-12-07 16:10:05.320802600,4.884802490234375,-1.3021997213363647,-1.1397418975830078,-1.8418095111846924
2024-12-07 16:10:05.330831000,4.8948310546875,-1.073725700378418,-1.0499286651611328,-2.361769676208496
2024-12-07 16:10:05.340859600,4.904859619140625,-1.6871365308761597,-0.7707366943359375,-2.71816635131836
2024-12-07 16:10:05.350888400,4.914888427734375,-2.0909364223480225,-0.6022119522094727,-3.380511283874512
2024-12-07 16:10:05.360917000,4.9249169921875,-2.384940385818481,-0.4910011291503906,-3.401966094970703
2024-12-07 16:10:05.370945500,4.934945556640625,-2.359442234039306,-0.4329729080200195,-2.2606890201568604
2024-12-07 16:10:05.380974300,4.944974365234375,-1.6633261442184448,-0.2149848937988281,-0.6599540710449219
2024-12-07 16:10:05.391003000,4.9550029296875,-0.7576169967651367,0.0118989944458007,0.8613576889038086
2024-12-07 16:10:05.401031700,4.96503173828125,-0.0895619392395019,0.2452602386474609,1.545238375663757
2024-12-07 16:10:05.411060200,4.975060302734375,0.1984288692474365,0.4601497650146484,1.4780492782592771
2024-12-07 16:10:05.421088800,4.9850888671875,0.1386659145355224,0.4748620986938476,1.2380262613296509
2024-12-07 16:10:05.431117600,4.99511767578125,-0.219877004623413,0.4765119552612304,1.2724813222885132
2024-12-07 16:10:05.441146000,5.00514599609375,-0.933929443359375,0.1515340805053711,1.4667229652404783
2024-12-07 16:10:05.451175000,5.0151748046875,-1.205715894699097,0.1040515899658203,1.4789878129959106
2024-12-07 16:10:05.461203500,5.025203369140625,-1.1487340927124023,0.1574783325195312,1.2182823419570925
2024-12-07 16:10:05.471232000,5.03523193359375,-1.2591156959533691,-0.074747085571289,2.11165452003479
2024-12-07 16:10:05.481260800,5.0452607421875,-0.9012339115142822,-0.042332649230957,2.5630009174346924
2024-12-07 16:10:05.491289300,5.055289306640625,-0.4468114376068115,0.2964134216308594,2.597581624984741
2024-12-07 16:10:05.501318100,5.065318115234375,-0.9970486164093018,0.2140417098999023,2.756206750869751
2024-12-07 16:10:05.511346700,5.0753466796875,-1.4204277992248535,0.3856687545776367,1.987812042236328
2024-12-07 16:10:05.521375200,5.085375244140625,-1.9916163682937624,0.5965785980224609,1.6705255508422852
2024-12-07 16:10:05.531404000,5.095404052734375,-2.249229431152344,0.6708106994628906,1.9296698570251465
2024-12-07 16:10:05.541432600,5.1054326171875,-1.832380771636963,0.6990299224853516,2.275946617126465
2024-12-07 16:10:05.551461400,5.11546142578125,-1.152402639389038,0.6418838500976562,2.392284870147705
2024-12-07 16:10:05.561490000,5.125489990234375,-0.6891868114471436,0.5085906982421875,2.287827253341675
2024-12-07 16:10:05.571518500,5.1355185546875,-0.3369467258453369,0.3614511489868164,2.236363887786865
2024-12-07 16:10:05.581547300,5.14554736328125,-0.0480408668518066,0.3197269439697265,2.338765382766724
2024-12-07 16:10:05.591575800,5.155575927734375,0.0486607551574707,0.3974580764770508,2.407618761062622
2024-12-07 16:10:05.601604600,5.1656044921875,0.0679869651794433,0.5416841506958008,2.442328691482544
2024-12-07 16:10:05.611633200,5.175633056640625,-0.0279788970947265,0.7092361450195312,2.233107328414917
2024-12-07 16:10:05.621661700,5.18566162109375,-0.1713690757751464,0.8572597503662109,1.9156805276870728
2024-12-07 16:10:05.631690500,5.1956904296875,-0.3237180709838867,1.000141143798828,1.5098594427108765
2024-12-07 16:10:05.641719000,5.205718994140625,-0.4709725379943847,1.1520700454711914,1.0642552375793457
2024-12-07 16:10:05.651747800,5.215747802734375,-0.4896252155303955,1.2936420440673828,0.6795212626457214
2024-12-07 16:10:05.661776400,5.2257763671875,-0.4617345333099365,1.4055461883544922,0.2363477051258087
2024-12-07 16:10:05.671805000,5.235804931640625,-0.4245550632476806,1.488234519958496,-0.1834562122821808
2024-12-07 16:10:05.681833700,5.245833740234375,-0.3192157745361328,1.4946060180664062,-0.5070371627807617
2024-12-07 16:10:05.691862300,5.2558623046875,-0.1062183380126953,1.3776626586914062,-0.8909571170806885
2024-12-07 16:10:05.701891000,5.26589111328125,0.25368332862854,1.042741775512695,-1.299787521362305
2024-12-07 16:10:05.711919600,5.275919677734375,0.8260400295257568,0.5569686889648438,-1.631588578224182
2024-12-07 16:10:05.721948200,5.2859482421875,1.1698243618011477,0.0159273147583007,-2.076482057571411
2024-12-07 16:10:05.731977000,5.29597705078125,1.4616303443908691,-0.4610214233398437,-2.5899300575256348
2024-12-07 16:10:05.742005500,5.306005615234375,1.6384758949279783,-0.7835550308227539,-3.0639219284057617
2024-12-07 16:10:05.752034300,5.316034423828125,1.5751826763153076,-0.9333372116088868,-3.285444974899292
2024-12-07 16:10:05.762062800,5.326062744140625,1.3778128623962402,-0.7483024597167969,-2.93604040145874
2024-12-07 16:10:05.772091400,5.33609130859375,1.1521484851837158,-0.3056917190551758,-2.7364048957824707
2024-12-07 16:10:05.782120200,5.3461201171875,1.003387689590454,0.0641994476318359,-2.544429063796997
2024-12-07 16:10:05.792148700,5.356148681640625,0.9104673862457277,0.3942279815673828,-2.523589849472046
2024-12-07 16:10:05.802177500,5.366177490234375,0.8334131240844727,0.5405054092407227,-2.6214401721954346
2024-12-07 16:10:05.812206000,5.3762060546875,0.6234242916107178,0.4649238586425781,-2.5476369857788086
2024-12-07 16:10:05.822234600,5.386234619140625,0.3207044601440429,0.3405561447143554,-2.0564796924591064
2024-12-07 16:10:05.832263400,5.396263427734375,0.128833532333374,0.4217176437377929,-1.2278518676757812
2024-12-07 16:10:05.842292000,5.4062919921875,-0.0020997524261474,0.6135349273681641,-0.4278151988983154
2024-12-07 16:10:05.852320800,5.41632080078125,-0.0735857486724853,0.8216218948364258,0.2366988360881805
2024-12-07 16:10:05.862349300,5.426349365234375,0.0355663299560546,0.9369049072265624,0.6888091564178467
2024-12-07 16:10:05.872377900,5.4363779296875,0.2156343460083007,1.098423957824707,1.075709342956543
2024-12-07 16:10:05.882406700,5.44640673828125,0.3805713653564453,1.320481300354004,1.3718072175979614
2024-12-07 16:10:05.892435200,5.456435302734375,0.5826647281646729,1.512067794799805,1.5325270891189575
2024-12-07 16:10:05.902464000,5.466464111328125,0.8110246658325195,1.6536202430725098,1.5476617813110352
2024-12-07 16:10:05.912492500,5.476492431640625,0.7259244918823242,1.5825481414794922,1.5503919124603271
2024-12-07 16:10:05.922521000,5.48652099609375,0.4383022785186767,1.1034278869628906,1.498641848564148
2024-12-07 16:10:05.932550000,5.4965498046875,0.1452109813690185,0.1551332473754882,1.523324966430664
2024-12-07 16:10:05.942578400,5.506578369140625,-0.153360366821289,-1.0274887084960938,1.6324354410171509
2024-12-07 16:10:05.952607000,5.51660693359375,-0.4092652797698974,-2.2100210189819336,1.810375094413757
2024-12-07 16:10:05.962635800,5.5266357421875,-0.3124496936798095,-3.4024133682250977,2.346380710601806
2024-12-07 16:10:05.972664300,5.536664306640625,0.172086477279663,-4.4098005294799805,2.989941120147705
2024-12-07 16:10:05.982693000,5.546693115234375,0.6709978580474854,-5.095705986022949,3.20023512840271
2024-12-07 16:10:05.992721700,5.5567216796875,0.6260051727294922,-5.643620491027832,3.1580617427825928
2024-12-07 16:10:06.002750200,5.566750244140625,0.898505449295044,-6.2364606857299805,2.6841983795166016
2024-12-07 16:10:06.012779000,5.576779052734375,2.1635096073150635,-6.308599472045898,1.928631067276001
2024-12-07 16:10:06.022807600,5.5868076171875,3.5381791591644287,-5.272658348083496,0.3481640517711639
2024-12-07 16:10:06.032836400,5.59683642578125,3.316279888153076,-3.5370826721191406,-1.198112964630127
2024-12-07 16:10:06.042865000,5.606864990234375,1.6188488006591797,-1.5051279067993164,-1.2104222774505615
2024-12-07 16:10:06.052893400,5.6168935546875,-0.0346601009368896,0.9890947341918944,-0.8771439790725708
2024-12-07 16:10:06.062922200,5.626922119140625,-0.9938169717788696,3.3310132026672363,-0.3073590397834778
2024-12-07 16:10:06.072950800,5.63695068359375,-1.5189460515975952,5.177999019622803,0.2959539890289306
2024-12-07 16:10:06.082979600,5.6469794921875,-1.9773567914962769,6.077835559844971,0.5193778872489929
2024-12-07 16:10:06.093008100,5.657008056640625,-2.214102268218994,5.67526912689209,0.5658402442932129
2024-12-07 16:10:06.103036700,5.66703662109375,-2.061490774154663,4.6757354736328125,0.5870358943939209
2024-12-07 16:10:06.113065500,5.6770654296875,-1.9095606803894043,3.428445816040039,0.1606988906860351
2024-12-07 16:10:06.123094000,5.687093994140625,-2.180148363113404,1.962155818939209,-0.5272358655929565
2024-12-07 16:10:06.133122800,5.697122802734375,-2.699986457824707,0.6071481704711914,-1.3408212661743164
2024-12-07 16:10:06.143151400,5.7071513671875,-2.867199420928955,-0.5363702774047852,-2.1993775367736816
2024-12-07 16:10:06.153180000,5.717179931640625,-2.530898332595825,-1.4031267166137695,-2.6899847984313965
2024-12-07 16:10:06.163208700,5.727208740234375,-1.990769624710083,-1.746943473815918,-2.8168110847473145
2024-12-07 16:10:06.173237200,5.7372373046875,-1.0571527481079102,-1.6371688842773438,-3.001605987548828
2024-12-07 16:10:06.183266000,5.74726611328125,0.2269599437713623,-1.233196258544922,-3.048184633255005
2024-12-07 16:10:06.193294600,5.757294677734375,1.4818382263183594,-0.7510547637939453,-2.619786262512207
2024-12-07 16:10:06.203323100,5.7673232421875,2.081679344177246,-0.606776237487793,-1.4739890098571775
2024-12-07 16:10:06.213352000,5.77735205078125,1.9785988330841064,-0.9761476516723632,0.1580955386161804
2024-12-07 16:10:06.223380500,5.78738037109375,1.5350099802017212,-1.4899530410766602,1.5247737169265747
2024-12-07 16:10:06.233409300,5.7974091796875,1.0545777082443235,-1.7891511917114258,2.327275037765503
2024-12-07 16:10:06.243437800,5.807437744140625,0.9102158546447754,-1.8454465866088867,2.87958025932312
2024-12-07 16:10:06.253466400,5.81746630859375,1.047810673713684,-1.3728322982788086,2.7804291248321533
2024-12-07 16:10:06.263495200,5.8274951171875,0.8756794929504395,-0.0284013748168945,2.471459150314331
2024-12-07 16:10:06.273524000,5.83752392578125,0.1806802749633789,1.5409631729125977,2.810683012008667
2024-12-07 16:10:06.283552500,5.847552490234375,-0.8792131543159485,2.498469829559326,3.109948873519897
2024-12-07 16:10:06.293581300,5.857581298828125,-2.081380844116211,2.9459943771362305,2.9669981002807617
2024-12-07 16:10:06.303609900,5.86760986328125,-2.985404253005981,2.8997344970703125,2.4573495388031006
2024-12-07 16:10:06.313638700,5.877638671875,-2.998624086380005,2.1841111183166504,1.919633865356445
2024-12-07 16:10:06.323667500,5.88766748046875,-2.741889715194702,0.8623924255371094,1.100472927093506
2024-12-07 16:10:06.333696000,5.897696044921875,-2.2533483505249023,-0.6580410003662109,-0.2621387839317322
2024-12-07 16:10:06.343724800,5.907724853515625,-2.206566333770752,-1.7213764190673828,-2.0093894004821777
2024-12-07 16:10:06.353753300,5.91775341796875,-2.4270737171173096,-2.1499834060668945,-3.194885730743408
2024-12-07 16:10:06.363782100,5.9277822265625,-2.801537036895752,-2.153378486633301,-4.164953708648682
2024-12-07 16:10:06.373811000,5.93781103515625,-2.3522889614105225,-1.8030052185058592,-5.142131328582764
2024-12-07 16:10:06.383839500,5.947839599609375,-1.2117301225662231,-1.415536880493164,-5.090362548828125
2024-12-07 16:10:06.393868300,5.957868408203125,-0.1913277506828308,-0.8116264343261719,-3.9862020015716553
2024-12-07 16:10:06.403896800,5.967896728515625,0.6004239320755005,-0.3565282821655273,-2.710393190383911
2024-12-07 16:10:06.413925600,5.977925537109375,1.2340296506881714,-0.0416936874389648,-1.0156718492507937
2024-12-07 16:10:06.423954400,5.987954345703125,1.7496747970581057,0.1846208572387695,0.6565331220626831
2024-12-07 16:10:06.433983000,5.99798291015625,2.011197805404663,0.3745918273925781,2.0394301414489746
2024-12-07 16:10:06.444011800,6.00801171875,2.0792782306671143,0.480412483215332,3.155933856964112
2024-12-07 16:10:06.454040300,6.018040283203125,1.8445155620574951,0.4356260299682617,3.911216735839844
2024-12-07 16:10:06.464069000,6.028069091796875,1.2242755889892578,0.5610742568969727,4.041313171386719
2024-12-07 16:10:06.474098000,6.038097900390625,0.451556384563446,0.7421693801879883,3.6549792289733887
2024-12-07 16:10:06.484126500,6.04812646484375,-0.1782890558242797,0.8311586380004883,2.9861226081848145
2024-12-07 16:10:06.494155300,6.0581552734375,-0.5779094696044922,0.7426137924194336,1.9594401121139529
2024-12-07 16:10:06.504183800,6.068183837890625,-0.9851799011230468,0.501194953918457,0.9206069111824036
2024-12-07 16:10:06.514212600,6.078212646484375,-1.1543231010437012,0.1744661331176757,0.0018892288208007
2024-12-07 16:10:06.524241400,6.088241455078125,-1.086066961288452,-0.0556764602661132,-0.8505449891090393
2024-12-07 16:10:06.534270000,6.09827001953125,-1.181628704071045,-0.2513971328735351,-1.3578450679779053
2024-12-07 16:10:06.544298800,6.108298828125,-1.2629876136779783,-0.2453994750976562,-1.8864203691482544
2024-12-07 16:10:06.554327300,6.118327392578125,-1.379892110824585,-0.0568790435791015,-2.141173839569092
2024-12-07 16:10:06.564356000,6.128356201171875,-1.2257535457611084,0.1416521072387695,-2.086288928985596
2024-12-07 16:10:06.574385000,6.138385009765625,-0.771054744720459,0.258946418762207,-1.8256523609161377
2024-12-07 16:10:06.584413400,6.148413330078125,-0.4108836352825165,0.2183895111083984,-1.200386643409729
2024-12-07 16:10:06.594442200,6.158442138671875,-0.1799713671207428,0.1203746795654296,-0.5731438398361206
2024-12-07 16:10:06.604470800,6.168470703125,-0.1264992654323578,0.0222148895263671,-0.1083825230598449
2024-12-07 16:10:06.614499600,6.17849951171875,-0.069637507200241,-0.0236244201660156,0.2748785614967346
2024-12-07 16:10:06.624528400,6.1885283203125,0.0240885615348815,-0.0076789855957031,0.5533654093742371
2024-12-07 16:10:06.634557000,6.198556884765625,0.0787179470062255,0.0890398025512695,0.7990771532058716
2024-12-07 16:10:06.644585700,6.208585693359375,0.0896122455596923,0.1947107315063476,0.9408921599388124
2024-12-07 16:10:06.654614300,6.2186142578125,0.047063797712326,0.2758827209472656,0.9315446019172668
2024-12-07 16:10:06.664643000,6.22864306640625,0.0464746952056884,0.2514858245849609,0.7488136291503906
2024-12-07 16:10:06.674671900,6.238671875,0.0118230283260345,0.2746410369873047,0.6366393566131592
2024-12-07 16:10:06.684700400,6.248700439453125,0.0203654468059539,0.3165626525878906,0.5133292078971863
2024-12-07 16:10:06.694729200,6.258729248046875,0.1588587164878845,0.3914613723754883,0.4590171575546264
2024-12-07 16:10:06.704757800,6.2687578125,0.4932287335395813,0.3893489837646484,0.3682332038879394
2024-12-07 16:10:06.714786600,6.27878662109375,0.7928304076194763,0.3581113815307617,0.2118011713027954
2024-12-07 16:10:06.724815400,6.2888154296875,0.899174690246582,0.3169202804565429,-0.1006292700767517
2024-12-07 16:10:06.734844000,6.298843994140625,0.7979201674461365,0.1560392379760742,-0.4860843122005462
2024-12-07 16:10:06.744872700,6.308872802734375,0.5380000472068787,0.0192108154296875,-0.8708305358886719
2024-12-07 16:10:06.754901200,6.3189013671875,0.1917675882577896,-0.0028047561645507,-1.0105409622192385
2024-12-07 16:10:06.764930000,6.328929931640625,0.0466587916016578,-0.1249666213989257,-1.6622567176818848
2024-12-07 16:10:06.774958800,6.338958740234375,-0.3065856099128723,0.0116701126098632,-1.7209434509277344
2024-12-07 16:10:06.784987400,6.3489873046875,-0.6254271268844604,0.162607192993164,-1.3433599472045898
2024-12-07 16:10:06.795016200,6.35901611328125,-0.6353254318237305,0.2511234283447265,-0.8810988068580627
2024-12-07 16:10:06.805044700,6.369044677734375,0.2855242490768432,0.1721048355102539,-0.4319802820682525
2024-12-07 16:10:06.815073500,6.379073486328125,0.6872786283493042,0.0070610046386718,-0.1275227665901184
2024-12-07 16:10:06.825102300,6.389102294921875,0.7749958634376526,-0.0097370147705078,-0.0541423559188842
2024-12-07 16:10:06.835131000,6.399130859375,0.6959586143493652,0.0546064376831054,-0.0580294728279113
2024-12-07 16:10:06.845159700,6.40915966796875,0.4661834239959717,0.1568984985351562,-0.0242641568183898
2024-12-07 16:10:06.855188500,6.4191884765625,0.3608931303024292,0.2587041854858398,0.0897644162178039
2024-12-07 16:10:06.865217000,6.429217041015625,0.5336631536483765,0.3790426254272461,0.2119005918502807
2024-12-07 16:10:06.875245800,6.439245849609375,0.3541808724403381,0.3743152618408203,0.4786354899406433
2024-12-07 16:10:06.885274400,6.4492744140625,0.6248205304145813,0.4167661666870117,0.4163092970848083
2024-12-07 16:10:06.895303200,6.45930322265625,0.8366491198539734,0.4060392379760742,0.2549591064453125
2024-12-07 16:10:06.905331700,6.469331787109375,0.893864095211029,0.2852048873901367,-0.0888747572898864
2024-12-07 16:10:06.915360300,6.4793603515625,0.8126555681228638,0.1118659973144531,-0.4465012550354004
2024-12-07 16:10:06.925389000,6.48938916015625,0.5868218541145325,-0.0751733779907226,-0.7958005666732788
2024-12-07 16:10:06.935417600,6.49941748046875,0.2719976305961609,-0.3428945541381836,-1.016932487487793
2024-12-07 16:10:06.945446100,6.509446044921875,0.1656372547149658,-0.6623849868774414,-1.2760653495788574
2024-12-07 16:10:06.955475000,6.519474853515625,0.115903615951538,-0.9806222915649414,-1.4674378633499146
2024-12-07 16:10:06.965503500,6.52950341796875,-0.1051843762397766,-1.3114032745361328,-1.6468102931976318
2024-12-07 16:10:06.975532300,6.5395322265625,-0.4210641980171203,-1.707209587097168,-1.8576254844665527
2024-12-07 16:10:06.985560800,6.549560791015625,-0.8571696281433105,-1.8525972366333008,-2.106494903564453
2024-12-07 16:10:06.995589400,6.55958935546875,-0.9493309259414672,-1.8635101318359373,-1.9833074808120728
2024-12-07 16:10:07.005618200,6.5696181640625,-0.4945565462112427,-1.9840383529663088,-1.7681262493133545
2024-12-07 16:10:07.015646700,6.579646728515625,-0.0340821743011474,-2.1331100463867188,-1.0108234882354736
2024-12-07 16:10:07.025675500,6.589675537109375,0.5631515979766846,-2.7406234741210938,-0.1177486181259155
2024-12-07 16:10:07.035704000,6.5997041015625,1.0801005363464355,-2.898212432861328,1.0242693424224854
2024-12-07 16:10:07.045732600,6.609732666015625,1.5933973789215088,-2.711847305297852,1.7601871490478516
2024-12-07 16:10:07.055761400,6.619761474609375,1.781902551651001,-2.3392114639282227,2.214706420898437
2024-12-07 16:10:07.065790000,6.6297900390625,1.5744572877883911,-1.985992431640625,2.365544319152832
2024-12-07 16:10:07.075818800,6.63981884765625,1.1569324731826782,-1.6476573944091797,2.36337685585022
2024-12-07 16:10:07.085847300,6.649847412109375,0.7904930114746094,-1.157313346862793,2.0377206802368164
2024-12-07 16:10:07.095875800,6.659875732421875,0.6335048079490662,-0.6491117477416992,1.4914965629577637
2024-12-07 16:10:07.105904600,6.669904541015625,0.5963338017463684,-0.151763916015625,0.9572592973709106
2024-12-07 16:10:07.115933200,6.67993310546875,0.718252420425415,0.2678432464599609,0.4844481945037842
2024-12-07 16:10:07.125962000,6.6899619140625,0.9216523170471193,0.6054229736328125,-0.0442819595336914
2024-12-07 16:10:07.135990500,6.699990478515625,1.0145020484924316,0.8422842025756836,-0.4793185591697693
2024-12-07 16:10:07.146019000,6.71001904296875,1.09707772731781,1.0314340591430664,-0.8812294006347656
2024-12-07 16:10:07.156048000,6.7200478515625,1.082866668701172,1.1636037826538086,-1.2155146598815918
2024-12-07 16:10:07.166076700,6.73007666015625,0.9673558473587036,1.2581281661987305,-1.4812839031219482
2024-12-07 16:10:07.176105200,6.740105224609375,0.8745920062065125,1.2913293838500977,-1.6203346252441406
2024-12-07 16:10:07.186134000,6.750134033203125,0.7993542551994324,1.3254156112670898,-1.599437236785889
2024-12-07 16:10:07.196162600,6.76016259765625,0.8123918771743774,1.3508119583129885,-1.4711921215057373
2024-12-07 16:10:07.206191400,6.77019140625,0.9029135704040528,1.271869659423828,-1.2074393033981323
2024-12-07 16:10:07.216220200,6.78022021484375,0.888464629650116,1.0838422775268557,-0.8947533369064331
2024-12-07 16:10:07.226248700,6.790248779296875,0.7504428625106812,0.8391208648681641,-0.4912195205688476
2024-12-07 16:10:07.236277500,6.800277587890625,0.6138242483139038,0.575592041015625,-0.1032979488372802
2024-12-07 16:10:07.246306300,6.810306396484375,0.4783855676651001,0.3453950881958008,0.2822751998901367
2024-12-07 16:10:07.256335000,6.820335205078125,0.3867394924163818,0.2530670166015625,0.6405820846557617
2024-12-07 16:10:07.266364000,6.830364013671875,0.3954769670963287,0.1784133911132812,0.8995530605316162
2024-12-07 16:10:07.276392400,6.840392333984375,0.3369655609130859,0.1065244674682617,1.1301921606063845
2024-12-07 16:10:07.286421200,6.850421142578125,0.3121210932731628,-0.0442314147949218,1.246683955192566
2024-12-07 16:10:07.296450000,6.860449951171875,0.3213715553283691,-0.2645044326782226,1.3929442167282104
2024-12-07 16:10:07.306478800,6.870478759765625,0.2797743082046509,-0.5211067199707031,1.5160592794418335
2024-12-07 16:10:07.316507600,6.880507568359375,0.5843530297279358,-0.7283611297607422,1.420250415802002
2024-12-07 16:10:07.326536400,6.890536376953125,0.5856078863143921,-0.7721538543701172,1.2154000997543335
2024-12-07 16:10:07.336565000,6.90056494140625,0.1933108568191528,-0.6719932556152344,0.8661446571350098
2024-12-07 16:10:07.346593800,6.91059375,-0.5034711360931396,-0.618433952331543,0.452860414981842
2024-12-07 16:10:07.356622600,6.92062255859375,-1.4578676223754885,-0.786442756652832,0.0753626823425293
2024-12-07 16:10:07.366651400,6.9306513671875,-1.6251097917556765,-1.1168317794799805,-0.0129768848419189
2024-12-07 16:10:07.376680200,6.94068017578125,-1.0559120178222656,-1.5140295028686523,0.0825196504592895
2024-12-07 16:10:07.386708700,6.950708740234375,-0.655402660369873,-1.8447837829589844,0.3336384296417236
2024-12-07 16:10:07.396737500,6.960737548828125,-0.6312447786331177,-1.9462995529174805,0.2514115571975708
2024-12-07 16:10:07.406766300,6.970766357421875,-0.9328939914703368,-1.8218317031860352,-0.3287987112998962
2024-12-07 16:10:07.416795100,6.980795166015625,-1.3073458671569824,-1.6993427276611328,-0.6184815168380737
2024-12-07 16:10:07.426824000,6.990823974609375,-1.2877830266952517,-1.6644411087036133,-0.8119957447052002
2024-12-07 16:10:07.436852500,7.0008525390625,-0.7909215688705444,-1.6177396774291992,-1.1023684740066528
2024-12-07 16:10:07.446881300,7.01088134765625,-0.0828239917755127,-1.5800304412841797,-1.3819648027420044
2024-12-07 16:10:07.456910000,7.02091015625,0.4542686939239502,-1.4237279891967771,-1.445726990699768
2024-12-07 16:10:07.466939000,7.03093896484375,0.6384561061859131,-1.0399932861328125,-1.102076768875122
2024-12-07 16:10:07.476967700,7.0409677734375,0.4618792533874511,-0.6207504272460938,-0.7115673422813416
2024-12-07 16:10:07.486996200,7.050996337890625,-0.0304224491119384,-0.1611642837524414,-0.520882248878479
2024-12-07 16:10:07.497025000,7.06102490234375,-0.8262898921966553,0.4157581329345703,-0.280396968126297
2024-12-07 16:10:07.507053800,7.0710537109375,-1.844697117805481,0.9631023406982422,0.0348467230796813
2024-12-07 16:10:07.517082400,7.081082275390625,-2.507900714874268,1.367873191833496,0.4291101098060608
2024-12-07 16:10:07.527111200,7.091111083984375,-2.7485475540161133,1.6167716979980469,0.9006091356277466
2024-12-07 16:10:07.537140000,7.101139892578125,-2.6786675453186035,1.7003979682922363,1.317546248435974
2024-12-07 16:10:07.547168500,7.11116845703125,-2.363755226135254,1.6948084831237793,1.5070669651031494
2024-12-07 16:10:07.557197300,7.121197265625,-1.9931256771087649,1.5851573944091797,1.494093894958496
2024-12-07 16:10:07.567225900,7.131225830078125,-1.7259564399719238,1.419050216674805,1.2848131656646729
2024-12-07 16:10:07.577254700,7.141254638671875,-1.699764847755432,1.1922388076782229,1.0630686283111572
2024-12-07 16:10:07.587283500,7.151283447265625,-1.564478874206543,0.9817056655883788,0.8931413888931274
2024-12-07 16:10:07.597312000,7.16131201171875,-1.4440345764160156,0.7829093933105469,1.0147902965545654
2024-12-07 16:10:07.607340800,7.1713408203125,-1.1846656799316406,0.6869535446166992,1.016013503074646
2024-12-07 16:10:07.617369300,7.181369384765625,-0.8502638339996338,0.5641422271728516,0.8665589094161987
2024-12-07 16:10:07.627398100,7.191398193359375,-0.6049692630767822,0.4807910919189453,1.1865354776382446
2024-12-07 16:10:07.637427000,7.201427001953125,-0.2965412139892578,0.4698762893676758,1.3847423791885376
2024-12-07 16:10:07.647455500,7.21145556640625,0.1089372634887695,0.56011962890625,1.1923856735229492
2024-12-07 16:10:07.657484300,7.221484375,0.0510613918304443,0.239715576171875,1.5633279085159302
2024-12-07 16:10:07.667512800,7.231512939453125,-0.3464710712432861,-0.1738348007202148,1.7347126007080078
2024-12-07 16:10:07.677541600,7.241541748046875,-0.1716711521148681,-0.0788450241088867,0.8761347532272339
2024-12-07 16:10:07.687570400,7.2515703125,-0.1162524223327636,-0.060307502746582,0.753174901008606
2024-12-07 16:10:07.697599000,7.261598876953125,0.0803861618041992,0.1150035858154296,0.5435739755630493
2024-12-07 16:10:07.707627800,7.271627685546875,0.1441776752471923,0.4317550659179687,0.4601776003837585
2024-12-07 16:10:07.717656300,7.28165625,-0.0004506111145019,0.7894763946533203,0.6439434289932251
2024-12-07 16:10:07.727685000,7.29168505859375,-0.0738971233367919,1.231867790222168,0.7255750298500061
2024-12-07 16:10:07.737714000,7.3017138671875,-0.2695446014404297,1.626044750213623,0.7255078554153442
2024-12-07 16:10:07.747742500,7.311742431640625,-0.3974282741546631,1.8493285179138184,0.7552887201309204
2024-12-07 16:10:07.757771300,7.321771240234375,-0.4510173797607422,1.9077143669128416,0.7106372117996216
2024-12-07 16:10:07.767799800,7.3317998046875,-0.3157548904418945,1.825512409210205,0.6581249237060547
2024-12-07 16:10:07.777828600,7.34182861328125,0.0873944759368896,1.6118617057800293,0.6292921900749207
2024-12-07 16:10:07.787857400,7.351857421875,0.5546197891235352,1.34716796875,0.5746243596076965
2024-12-07 16:10:07.797886000,7.361885986328125,1.0788865089416504,1.0067291259765625,0.4598715901374817
2024-12-07 16:10:07.807914800,7.371914794921875,1.6382713317871094,0.6182270050048828,0.2134263813495636
2024-12-07 16:10:07.817943300,7.381943359375,2.225616693496704,0.2094974517822265,-0.224729984998703
2024-12-07 16:10:07.827972000,7.39197216796875,2.686500310897827,-0.1865377426147461,-0.756088376045227
2024-12-07 16:10:07.838001000,7.4020009765625,2.577479124069214,-0.4119138717651367,-1.6143430471420288
2024-12-07 16:10:07.848029400,7.412029541015625,1.8363401889801023,-0.3266668319702148,-2.864759683609009
2024-12-07 16:10:07.858058200,7.422058349609375,0.8272647857666016,-0.0533227920532226,-4.042789459228516
2024-12-07 16:10:07.868086800,7.432086669921875,0.070061445236206,0.3328046798706054,-4.342927932739258
2024-12-07 16:10:07.878115600,7.442115478515625,-0.3038232326507568,0.6967382431030273,-4.220027923583984
2024-12-07 16:10:07.888144400,7.452144287109375,-0.5132427215576172,0.7934484481811523,-3.8344788551330566
2024-12-07 16:10:07.898173000,7.4621728515625,-0.5157537460327148,0.4703035354614258,-2.5726888179779053
2024-12-07 16:10:07.908201700,7.47220166015625,0.0280084609985351,0.2294998168945312,-1.1264410018920898
2024-12-07 16:10:07.918230300,7.482230224609375,0.8729181289672852,0.2089700698852539,-0.0223037749528884
2024-12-07 16:10:07.928259000,7.492259033203125,1.879328727722168,0.2074298858642578,0.772345244884491
2024-12-07 16:10:07.938287900,7.502287841796875,2.964830160140991,0.2389974594116211,1.5343297719955444
2024-12-07 16:10:07.948316400,7.51231640625,3.473869562149048,0.475341796875,1.5765705108642578
2024-12-07 16:10:07.958345200,7.52234521484375,3.1031317710876465,0.8543510437011719,1.3922475576400757
2024-12-07 16:10:07.968373800,7.532373779296875,2.278781175613404,1.3675127029418943,1.4197719097137451
2024-12-07 16:10:07.978402600,7.542402587890625,1.3153202533721924,1.4709577560424805,1.748744249343872
2024-12-07 16:10:07.988431400,7.552431396484375,0.4770951271057129,1.1038703918457031,1.956923246383667
2024-12-07 16:10:07.998460000,7.5624599609375,-0.3537976741790771,0.3919858932495117,2.218435287475586
2024-12-07 16:10:08.008488700,7.57248876953125,-1.050793170928955,-0.7493247985839844,2.945951461791992
2024-12-07 16:10:08.018517200,7.582517333984375,-1.3265808820724487,-2.2380151748657227,4.041737079620361
2024-12-07 16:10:08.028546000,7.592546142578125,-1.1508591175079346,-3.81193733215332,4.778682231903076
2024-12-07 16:10:08.038574800,7.602574951171875,-1.148668885231018,-5.090193748474121,4.985440731048584
2024-12-07 16:10:08.048603400,7.612603271484375,-0.4938957691192627,-5.950907707214356,4.137166976928711
2024-12-07 16:10:08.058632200,7.622632080078125,1.3768281936645508,-6.388731002807617,2.613170623779297
2024-12-07 16:10:08.068660700,7.63266064453125,4.307782173156738,-6.228218078613281,1.0777864456176758
2024-12-07 16:10:08.078689500,7.642689453125,6.143784523010254,-5.282890319824219,-1.8133752346038816
2024-12-07 16:10:08.088718300,7.65271826171875,4.466444969177246,-4.070870399475098,-4.016320705413818
2024-12-07 16:10:08.098747000,7.662746826171875,1.8843626976013184,-2.3942413330078125,-3.925661087036133
2024-12-07 16:10:08.108775700,7.672775634765625,0.5702228546142578,0.1171636581420898,-2.636324644088745
2024-12-07 16:10:08.118804200,7.68280419921875,-0.3019814491271972,2.78408432006836,-1.2777563333511353
2024-12-07 16:10:08.128833000,7.6928330078125,-1.205164909362793,4.76583194732666,-0.2700625658035278
2024-12-07 16:10:08.138861800,7.70286181640625,-1.9318602085113523,5.6136627197265625,0.319071352481842
2024-12-07 16:10:08.148890400,7.712890380859375,-3.181097507476806,5.606525421142578,0.6285794973373413
2024-12-07 16:10:08.158919200,7.722919189453125,-5.054818153381348,5.1444830894470215,0.7171383500099182
2024-12-07 16:10:08.168947700,7.73294775390625,-6.435705661773682,4.054043292999268,0.6065167188644409
2024-12-07 16:10:08.178976500,7.7429765625,-6.386682987213135,2.284492015838623,0.649490237236023
2024-12-07 16:10:08.189005300,7.75300537109375,-4.987985610961914,0.2977428436279297,0.7019834518432617
2024-12-07 16:10:08.199033900,7.763033935546875,-3.573089838027954,-1.2125062942504885,0.8077031373977661
2024-12-07 16:10:08.209062700,7.773062744140625,-2.3411519527435303,-1.972177505493164,0.3896286487579345
2024-12-07 16:10:08.219091200,7.78309130859375,-1.052446961402893,-2.2738733291625977,-0.3485686182975769
2024-12-07 16:10:08.229120000,7.7931201171875,0.4755861759185791,-2.3957319259643555,-0.9814725518226624
2024-12-07 16:10:08.239148800,7.803148681640625,1.8013486862182615,-2.5488109588623047,-1.5242940187454224
2024-12-07 16:10:08.249177300,7.81317724609375,2.58243465423584,-2.384143829345703,-2.0345773696899414
2024-12-07 16:10:08.259206100,7.8232060546875,2.667653083801269,-1.8542747497558592,-2.1955671310424805
2024-12-07 16:10:08.269234700,7.833234619140625,1.894703149795532,-1.0170764923095703,-2.048651933670044
2024-12-07 16:10:08.279263500,7.843263427734375,0.3853421211242676,-0.1260194778442382,-1.4404609203338623
2024-12-07 16:10:08.289292300,7.853292236328125,-1.3624002933502195,0.7242012023925781,-0.5935999155044556
2024-12-07 16:10:08.299320800,7.86332080078125,-2.9204134941101074,1.4349584579467771,0.4017805457115173
2024-12-07 16:10:08.309349600,7.873349609375,-3.728146553039551,1.802045822143555,1.232571363449097
2024-12-07 16:10:08.319378200,7.883378173828125,-3.731055736541748,1.8257789611816408,1.9087661504745483
2024-12-07 16:10:08.329407000,7.893406982421875,-3.347215175628662,1.5487146377563477,2.1842169761657715
2024-12-07 16:10:08.339435800,7.903435791015625,-2.934514045715332,1.0423345565795898,2.215022563934326
2024-12-07 16:10:08.349464300,7.91346435546875,-2.489308834075928,0.4550342559814453,1.6395704746246338
2024-12-07 16:10:08.359493000,7.9234931640625,-2.1167330741882324,-0.1744384765625,1.0098350048065186
2024-12-07 16:10:08.369521700,7.933521728515625,-1.7644425630569458,-0.6404056549072266,0.5314628481864929
2024-12-07 16:10:08.379550500,7.943550537109375,-1.4507474899291992,-0.8041210174560547,-0.4480646252632141
2024-12-07 16:10:08.389579300,7.953579345703125,-0.9565351009368896,-0.8232593536376953,-1.4457626342773438
2024-12-07 16:10:08.399607800,7.96360791015625,-0.3288689851760864,-0.7696123123168945,-2.0532541275024414
2024-12-07 16:10:08.409636600,7.97363671875,0.2426409721374511,-0.5480184555053711,-2.160123825073242
2024-12-07 16:10:08.419665400,7.98366552734375,0.7593721151351929,-0.3122234344482422,-1.5819549560546875
2024-12-07 16:10:08.429694000,7.99369384765625,1.0768914222717283,-0.1536493301391601,-0.8223753571510315
2024-12-07 16:10:08.439722800,8.00372265625,1.2969093322753906,-0.1108274459838867,-0.0989163517951965
2024-12-07 16:10:08.449751300,8.013751220703124,1.5045342445373535,-0.1266851425170898,0.4831352829933166
2024-12-07 16:10:08.459780000,8.023780029296875,1.5496232509613037,-0.1156015396118164,0.8578653335571289
2024-12-07 16:10:08.469809000,8.033808837890625,1.3130152225494385,-0.0681915283203125,0.8610094785690308
2024-12-07 16:10:08.479837400,8.04383740234375,0.9832282066345216,-0.0320281982421875,0.4698065519332886
2024-12-07 16:10:08.489866200,8.0538662109375,0.500808596611023,0.0841188430786132,-0.2271981835365295
2024-12-07 16:10:08.499894800,8.063894775390626,0.0083386898040771,0.2090311050415039,-1.0309555530548096
2024-12-07 16:10:08.509923600,8.073923583984374,-0.3584293723106384,0.3335771560668945,-1.7714238166809082
2024-12-07 16:10:08.519952400,8.083952392578125,-0.7557340860366821,0.4390726089477539,-2.2358298301696777
2024-12-07 16:10:08.529981000,8.09398095703125,-0.9961013197898864,0.4062013626098633,-2.444634914398194
2024-12-07 16:10:08.540009700,8.104009765625,-1.2555004358291626,0.354893684387207,-2.473978042602539
2024-12-07 16:10:08.550038300,8.114038330078126,-1.5975379943847656,0.2425031661987304,-2.123488664627075
2024-12-07 16:10:08.560067000,8.124067138671874,-1.5809333324432373,0.1457357406616211,-1.66569721698761
2024-12-07 16:10:08.570095900,8.134095947265624,-1.2935709953308103,0.1883602142333984,-0.9978460669517516
2024-12-07 16:10:08.580124400,8.14412451171875,-0.7441255450248718,0.1593122482299804,-0.3518467247486114
2024-12-07 16:10:08.590153200,8.1541533203125,-0.2703230381011963,0.2303075790405273,0.2562403082847595
2024-12-07 16:10:08.600181800,8.164181640625,0.112425148487091,0.295724868774414,0.8195354342460632
2024-12-07 16:10:08.610210600,8.17421044921875,0.3876100778579712,0.3362207412719726,1.146086812019348
2024-12-07 16:10:08.620239400,8.1842392578125,0.5060845613479614,0.3613519668579101,1.1795074939727783
2024-12-07 16:10:08.630268000,8.194267822265624,0.3594343066215515,0.3569793701171875,1.0407445430755615
2024-12-07 16:10:08.640296700,8.204296630859375,0.0981501936912536,0.3519620895385742,0.8500187397003174
2024-12-07 16:10:08.650325200,8.2143251953125,-0.1570812463760376,0.3177814483642578,0.599254846572876
2024-12-07 16:10:08.660354000,8.22435400390625,-0.2577762603759765,0.3595743179321289,0.4414244294166565
2024-12-07 16:10:08.670382800,8.2343828125,-0.0778569281101226,0.2145862579345703,-0.0459311604499816
2024-12-07 16:10:08.680411400,8.244411376953124,-0.0637250542640686,0.0648317337036132,-0.2021204233169555
2024-12-07 16:10:08.690440200,8.254440185546875,-0.0899117141962051,-0.1278705596923828,-0.377135694026947
2024-12-07 16:10:08.700468700,8.26446875,0.0653408467769622,-0.32025146484375,-0.4792376160621643
2024-12-07 16:10:08.710497500,8.27449755859375,0.4260922074317932,-0.5026702880859375,-0.3121658563613891
2024-12-07 16:10:08.720526300,8.2845263671875,0.8896177411079407,-0.565312385559082,-0.1631295084953308
2024-12-07 16:10:08.730555000,8.294554931640626,1.24831223487854,-0.3173475265502929,-0.2846185564994812
2024-12-07 16:10:08.740583700,8.304583740234374,1.2156540155410769,0.0304412841796875,-0.5603843331336975
2024-12-07 16:10:08.750612200,8.3146123046875,0.8513885736465454,0.4110736846923828,-0.8556307554244995
2024-12-07 16:10:08.760641000,8.32464111328125,0.5125942826271057,0.6286458969116211,-0.9222421050071716
2024-12-07 16:10:08.770669800,8.334669921875,0.3487058877944946,0.726313591003418,-0.8584083318710327
2024-12-07 16:10:08.780698400,8.344698486328125,0.3067659139633178,0.7759075164794922,-0.8945380449295044
2024-12-07 16:10:08.790727200,8.35472705078125,0.291477233171463,0.8156557083129883,-0.8782120943069458
2024-12-07 16:10:08.800755700,8.364755615234374,0.3750353455543518,0.7356243133544922,-0.8435317873954773
2024-12-07 16:10:08.810784500,8.374784423828125,0.7383067607879639,0.5789413452148438,-0.7915632724761963
2024-12-07 16:10:08.820813300,8.384813232421875,1.118316888809204,0.4458541870117187,-0.7478649020195007
2024-12-07 16:10:08.830841900,8.394841796875,1.5682991743087769,0.269195556640625,-0.7376453876495361
2024-12-07 16:10:08.840870700,8.40487060546875,2.21399188041687,0.1396083831787109,-0.6288377046585083
2024-12-07 16:10:08.850899200,8.414899169921876,2.3390915393829346,-0.0911197662353515,-1.0052303075790403
2024-12-07 16:10:08.860928000,8.424927978515624,1.9930353164672847,-0.1356534957885742,-1.474694013595581
2024-12-07 16:10:08.870956800,8.434956787109375,1.7232885360717771,-0.223388671875,-2.0626330375671387
2024-12-07 16:10:08.880985300,8.4449853515625,1.1848466396331787,-0.2726917266845703,-2.676065921783448
2024-12-07 16:10:08.891014100,8.45501416015625,0.5420132279396057,-0.4219045639038086,-3.064490795135498
2024-12-07 16:10:08.901042700,8.465042724609376,0.0411146283149719,-0.7421674728393555,-3.292884111404419
2024-12-07 16:10:08.911071500,8.475071533203124,-0.3187401890754699,-1.170392990112305,-3.45837950706482
2024-12-07 16:10:08.921100300,8.485100341796874,-0.6398339867591858,-1.6097698211669922,-3.4116334915161133
2024-12-07 16:10:08.931128800,8.49512890625,-0.7214738130569458,-1.7780389785766602,-3.044874668121338
2024-12-07 16:10:08.941157600,8.50515771484375,-0.9316190481185912,-1.3949718475341797,-2.027252197265625
2024-12-07 16:10:08.951186200,8.515186279296875,-0.3004619479179382,-1.2605113983154297,-1.3300453424453735
2024-12-07 16:10:08.961215000,8.525215087890626,0.3242285847663879,-1.7663822174072266,0.0676182508468627
2024-12-07 16:10:08.971243500,8.535243408203126,1.0116565227508545,-3.0978899002075195,1.303470492362976
2024-12-07 16:10:08.981272000,8.54527197265625,1.4378167390823364,-4.044571876525879,2.124337673187256
2024-12-07 16:10:08.991300900,8.55530078125,1.9430444240570068,-4.42557430267334,2.681183338165283
2024-12-07 16:10:09.001329400,8.565329345703125,2.177212238311768,-4.212739944458008,2.8279762268066406
2024-12-07 16:10:09.011358200,8.575358154296875,2.0238637924194336,-3.449962615966797,2.7741405963897705
2024-12-07 16:10:09.021386800,8.58538671875,1.119728446006775,-2.516162872314453,2.9336483478546143
2024-12-07 16:10:09.031415300,8.595415283203126,0.0255000591278076,-1.7661457061767578,3.144883155822754
2024-12-07 16:10:09.041444000,8.605444091796874,-0.1668264865875244,-1.0855159759521484,3.159687042236328
2024-12-07 16:10:09.051472600,8.61547265625,0.4492089748382568,-0.5122909545898438,2.831096172332764
2024-12-07 16:10:09.061501400,8.62550146484375,0.7356610298156738,-0.0125055313110351,2.375990867614746
2024-12-07 16:10:09.071530000,8.635530029296875,0.8684884309768677,0.3614501953125,1.7380383014678955
2024-12-07 16:10:09.081558500,8.64555859375,1.052745699882507,0.6862058639526367,1.114422082901001
2024-12-07 16:10:09.091587300,8.65558740234375,1.2734367847442627,1.1337337493896484,0.40618896484375
2024-12-07 16:10:09.101615900,8.665615966796874,1.2722022533416748,1.4408845901489258,-0.0984276533126831
2024-12-07 16:10:09.111644700,8.675644775390625,1.1216773986816406,1.708043098449707,-0.5137665271759033
2024-12-07 16:10:09.121673200,8.685673095703125,0.8561550378799438,1.9017333984375,-0.7284370064735413
2024-12-07 16:10:09.131701800,8.69570166015625,0.5620453953742981,1.9741325378417969,-0.7180163264274597
2024-12-07 16:10:09.141730600,8.70573046875,0.2824662327766418,1.925179481506348,-0.4253618717193603
2024-12-07 16:10:09.151759000,8.715759033203126,-0.0058214664459228,1.788060188293457,-0.0669971704483032
2024-12-07 16:10:09.161788000,8.725787841796874,-0.1535618901252746,1.600799560546875,0.2755441665649414
2024-12-07 16:10:09.171816400,8.73581640625,-0.3894646763801574,1.286879539489746,0.5506997108459473
2024-12-07 16:10:09.181845000,8.745844970703125,-0.640547513961792,0.8226699829101562,0.736284613609314
2024-12-07 16:10:09.191873800,8.755873779296875,-0.6623896956443787,0.3851919174194336,0.8529666662216187
2024-12-07 16:10:09.201902300,8.76590234375,-0.8832871317863464,0.0553579330444335,1.0812928676605225
2024-12-07 16:10:09.211931100,8.77593115234375,-1.438781976699829,-0.2240419387817382,1.1540731191635132
2024-12-07 16:10:09.221959700,8.785959716796874,-1.7904244661331177,-0.6571283340454102,0.7405390739440918
2024-12-07 16:10:09.231988200,8.79598828125,-1.7449599504470823,-1.1755008697509766,0.4005442857742309
2024-12-07 16:10:09.242017000,8.80601708984375,-1.6720666885375977,-1.6783571243286133,0.4904501438140869
2024-12-07 16:10:09.252045600,8.816045654296875,-1.7720623016357422,-1.977869987487793,0.333858847618103
2024-12-07 16:10:09.262074000,8.82607421875,-1.544266939163208,-2.130446434020996,0.3355801105499267
2024-12-07 16:10:09.272103000,8.83610302734375,-1.168837547302246,-1.940567970275879,0.0504399538040161
2024-12-07 16:10:09.282131500,8.84613134765625,-0.8279314041137695,-1.6717748641967771,-0.0800288915634155
2024-12-07 16:10:09.292160300,8.85616015625,-0.403388500213623,-1.3203620910644531,-0.1815985441207885
2024-12-07 16:10:09.302188800,8.866188720703125,-0.4377648830413818,-0.8963794708251953,-0.2662429809570312
2024-12-07 16:10:09.312217300,8.87621728515625,-0.6574060916900635,-0.46185302734375,-0.4331851601600647
2024-12-07 16:10:09.322246100,8.88624609375,-1.0312738418579102,-0.092717170715332,-0.4486426115036011
2024-12-07 16:10:09.332274700,8.896274658203126,-1.234264254570007,0.2970857620239258,-0.3901185989379883
2024-12-07 16:10:09.342303500,8.906303466796874,-1.3345417976379397,0.6974592208862305,-0.0402802228927612
2024-12-07 16:10:09.352332000,8.91633203125,-1.4569631814956665,1.0552892684936523,0.3950849771499634
2024-12-07 16:10:09.362360600,8.926360595703125,-1.6255097389221191,1.2463016510009766,0.7557979822158813
2024-12-07 16:10:09.372389400,8.936389404296875,-1.787375807762146,1.2089433670043943,1.0802428722381592
2024-12-07 16:10:09.382418000,8.94641796875,-1.7517324686050415,1.1971416473388672,1.2087018489837646
2024-12-07 16:10:09.392446700,8.95644677734375,-1.5725852251052856,1.0721426010131836,1.6543629169464111
2024-12-07 16:10:09.402475300,8.966475341796874,-1.397350788116455,0.8917522430419922,1.6653337478637695
2024-12-07 16:10:09.412503800,8.97650390625,-1.0338143110275269,0.847416877746582,1.5041654109954834
2024-12-07 16:10:09.422532600,8.98653271484375,-0.8982603549957275,0.7761392593383789,1.2066094875335691
2024-12-07 16:10:09.432561200,8.99656103515625,-1.0434712171554563,0.7637462615966797,0.8402035236358643
2024-12-07 16:10:09.442590000,9.00658984375,-1.1260521411895752,0.7334117889404297,0.4219755530357361
2024-12-07 16:10:09.452618500,9.016618408203126,-1.2344423532485962,0.6272554397583008,0.1222536861896514
2024-12-07 16:10:09.462647000,9.02664697265625,-1.144856095314026,0.4403600692749023,0.2886528372764587
2024-12-07 16:10:09.472675800,9.03667578125,-0.5797455310821533,0.1908636093139648,0.4360496699810028
2024-12-07 16:10:09.482704400,9.046704345703125,0.2821497917175293,-0.0701093673706054,0.4977073073387146
2024-12-07 16:10:09.492733200,9.056733154296875,0.6204080581665039,-0.7015790939331055,1.2301409244537354
2024-12-07 16:10:09.502761700,9.06676171875,1.2152130603790283,-0.8427095413208008,0.933683454990387
2024-12-07 16:10:09.512790300,9.076790283203126,1.52590012550354,-0.8959550857543945,1.0641697645187378
2024-12-07 16:10:09.522819000,9.086819091796874,1.9115028381347656,-0.751643180847168,0.9212245345115662
2024-12-07 16:10:09.532847600,9.09684765625,2.0613906383514404,-0.7064275741577148,0.8473442792892456
2024-12-07 16:10:09.542876400,9.10687646484375,1.979052782058716,-0.5347719192504883,1.1492195129394531
2024-12-07 16:10:09.552905000,9.116905029296875,1.9008796215057373,-0.2460393905639648,1.036280393600464
2024-12-07 16:10:09.562933500,9.12693359375,1.6118268966674805,-0.0364179611206054,1.0102840662002563
2024-12-07 16:10:09.572962300,9.13696240234375,1.2456536293029783,0.1466245651245117,0.978587806224823
2024-12-07 16:10:09.582990800,9.146990966796874,0.6927022933959961,0.2982645034790039,0.7975350618362427
2024-12-07 16:10:09.593019600,9.15701953125,0.0603806972503662,0.3999204635620117,0.5837631821632385
2024-12-07 16:10:09.603048200,9.167048095703125,-0.5192553997039795,0.4811992645263672,0.3874860405921936
2024-12-07 16:10:09.613076700,9.17707666015625,-1.018874168395996,0.5242071151733398,0.2731731832027435
2024-12-07 16:10:09.623105500,9.18710546875,-1.3390231132507324,0.5782861709594727,0.0858910530805587
2024-12-07 16:10:09.633134000,9.197134033203126,-1.391120433807373,0.6446428298950195,-0.0950676947832107
2024-12-07 16:10:09.643163000,9.207162841796874,-1.265770435333252,0.7237348556518555,-0.3153612017631531
2024-12-07 16:10:09.653191400,9.21719140625,-1.107188701629639,0.7868728637695312,-0.5117709636688232
2024-12-07 16:10:09.663220000,9.227219970703125,-0.9459967613220216,0.8287639617919922,-0.673988401889801
2024-12-07 16:10:09.673248800,9.237248779296875,-0.7981946468353271,0.8441553115844727,-0.7253293991088867
2024-12-07 16:10:09.683277300,9.24727734375,-0.6598081588745117,0.8853855133056641,-0.6858036518096924
2024-12-07 16:10:09.693306000,9.25730615234375,-0.4692203998565674,0.8996782302856445,-0.6329927444458008
2024-12-07 16:10:09.703334700,9.267334716796874,-0.2130985260009765,0.9393129348754884,-0.51090008020401
2024-12-07 16:10:09.713363200,9.27736328125,0.0731093883514404,0.9796342849731444,-0.3022587895393371
2024-12-07 16:10:09.723392000,9.28739208984375,0.1966223716735839,1.04388427734375,-0.1904493868350982
2024-12-07 16:10:09.733420500,9.297420654296875,0.1292896270751953,1.0317325592041016,-0.0180014967918396
2024-12-07 16:10:09.743449300,9.307449462890624,0.1299049854278564,0.981715202331543,0.1373102068901062
2024-12-07 16:10:09.753478000,9.317477783203126,0.1167058944702148,0.9033288955688475,0.0844517946243286
2024-12-07 16:10:09.763506400,9.32750634765625,-0.0103719234466552,0.782404899597168,-0.0983277708292007
2024-12-07 16:10:09.773535200,9.33753515625,-0.1402020454406738,0.6815309524536133,-0.2277182787656784
2024-12-07 16:10:09.783563800,9.347563720703125,-0.2480244636535644,0.6487560272216797,-0.255327820777893
2024-12-07 16:10:09.793592600,9.357592529296875,-0.3901543617248535,0.6747589111328125,-0.1995933055877685
2024-12-07 16:10:09.803621000,9.36762109375,-0.4933094978332519,0.7408428192138672,0.1060003340244293
2024-12-07 16:10:09.813649700,9.377649658203126,-0.5802977085113525,0.8425130844116211,0.3535871505737304
2024-12-07 16:10:09.823678500,9.387678466796874,-0.5932331085205078,0.8795270919799805,0.5325131416320801
2024-12-07 16:10:09.833707000,9.39770703125,-0.5185468196868896,0.875640869140625,0.56611168384552
2024-12-07 16:10:09.843735800,9.40773583984375,-0.4384169578552246,0.7828359603881836,0.4737898111343384
2024-12-07 16:10:09.853764400,9.417764404296875,-0.2721166610717773,0.6058683395385742,0.3228870332241058
2024-12-07 16:10:09.863793000,9.42779296875,-0.0060734748840332,0.3303442001342773,0.232848972082138
2024-12-07 16:10:09.873821700,9.43782177734375,0.3488819599151611,0.0324907302856445,0.1074095964431762
2024-12-07 16:10:09.883850200,9.447850341796874,0.7338879108428955,-0.1735029220581054,-0.0146584808826446
2024-12-07 16:10:09.893879000,9.457879150390625,1.009460210800171,-0.2260904312133789,-0.0229438245296478
2024-12-07 16:10:09.903907600,9.467907470703125,1.218520164489746,-0.1209983825683593,0.0591458678245544
2024-12-07 16:10:09.913936100,9.47793603515625,1.2517361640930176,0.0268430709838867,0.2267708778381347
2024-12-07 16:10:09.923965000,9.48796484375,1.1441779136657717,0.0409097671508789,0.450026273727417
2024-12-07 16:10:09.933993500,9.497993408203126,1.020885705947876,-0.1213798522949218,0.6947247982025146
2024-12-07 16:10:09.944022300,9.508022216796874,0.9864516258239746,-0.3881959915161133,0.8406350612640381
2024-12-07 16:10:09.954050800,9.51805078125,1.0687947273254397,-0.6448154449462891,0.7844071388244629
2024-12-07 16:10:09.964079400,9.528079345703125,1.2954614162445068,-0.9487743377685548,0.7582928538322449
2024-12-07 16:10:09.974108200,9.538108154296877,1.5502195358276367,-1.4340362548828125,0.8624556660652161
2024-12-07 16:10:09.984136700,9.54813671875,1.6613225936889648,-2.143102645874023,0.6080973148345947
2024-12-07 16:10:09.994165200,9.558165283203126,1.8098595142364504,-2.788975715637207,-0.050451785326004
2024-12-07 16:10:10.004194000,9.568194091796874,2.00971794128418,-3.167465209960937,-0.7687339782714844
2024-12-07 16:10:10.014222600,9.57822265625,2.400351285934448,-3.199790000915528,-1.5771872997283936
2024-12-07 16:10:10.024251100,9.588251220703125,2.8199150562286377,-3.0365524291992188,-2.239418029785156
2024-12-07 16:10:10.034279700,9.59827978515625,3.0790281295776367,-2.927119255065918,-2.4488916397094727
2024-12-07 16:10:10.044308200,9.60830810546875,3.078972339630127,-2.994338035583496,-1.9764320850372312
2024-12-07 16:10:10.054336800,9.618336669921876,3.0286569595336914,-2.8254852294921875,-1.219955563545227
2024-12-07 16:10:10.064365600,9.628365478515626,3.0286214351654053,-2.2195816040039062,-0.6276072263717651
2024-12-07 16:10:10.074394000,9.63839404296875,2.794891357421875,-1.1485624313354492,0.0166621804237365
2024-12-07 16:10:10.084422700,9.648422607421876,2.0427937507629395,0.3102483749389648,0.4858476221561432
2024-12-07 16:10:10.094451200,9.658451171875,0.6244268417358398,1.731719970703125,0.8135206699371338
2024-12-07 16:10:10.104479700,9.668479736328123,-1.2438653707504272,2.745891571044922,1.2815520763397217
2024-12-07 16:10:10.114508500,9.678508544921876,-2.7829086780548096,3.3419880867004395,1.7173247337341309
2024-12-07 16:10:10.124537000,9.688537109375,-3.673703193664551,3.5127573013305664,2.1289634704589844
2024-12-07 16:10:10.134565600,9.698565673828124,-3.789544582366944,3.220664501190185,2.403441429138184
2024-12-07 16:10:10.144594200,9.70859423828125,-3.3099184036254883,2.723051071166992,2.1036832332611084
2024-12-07 16:10:10.154622700,9.718622802734377,-2.7229228019714355,2.124200344085694,1.9753658771514893
2024-12-07 16:10:10.164651500,9.728651611328123,-1.931928038597107,1.404047966003418,2.0406956672668457
2024-12-07 16:10:10.174680000,9.73868017578125,-0.9423274993896484,0.6903867721557617,1.653861165046692
2024-12-07 16:10:10.184708600,9.74870849609375,-0.0365545749664306,0.0011167526245117,1.0237340927124023
2024-12-07 16:10:10.194737200,9.758737060546874,0.5069055557250977,-0.5398950576782227,0.2826897501945495
2024-12-07 16:10:10.204765700,9.768765625,0.7263808250427246,-0.9519767761230468,-0.5213437676429749
2024-12-07 16:10:10.214794500,9.77879443359375,0.7693064212799072,-1.2352380752563477,-1.0817211866378784
2024-12-07 16:10:10.224823000,9.788822998046877,0.4116506576538086,-1.241471290588379,-1.5818660259246826
2024-12-07 16:10:10.234851600,9.7988515625,-0.0561945438385009,-0.9418497085571288,-1.8242844343185425
2024-12-07 16:10:10.244880100,9.808880126953126,-0.4078785181045532,-0.5183925628662109,-1.5440876483917236
2024-12-07 16:10:10.254908700,9.81890869140625,-1.0380698442459106,-0.0572853088378906,-0.8896132111549377
2024-12-07 16:10:10.264937500,9.8289375,-1.5942745208740234,0.4702301025390625,-0.2187452316284179
2024-12-07 16:10:10.274966000,9.838966064453125,-1.7858657836914062,0.8103914260864258,0.3842691779136657
2024-12-07 16:10:10.284994600,9.84899462890625,-1.7980051040649414,0.9725236892700196,0.683258593082428
2024-12-07 16:10:10.295023000,9.859023193359375,-1.6634914875030518,0.9134321212768556,0.7876508831977844
2024-12-07 16:10:10.305051600,9.8690517578125,-1.3707919120788574,0.657139778137207,0.7774387001991272
2024-12-07 16:10:10.315080400,9.87908056640625,-0.8979605436325073,0.3042793273925781,0.5041107535362244
2024-12-07 16:10:10.325109000,9.88910888671875,-0.5388354659080505,0.0079708099365234,0.1518188714981079
2024-12-07 16:10:10.335137500,9.899137451171876,-0.1209248900413513,-0.3366413116455078,-0.3245566487312317
2024-12-07 16:10:10.345166000,9.909166015625,0.103249192237854,-0.5761623382568359,-0.6403124332427979
2024-12-07 16:10:10.355194600,9.919194580078123,0.2794342637062073,-0.6722126007080078,-0.8851985335350037
2024-12-07 16:10:10.365223400,9.929223388671875,0.4316250085830688,-0.5485515594482422,-0.8624494671821594
2024-12-07 16:10:10.375252000,9.939251953125,0.4597809910774231,-0.5639429092407227,-1.1084420680999756
2024-12-07 16:10:10.385280500,9.949280517578124,0.4267550110816955,-0.460026741027832,-1.216616153717041
2024-12-07 16:10:10.395309000,9.95930908203125,0.1884581446647644,-0.4568891525268554,-1.1923928260803225
2024-12-07 16:10:10.405337600,9.969337646484377,-0.2943809628486633,-0.3729019165039062,-0.9791321754455566
2024-12-07 16:10:10.415366100,9.9793662109375,-1.0932453870773315,-0.1840152740478515,-1.1316180229187012
2024-12-07 16:10:10.425395000,9.98939501953125,-1.6561185121536257,0.0195474624633789,-1.2449413537979126
2024-12-07 16:10:10.435423500,9.999423583984376,-2.0952248573303223,0.1998167037963867,-0.95019793510437
2024-12-07 16:10:10.445452000,10.0094521484375,-1.973366498947144,0.2563066482543945,-0.5245696306228638
2024-12-07 16:10:10.455480600,10.01948046875,-1.5116267204284668,0.2220277786254882,-0.0193923711776733
2024-12-07 16:10:10.465509000,10.029509033203125,-1.1297037601470947,0.14923095703125,0.2326781153678894
2024-12-07 16:10:10.475538000,10.039537841796877,-0.8241711854934692,-0.043283462524414,0.3183602094650268
2024-12-07 16:10:10.485566500,10.04956640625,-0.4825088381767273,-0.2548761367797851,0.407145082950592
2024-12-07 16:10:10.495595000,10.059594970703126,-0.0539323985576629,-0.3278160095214844,0.4813143610954284
2024-12-07 16:10:10.505623600,10.06962353515625,0.4362293779850006,-0.2433061599731445,0.6178820729255676
2024-12-07 16:10:10.515652000,10.079652099609374,0.7804656028747559,-0.0543251037597656,0.9166249632835388
2024-12-07 16:10:10.525681000,10.089680908203125,0.878815770149231,0.1766595840454101,1.0834476947784424
2024-12-07 16:10:10.535709400,10.09970947265625,0.8407481908798218,0.4496879577636719,0.8384642601013184
2024-12-07 16:10:10.545738000,10.109738037109375,0.4998466670513153,0.5163345336914062,0.6650684475898743
2024-12-07 16:10:10.555766500,10.1197666015625,0.0079198777675628,0.4392671585083008,0.3616452217102051
2024-12-07 16:10:10.565795000,10.129795166015626,-0.4210154414176941,0.3049221038818359,-0.0525952577590942
2024-12-07 16:10:10.575824000,10.139823974609374,-0.7561331987380981,0.2186431884765625,-0.5050279498100281
2024-12-07 16:10:10.585852400,10.149852294921876,-0.8811101913452148,0.1421890258789062,-0.9185372591018676
2024-12-07 16:10:10.595881000,10.159880859375,-0.8784668445587158,0.1137638092041015,-1.1443824768066406
2024-12-07 16:10:10.605909500,10.169909423828123,-1.0150835514068604,0.1572246551513672,-1.372813701629639
2024-12-07 16:10:10.615938000,10.17993798828125,-1.040697693824768,0.1864948272705078,-1.3734087944030762
2024-12-07 16:10:10.625966800,10.189966796875,-0.9360049962997437,0.2158966064453125,-1.3042290210723877
2024-12-07 16:10:10.635995400,10.199995361328124,-0.621830940246582,0.1928014755249023,-1.1366844177246094
2024-12-07 16:10:10.646024000,10.21002392578125,-0.3447498679161072,0.1363668441772461,-0.8376017808914185
2024-12-07 16:10:10.656052500,10.220052490234377,-0.2865561544895172,0.0943489074707031,-0.4845421314239502
2024-12-07 16:10:10.666081000,10.2300810546875,0.0788418054580688,0.056955337524414,0.0056718587875366
2024-12-07 16:10:10.676109800,10.24010986328125,0.3423126637935638,0.2198772430419922,0.4491080641746521
2024-12-07 16:10:10.686138400,10.250138427734376,-0.11188655346632,0.3675394058227539,1.10611891746521
2024-12-07 16:10:10.696167000,10.2601669921875,-0.2075909823179245,0.4379005432128906,1.2404680252075195
2024-12-07 16:10:10.706195500,10.270195556640624,-0.3755584359169006,0.3547677993774414,1.2837393283843994
2024-12-07 16:10:10.716224000,10.28022412109375,-0.45795738697052,0.1997642517089843,1.27018404006958
2024-12-07 16:10:10.726252800,10.290252685546877,-0.5063890218734741,0.0590343475341796,1.2241578102111816
2024-12-07 16:10:10.736281300,10.30028125,-0.3636883497238159,-0.1627826690673828,0.9959875345230104
2024-12-07 16:10:10.746310000,10.310309814453126,-0.2312711477279663,-0.2694826126098633,1.0469365119934082
2024-12-07 16:10:10.756338400,10.32033837890625,-0.5321434736251831,-0.2042789459228515,1.4407744407653809
2024-12-07 16:10:10.766367000,10.330366943359374,-0.0025078952312469,-0.2304925918579101,1.6119521856307983
2024-12-07 16:10:10.776395500,10.3403955078125,0.7937697172164917,-0.2953968048095703,1.9173192977905271
2024-12-07 16:10:10.786424300,10.35042431640625,0.9937762022018432,-0.2270116806030273,1.905092477798462
2024-12-07 16:10:10.796452900,10.360452880859375,1.0808839797973633,0.0029487609863281,1.4799054861068726
2024-12-07 16:10:10.806481400,10.3704814453125,1.026545763015747,0.2842388153076172,0.8199875354766846
2024-12-07 16:10:10.816510000,10.380510009765626,0.7835386395454407,0.4591999053955078,0.0613033771514892
2024-12-07 16:10:10.826538500,10.39053857421875,0.4480684995651245,0.4565811157226562,-0.5982037782669067
2024-12-07 16:10:10.836567300,10.4005673828125,-0.015540063381195,0.2577276229858398,-1.0087425708770752
2024-12-07 16:10:10.846595800,10.410595947265625,-0.316516637802124,-0.0080251693725585,-1.269332766532898
2024-12-07 16:10:10.856624400,10.420624267578123,-0.2667298913002014,-0.2880239486694336,-1.3835368156433103
2024-12-07 16:10:10.866653000,10.43065283203125,0.1709709167480468,-0.6013031005859375,-1.3606033325195312
2024-12-07 16:10:10.876681500,10.440681396484376,0.7217777967453003,-0.6706533432006836,-1.2677559852600098
2024-12-07 16:10:10.886710300,10.450710205078124,1.2537569999694824,-0.5156345367431641,-1.2061450481414795
2024-12-07 16:10:10.896738800,10.46073876953125,1.6585693359375,-0.1651639938354492,-1.2859045267105105
2024-12-07 16:10:10.906767400,10.470767333984377,1.8340094089508057,0.1608829498291015,-1.167266011238098
2024-12-07 16:10:10.916796000,10.4807958984375,1.927042245864868,0.271280288696289,-1.1413456201553345
2024-12-07 16:10:10.926824400,10.490824462890624,1.7738746404647827,0.1864690780639648,-1.2990838289260864
2024-12-07 16:10:10.936853200,10.500853271484376,1.1538430452346802,0.1403350830078125,-0.9645761251449584
2024-12-07 16:10:10.946881800,10.5108818359375,0.8166183233261108,-0.0683240890502929,-1.0187572240829468
2024-12-07 16:10:10.956910300,10.520910400390624,0.8022347092628479,-0.3196697235107422,-0.908781886100769
2024-12-07 16:10:10.966939000,10.53093896484375,1.0022106170654297,-0.5566768646240234,-0.5641682147979736
2024-12-07 16:10:10.976967400,10.540967529296877,1.5253103971481323,-0.8987579345703125,-0.2768293619155884
2024-12-07 16:10:10.986996200,10.550996337890624,2.0735158920288086,-1.264543533325195,0.2432503700256347
2024-12-07 16:10:10.997024800,10.561024658203126,2.770989418029785,-1.5914878845214844,0.434915542602539
2024-12-07 16:10:11.007053300,10.57105322265625,3.082814216613769,-1.7215452194213867,0.6133135557174683
2024-12-07 16:10:11.017081900,10.581081787109374,2.98439359664917,-1.7796430587768557,0.722404956817627
2024-12-07 16:10:11.027110400,10.5911103515625,2.84141206741333,-2.0043954849243164,0.3368849754333496
2024-12-07 16:10:11.037139200,10.60113916015625,2.378384113311768,-2.3178939819335938,-0.538192629814148
2024-12-07 16:10:11.047167700,10.611167724609375,1.4982717037200928,-2.8336105346679688,-1.4875221252441406
2024-12-07 16:10:11.057196300,10.6211962890625,0.4043253660202026,-2.992500305175781,-2.3449950218200684
2024-12-07 16:10:11.067224800,10.631224853515626,-0.3279932737350464,-2.8163137435913086,-2.5339465141296387
2024-12-07 16:10:11.077253400,10.64125341796875,0.4998614192008972,-2.7898197174072266,-2.50890588760376
2024-12-07 16:10:11.087282200,10.6512822265625,1.882688045501709,-2.633960723876953,-2.781457901000977
2024-12-07 16:10:11.097310700,10.661310791015625,2.196774959564209,-2.217879295349121,-3.4622795581817627
2024-12-07 16:10:11.107339300,10.67133935546875,0.9328718185424804,-1.708721160888672,-3.87453556060791
2024-12-07 16:10:11.117367800,10.681367919921875,-0.4906512498855591,-1.198507308959961,-3.169358253479004
2024-12-07 16:10:11.127396400,10.691396240234376,-0.5179058313369751,-0.8322744369506836,-1.8320789337158203
2024-12-07 16:10:11.137425000,10.7014248046875,0.966947376728058,-0.427377700805664,-0.4242268800735473
2024-12-07 16:10:11.147453700,10.71145361328125,1.9734992980957031,0.121683120727539,1.1200913190841677
2024-12-07 16:10:11.157482200,10.721482177734377,2.466100215911865,0.5941228866577148,2.309077739715576
2024-12-07 16:10:11.167510800,10.7315107421875,2.4201340675354004,1.146474838256836,2.9256577491760254
2024-12-07 16:10:11.177539300,10.741539306640624,2.2353603839874268,1.7586870193481443,2.645977258682251
2024-12-07 16:10:11.187567900,10.75156787109375,1.6416226625442505,2.2155251502990723,1.795021653175354
2024-12-07 16:10:11.197596700,10.7615966796875,1.191334247589111,2.34070348739624,0.8315715789794922
2024-12-07 16:10:11.207625200,10.771625244140624,1.0230542421340942,2.187839984893799,-0.0062543153762817
2024-12-07 16:10:11.217653800,10.78165380859375,0.9775534272193908,1.8626585006713867,-0.6450576782226562
2024-12-07 16:10:11.227682300,10.791682373046877,0.8990032076835632,1.5851116180419922,-1.1647177934646606
2024-12-07 16:10:11.237710800,10.8017109375,0.6011176109313965,1.3784494400024414,-1.4590771198272705
2024-12-07 16:10:11.247739600,10.81173974609375,0.3211171925067901,1.0411748886108398,-1.4568170309066772
2024-12-07 16:10:11.257768200,10.821768310546876,-0.1396808624267578,0.6301307678222656,-1.255028486251831
2024-12-07 16:10:11.267796700,10.831796630859374,-0.5627906918525696,0.2452001571655273,-1.0366971492767334
2024-12-07 16:10:11.277825300,10.8418251953125,-0.9646458625793456,-0.1712646484375,-0.8546062707901001
2024-12-07 16:10:11.287853800,10.851853759765625,-1.8093500137329104,-0.6287775039672852,-0.2655472755432129
2024-12-07 16:10:11.297882600,10.861882568359375,-2.7841646671295166,-1.0120248794555664,0.3937174081802368
2024-12-07 16:10:11.307911200,10.8719111328125,-2.9635047912597656,-1.3583106994628906,0.7948179244995117
2024-12-07 16:10:11.317939700,10.881939697265626,-2.909255027770996,-1.7001543045043943,0.9328304529190063
2024-12-07 16:10:11.327968300,10.89196826171875,-2.4376916885375977,-2.0844297409057617,1.379508376121521
2024-12-07 16:10:11.337996800,10.901996826171874,-2.1020565032958984,-2.382689476013184,2.376352310180664
2024-12-07 16:10:11.348025600,10.912025634765625,-1.9213342666625977,-2.44149112701416,2.634124279022217
2024-12-07 16:10:11.358054100,10.92205419921875,-0.687019944190979,-2.2857370376586914,2.325298309326172
2024-12-07 16:10:11.368082700,10.932082763671875,-0.1668574810028076,-1.959867477416992,1.6834534406661987
2024-12-07 16:10:11.378111200,10.942111328125,-0.2352945804595947,-1.955753326416016,1.3672444820404053
2024-12-07 16:10:11.388139800,10.952139892578124,-0.3119416236877441,-1.6745109558105469,0.6980502605438232
2024-12-07 16:10:11.398168600,10.96216845703125,-0.1348800659179687,-1.5941238403320312,0.3685085773468017
2024-12-07 16:10:11.408197000,10.972197021484376,0.0955445766448974,-1.2900419235229492,-0.0332533717155456
2024-12-07 16:10:11.418225700,10.9822255859375,0.0282144546508789,-0.873347282409668,-0.5683999061584473
2024-12-07 16:10:11.428254200,10.992254150390623,-0.1410620212554931,-0.4784049987792969,-0.8686449527740479
2024-12-07 16:10:11.438282800,11.00228271484375,-0.4640829563140869,-0.2008247375488281,-1.1036341190338137
2024-12-07 16:10:11.448311300,11.012311279296876,-1.0477180480957031,0.0605058670043945,-1.0577744245529177
2024-12-07 16:10:11.458339800,11.02233984375,-1.6966756582260132,0.2305002212524414,-0.8613477349281311
2024-12-07 16:10:11.468368400,11.032368408203125,-2.1648857593536377,0.3103485107421875,-0.5782055258750916
2024-12-07 16:10:11.478397000,11.04239697265625,-2.213497877120972,0.4154338836669922,-0.5418729782104492
2024-12-07 16:10:11.488425500,11.052425537109375,-2.56026554107666,0.2545299530029297,0.0850027799606323
2024-12-07 16:10:11.498454000,11.0624541015625,-2.512168407440185,0.3777704238891601,0.1226833462715148
2024-12-07 16:10:11.508482600,11.072482666015626,-2.548511981964112,0.6459169387817383,0.1718137562274933
2024-12-07 16:10:11.518511000,11.082510986328124,-2.511646509170532,0.972726821899414,0.4633349776268005
2024-12-07 16:10:11.528539600,11.09253955078125,-3.0720133781433105,1.0010862350463867,1.6713814735412598
2024-12-07 16:10:11.538568200,11.102568115234376,-3.106187105178833,1.4452228546142578,2.26064682006836
2024-12-07 16:10:11.548596700,11.1125966796875,-2.9433865547180176,1.894228458404541,2.376050472259521
2024-12-07 16:10:11.558625300,11.122625244140623,-2.4707369804382324,2.228303909301758,2.358781099319458
2024-12-07 16:10:11.568653800,11.13265380859375,-2.3613524436950684,1.8252530097961424,3.3700764179229736
2024-12-07 16:10:11.578682400,11.142682373046876,-1.7388131618499756,1.7506709098815918,2.5529544353485107
2024-12-07 16:10:11.588711000,11.1527109375,-1.3296611309051514,1.5532002449035645,1.9278258085250857
2024-12-07 16:10:11.598739500,11.162739501953125,-0.8771770000457764,1.2277202606201172,1.6934996843338013
2024-12-07 16:10:11.608768000,11.17276806640625,-0.3535206317901611,0.9318923950195312,1.5487650632858276
2024-12-07 16:10:11.618796500,11.182796630859375,0.1406376361846923,0.7324256896972656,1.2299435138702393
2024-12-07 16:10:11.628825000,11.1928251953125,0.3604989051818847,0.5521554946899414,0.9954237937927246
2024-12-07 16:10:11.638853600,11.202853515625,0.3664333820343017,0.4282951354980469,0.8925085067749023
2024-12-07 16:10:11.648882200,11.212882080078124,0.2096571922302246,0.4077520370483398,0.6772065162658691
2024-12-07 16:10:11.658910700,11.22291064453125,-0.15142822265625,0.466801643371582,0.4793689250946045
2024-12-07 16:10:11.668939300,11.232939208984376,-0.5033800601959229,0.5920343399047852,0.3817548453807831
2024-12-07 16:10:11.678967800,11.2429677734375,-0.5992133617401123,0.6747522354125977,0.3691730201244354
2024-12-07 16:10:11.688996400,11.252996337890623,-0.4145536422729492,0.7488842010498047,0.3104217946529388
2024-12-07 16:10:11.699025000,11.26302490234375,-0.1374952793121338,0.8044195175170898,0.2044332921504974
2024-12-07 16:10:11.709053400,11.273053466796876,0.1208863258361816,0.8170833587646484,0.1170859783887863
2024-12-07 16:10:11.719082000,11.28308203125,0.403022289276123,0.8010587692260742,-0.1325064897537231
2024-12-07 16:10:11.729110500,11.293110595703125,0.6739189624786377,0.7128667831420898,-0.3512102365493774
2024-12-07 16:10:11.739139000,11.30313916015625,0.8754229545593262,0.6527156829833984,-0.5034612417221069
2024-12-07 16:10:11.749167600,11.313167724609375,1.0505585670471191,0.6014585494995117,-0.5011953711509705
2024-12-07 16:10:11.759196200,11.323196044921875,1.128711223602295,0.6072473526000977,-0.4492307007312774
2024-12-07 16:10:11.769224700,11.333224609375,1.264549970626831,0.6275835037231445,-0.5909690856933594
2024-12-07 16:10:11.779253200,11.343253173828124,1.5867359638214111,0.5907297134399414,-0.7303208112716675
2024-12-07 16:10:11.789281800,11.35328173828125,1.9167613983154297,0.4915494918823242,-1.0922279357910156
2024-12-07 16:10:11.799310300,11.363310302734376,2.1052582263946533,0.2820148468017578,-1.550940752029419
2024-12-07 16:10:11.809339000,11.3733388671875,2.023132801055908,0.0960521697998046,-1.765546441078186
2024-12-07 16:10:11.819367400,11.383367431640623,1.7910306453704834,-0.0708856582641601,-2.322791814804077
2024-12-07 16:10:11.829396000,11.39339599609375,1.5440983772277832,-0.1897172927856445,-2.632862567901612
2024-12-07 16:10:11.839424500,11.403424560546876,1.330246925354004,-0.1602087020874023,-2.786742925643921
2024-12-07 16:10:11.849453000,11.413453125,1.088503360748291,-0.0682830810546875,-2.7611019611358643
2024-12-07 16:10:11.859481600,11.423481689453125,0.8687489032745361,0.1056327819824218,-2.4347474575042725
2024-12-07 16:10:11.869510100,11.43351025390625,0.5533902645111084,0.481363296508789,-1.6953150033950806
2024-12-07 16:10:11.879538700,11.44353857421875,0.2700934410095215,0.9974651336669922,-0.874398946762085
2024-12-07 16:10:11.889567000,11.45356689453125,0.318063735961914,1.382401466369629,-0.2460629492998123
2024-12-07 16:10:11.899595500,11.463595458984376,0.7391483783721924,1.6314454078674316,0.3118120431900024
2024-12-07 16:10:11.909624000,11.4736240234375,1.3094322681427002,1.8056340217590328,0.6858887076377869
2024-12-07 16:10:11.919652600,11.483652587890624,1.6092798709869385,1.7746949195861816,0.8107712268829346
2024-12-07 16:10:11.929681200,11.49368115234375,1.5810739994049072,1.309478759765625,0.8487075567245483
2024-12-07 16:10:11.939709700,11.503709716796877,1.374871015548706,0.5881853103637695,0.9538247585296632
2024-12-07 16:10:11.949738200,11.51373828125,0.8786375522613525,-0.2732257843017578,1.2278825044631958
2024-12-07 16:10:11.959766800,11.523766845703124,0.4533822536468506,-1.4553451538085938,1.7387573719024658
2024-12-07 16:10:11.969795300,11.53379541015625,0.265763521194458,-3.206005096435547,2.607684135437012
2024-12-07 16:10:11.979823900,11.543823974609374,0.1848983764648437,-5.376324653625488,3.5340828895568848
2024-12-07 16:10:11.989852400,11.553852294921874,-0.163576602935791,-7.254107475280762,4.009763717651367
2024-12-07 16:10:11.999881000,11.563880859375,-0.8148434162139893,-7.9233551025390625,3.558855533599853
2024-12-07 16:10:12.009909500,11.573909423828123,-0.8667842149734497,-6.929801940917969,2.365540742874145
2024-12-07 16:10:12.019938000,11.58393798828125,-0.24857759475708,-5.37246036529541,1.6816694736480713
2024-12-07 16:10:12.029966600,11.593966552734376,1.8018863201141355,-4.098875045776367,1.174874186515808
2024-12-07 16:10:12.039995100,11.6039951171875,5.3219404220581055,-2.8776302337646484,0.1655067801475525
2024-12-07 16:10:12.050023700,11.614023681640624,5.737839698791504,-1.3428688049316406,-0.6507341265678406
2024-12-07 16:10:12.060052200,11.62405224609375,3.111912250518799,0.7000980377197266,-0.859632134437561
