time,seconds_elapsed,z,y,x
2024-12-07 16:24:06.841461000,0.1364609375,-0.0303946733474731,-0.0687885284423828,-0.410001277923584
2024-12-07 16:24:06.851488500,0.146488525390625,-0.0104593038558959,-0.0405187606811523,-0.421452522277832
2024-12-07 16:24:06.861553000,0.156552978515625,-0.0622079372406005,-0.019230842590332,-0.4004874229431152
2024-12-07 16:24:06.871651600,0.166651611328125,-0.1049659252166748,-0.0083026885986328,-0.3930115699768066
2024-12-07 16:24:06.881780000,0.176780029296875,-0.0554101467132568,0.0064783096313476,-0.3530590534210205
2024-12-07 16:24:06.891933400,0.186933349609375,0.0135756731033325,0.033935546875,-0.3134200572967529
2024-12-07 16:24:06.902105300,0.197105224609375,0.1056222915649414,0.0913925170898437,-0.3407166004180908
2024-12-07 16:24:06.912289300,0.207289306640625,0.1157163381576538,0.1277236938476562,-0.3721654415130615
2024-12-07 16:24:06.922478800,0.217478759765625,0.1299134492874145,0.1261215209960937,-0.3892004489898681
2024-12-07 16:24:06.932638000,0.227637939453125,0.1343041658401489,0.1111354827880859,-0.3334424495697021
2024-12-07 16:24:06.942665700,0.237665771484375,0.1609690189361572,0.0515346527099609,-0.2584230899810791
2024-12-07 16:24:06.952693500,0.247693603515625,0.149720549583435,0.0176982879638671,-0.2152149677276611
2024-12-07 16:24:06.962721300,0.25772119140625,0.1483033895492553,0.031158447265625,-0.1928367614746093
2024-12-07 16:24:06.972749000,0.2677490234375,0.1419692039489746,0.044081687927246,-0.1629319190979004
2024-12-07 16:24:06.982776800,0.27777685546875,0.0941256284713745,0.0337381362915039,-0.1214935779571533
2024-12-07 16:24:06.992804400,0.287804443359375,0.0982965230941772,0.0009765625,-0.1697909832000732
2024-12-07 16:24:07.002832100,0.29783203125,0.0651878118515014,-0.007634162902832,-0.2209522724151611
2024-12-07 16:24:07.012860000,0.30785986328125,0.0610796213150024,0.0346288681030273,-0.1917393207550048
2024-12-07 16:24:07.022887700,0.3178876953125,0.0341855287551879,0.0476207733154296,-0.20046067237854
2024-12-07 16:24:07.032915500,0.32791552734375,-0.042487621307373,0.0647077560424804,-0.2318329811096191
2024-12-07 16:24:07.042943200,0.337943115234375,-0.0927239656448364,0.0950918197631836,-0.2618260383605957
2024-12-07 16:24:07.052971000,0.347970947265625,-0.12161386013031,0.0597410202026367,-0.2674415111541748
2024-12-07 16:24:07.062998800,0.357998779296875,-0.0651261806488037,0.0210199356079101,-0.2451097965240478
2024-12-07 16:24:07.073026600,0.368026611328125,0.0458778142929077,0.0021905899047851,-0.181983470916748
2024-12-07 16:24:07.083054300,0.378054443359375,0.0797618627548217,0.0074234008789062,-0.1306769847869873
2024-12-07 16:24:07.093082000,0.38808203125,0.1311589479446411,0.0591897964477539,-0.1233153343200683
2024-12-07 16:24:07.103110000,0.39810986328125,0.0457370281219482,0.0909233093261718,-0.1350369453430175
2024-12-07 16:24:07.113137700,0.4081376953125,0.0605188608169555,0.1032075881958007,-0.1371490955352783
2024-12-07 16:24:07.123165400,0.41816552734375,0.1066514253616333,0.1058359146118164,-0.1068572998046875
2024-12-07 16:24:07.133193200,0.428193115234375,-0.0405786037445068,0.080265998840332,-0.1706025600433349
2024-12-07 16:24:07.143221000,0.438220947265625,-0.1744682788848877,0.0366573333740234,-0.2232303619384765
2024-12-07 16:24:07.153248500,0.44824853515625,-0.1600548028945922,0.0361137390136718,-0.2183413505554199
2024-12-07 16:24:07.163276300,0.4582763671875,-0.1828956604003906,0.0215921401977539,-0.2461996078491211
2024-12-07 16:24:07.173304000,0.468303955078125,-0.1434727907180786,0.0074129104614257,-0.3292169570922851
2024-12-07 16:24:07.183331800,0.478331787109375,-0.1132028102874755,0.0121593475341796,-0.3582451343536377
2024-12-07 16:24:07.193359600,0.488359619140625,0.0156792402267456,0.011937141418457,-0.301638126373291
2024-12-07 16:24:07.203387400,0.498387451171875,0.1654540300369262,0.0114126205444335,-0.1752467155456543
2024-12-07 16:24:07.213415200,0.508415283203125,0.2039295434951782,-0.0549707412719726,-0.0136315822601318
2024-12-07 16:24:07.223443000,0.51844287109375,0.1055645942687988,-0.1903085708618164,0.1444964408874511
2024-12-07 16:24:07.233470700,0.528470703125,0.1310561895370483,-0.2897882461547851,0.3125848770141601
2024-12-07 16:24:07.243498500,0.53849853515625,0.1361998319625854,-0.2977285385131836,0.4709787368774414
2024-12-07 16:24:07.253526300,0.5485263671875,0.135993480682373,-0.2346706390380859,0.5215227603912354
2024-12-07 16:24:07.263554000,0.558553955078125,0.1493089199066162,-0.1067323684692382,0.4900686740875244
2024-12-07 16:24:07.273581800,0.568581787109375,0.2275320291519165,0.033055305480957,0.3974800109863281
2024-12-07 16:24:07.283609600,0.578609619140625,0.2659460306167602,0.1516590118408203,0.2635881900787353
2024-12-07 16:24:07.293637400,0.588637451171875,0.2416952848434448,0.2070703506469726,0.0659136772155761
2024-12-07 16:24:07.303665200,0.5986650390625,0.1419436931610107,0.1863641738891601,-0.1286766529083252
2024-12-07 16:24:07.313693000,0.60869287109375,0.0439424514770507,0.1566762924194336,-0.3434557914733886
2024-12-07 16:24:07.323720400,0.618720458984375,-0.0609211921691894,0.1933021545410156,-0.5962862968444824
2024-12-07 16:24:07.333748200,0.628748291015625,-0.0398422479629516,0.2290782928466797,-0.7822878360748291
2024-12-07 16:24:07.343776000,0.63877587890625,0.0766410827636718,0.2167797088623047,-0.850529670715332
2024-12-07 16:24:07.353803800,0.6488037109375,0.1915017366409301,0.1992683410644531,-0.9062423706054688
2024-12-07 16:24:07.363831600,0.65883154296875,0.2424474954605102,0.2377462387084961,-0.7991971969604492
2024-12-07 16:24:07.373859300,0.668859375,0.1973130702972412,0.2560043334960937,-0.6454038619995117
2024-12-07 16:24:07.383887000,0.67888720703125,0.1532316207885742,0.1935319900512695,-0.4930989742279053
2024-12-07 16:24:07.393915000,0.688914794921875,0.2240506410598755,0.099125862121582,-0.2957446575164795
2024-12-07 16:24:07.403942700,0.698942626953125,0.3315006494522095,0.0866079330444336,-0.0363936424255371
2024-12-07 16:24:07.413970400,0.708970458984375,0.3612146377563476,0.1407690048217773,0.1133980751037597
2024-12-07 16:24:07.423998200,0.718998291015625,0.3758555650711059,0.2227964401245117,0.0190613269805908
2024-12-07 16:24:07.434026000,0.72902587890625,0.3999921083450317,0.3038978576660156,-0.0652606487274169
2024-12-07 16:24:07.444053800,0.7390537109375,0.4525244235992431,0.3698024749755859,-0.0874359607696533
2024-12-07 16:24:07.454081500,0.74908154296875,0.5046321153640747,0.2984256744384765,-0.0770089626312255
2024-12-07 16:24:07.464109300,0.759109375,0.4811581373214721,0.2192010879516601,-0.0862746238708496
2024-12-07 16:24:07.474137000,0.76913720703125,0.4738080501556396,0.1888685226440429,0.035919189453125
2024-12-07 16:24:07.484164600,0.77916455078125,0.5058999061584473,0.0882635116577148,-0.2666182518005371
2024-12-07 16:24:07.494192400,0.7891923828125,0.5579944849014282,0.0875873565673828,-0.0862436294555664
2024-12-07 16:24:07.504220200,0.79922021484375,0.548748254776001,0.0252189636230468,-0.3452258110046386
2024-12-07 16:24:07.514248000,0.809248046875,0.5259137153625488,0.0849485397338867,-0.6104578971862793
2024-12-07 16:24:07.524275700,0.819275634765625,0.2788419723510742,0.2041616439819336,-0.2305052280426025
2024-12-07 16:24:07.534303500,0.829303466796875,-0.1837598085403442,0.1096124649047851,-0.2210307121276855
2024-12-07 16:24:07.544331300,0.839331298828125,-0.3716886043548584,0.1492118835449218,-0.4711511135101318
2024-12-07 16:24:07.554359000,0.849359130859375,-0.1948317289352417,0.1277189254760742,-0.8210952281951904
2024-12-07 16:24:07.564386800,0.85938671875,-0.4153000116348266,0.168828010559082,-1.002535104751587
2024-12-07 16:24:07.574414600,0.86941455078125,-1.964397668838501,0.3803005218505859,-0.3948380947113037
2024-12-07 16:24:07.584442400,0.8794423828125,-0.0702670812606811,0.4608106613159179,-1.7011125087738037
2024-12-07 16:24:07.594470100,0.88947021484375,0.2897251844406128,0.653782844543457,-0.1378004550933838
2024-12-07 16:24:07.604498000,0.899497802734375,-0.5366082787513733,1.04205322265625,0.5894491672515869
2024-12-07 16:24:07.614525700,0.909525634765625,-1.0116885900497437,0.5096473693847656,0.2507917881011963
2024-12-07 16:24:07.624553500,0.919553466796875,-0.6319589614868164,0.2517642974853515,0.1677629947662353
2024-12-07 16:24:07.634581200,0.929581298828125,-0.2801570296287536,0.1957273483276367,0.7290768623352051
2024-12-07 16:24:07.644609000,0.939609130859375,-0.2487463355064392,-0.1017894744873046,-0.0511693954467773
2024-12-07 16:24:07.654636800,0.94963671875,-0.379793107509613,-0.3136463165283203,-0.6127567291259766
2024-12-07 16:24:07.664664600,0.95966455078125,-0.4497780203819275,-0.4439601898193359,-0.0278613567352294
2024-12-07 16:24:07.674692400,0.9696923828125,-0.1031931638717651,-0.4204645156860351,0.3030495643615722
2024-12-07 16:24:07.684720000,0.97972021484375,0.3535314798355102,-0.5776433944702148,0.4226069450378418
2024-12-07 16:24:07.694748200,0.989748046875,0.5644499063491821,-0.6858854293823242,0.92808198928833
2024-12-07 16:24:07.704776000,0.99977587890625,0.7666412591934204,-0.7357597351074219,1.0982418060302734
2024-12-07 16:24:07.714803700,1.0098037109375,1.0213671922683716,-0.7618904113769531,0.9670917987823486
2024-12-07 16:24:07.724831500,1.01983154296875,1.1864968538284302,-0.7691135406494141,0.8787527084350586
2024-12-07 16:24:07.734859300,1.029859375,1.069413661956787,-0.7627382278442383,0.5163917541503906
2024-12-07 16:24:07.744887000,1.039886962890625,0.941738486289978,-0.6769819259643555,0.4441690444946289
2024-12-07 16:24:07.754914800,1.049914794921875,0.8664975166320801,-0.5216636657714844,0.6395175457000732
2024-12-07 16:24:07.764942800,1.05994287109375,0.7813823223114014,-0.324925422668457,0.8223261833190918
2024-12-07 16:24:07.774970600,1.069970703125,0.6195491552352905,-0.1860151290893554,0.6303799152374268
2024-12-07 16:24:07.784998400,1.079998291015625,0.3882621526718139,0.3523387908935547,1.225881576538086
2024-12-07 16:24:07.795026200,1.090026123046875,0.2640267610549927,0.2425346374511718,0.1791348457336425
2024-12-07 16:24:07.805054000,1.100053955078125,-0.0680359601974487,0.3139314651489258,-0.3122272491455078
2024-12-07 16:24:07.815081700,1.110081787109375,-0.380064308643341,0.3133411407470703,-0.940089225769043
2024-12-07 16:24:07.825109500,1.120109619140625,-0.5250383019447327,0.2405910491943359,-1.3593530654907229
2024-12-07 16:24:07.835137500,1.130137451171875,-0.5143694281578064,0.3059835433959961,-1.1142897605895996
2024-12-07 16:24:07.845165300,1.140165283203125,-0.3503038287162781,0.3002882003784179,-0.948754072189331
2024-12-07 16:24:07.855193000,1.150193115234375,-0.391342282295227,0.3714122772216797,-0.7537133693695068
2024-12-07 16:24:07.865220900,1.160220947265625,-0.2389818429946899,0.2095108032226562,-1.0691215991973877
2024-12-07 16:24:07.875248600,1.17024853515625,-0.4174789190292358,0.2136745452880859,-0.9750125408172609
2024-12-07 16:24:07.885276400,1.1802763671875,-0.5788711309432983,0.1543397903442382,-0.6630263328552246
2024-12-07 16:24:07.895304200,1.19030419921875,-0.4750407338142395,0.2484731674194336,-0.02360200881958
2024-12-07 16:24:07.905332200,1.200332275390625,-0.2040972113609314,0.2808256149291992,-0.3691232204437256
2024-12-07 16:24:07.915360000,1.210360107421875,0.0510709881782531,0.31304931640625,-0.1991996765136718
2024-12-07 16:24:07.925387800,1.2203876953125,0.2188028693199157,0.2888088226318359,-0.0376231670379638
2024-12-07 16:24:07.935415600,1.23041552734375,0.3540912866592407,0.1895933151245117,-0.1272938251495361
2024-12-07 16:24:07.945443300,1.240443359375,0.2241337895393371,0.2297554016113281,-0.1720428466796875
2024-12-07 16:24:07.955471000,1.25047119140625,-0.0911051630973815,0.3367118835449219,-0.2661888599395752
2024-12-07 16:24:07.965499000,1.260498779296875,-0.4735263586044311,0.4155130386352539,-0.1822924613952636
2024-12-07 16:24:07.975527000,1.27052685546875,-0.6926692128181458,0.3669271469116211,-0.2355690002441406
2024-12-07 16:24:07.985554700,1.2805546875,-0.5901628732681274,0.28228759765625,-0.2819452285766601
2024-12-07 16:24:07.995582500,1.29058251953125,-0.1883440613746643,0.1332168579101562,-0.2502293586730957
2024-12-07 16:24:08.005610200,1.3006103515625,0.1972304582595825,0.1664876937866211,-0.135500431060791
2024-12-07 16:24:08.015638000,1.310637939453125,0.1481872797012329,0.5547456741333008,0.6316690444946289
2024-12-07 16:24:08.025665800,1.320665771484375,0.0318133831024169,1.0247316360473633,0.6533408164978027
2024-12-07 16:24:08.035693600,1.330693603515625,0.1102903485298156,0.9814214706420898,1.1096315383911133
2024-12-07 16:24:08.045721600,1.3407216796875,0.1805019974708557,1.1323375701904297,1.4240449666976929
2024-12-07 16:24:08.055749400,1.350749267578125,0.1766217947006225,1.4294204711914062,1.9206366539001465
2024-12-07 16:24:08.065777200,1.360777099609375,-0.0994039177894592,0.7807941436767578,3.3805763721466064
2024-12-07 16:24:08.075805000,1.370804931640625,0.138169527053833,-0.0203733444213867,5.696624755859375
2024-12-07 16:24:08.085832700,1.380832763671875,0.8663321137428284,1.836341857910156,2.5788612365722656
2024-12-07 16:24:08.095860500,1.390860595703125,0.5766220688819885,1.5330123901367188,1.909818649291992
2024-12-07 16:24:08.105888300,1.40088818359375,1.209782600402832,1.93463134765625,0.2606911659240722
2024-12-07 16:24:08.115916300,1.410916259765625,1.10842764377594,1.3281831741333008,-0.2303488254547119
2024-12-07 16:24:08.125944000,1.420944091796875,0.2575955688953399,0.865325927734375,0.05702406167984
2024-12-07 16:24:08.135971800,1.430971923828125,0.5873925685882568,0.3222208023071289,-0.0110719799995422
2024-12-07 16:24:08.145999600,1.44099951171875,0.5703601837158203,-0.0357160568237304,-0.3150132298469543
2024-12-07 16:24:08.156027400,1.45102734375,0.5494024753570557,-1.0525178909301758,-0.5520092844963074
2024-12-07 16:24:08.166055200,1.46105517578125,0.2151035666465759,-2.0251169204711914,-2.48470425605774
2024-12-07 16:24:08.176083000,1.4710830078125,-0.3861628472805023,-2.8935232162475586,-4.080328941345215
2024-12-07 16:24:08.186111000,1.481111083984375,0.0835412144660949,-2.518295288085937,-4.9898786544799805
2024-12-07 16:24:08.196138800,1.491138671875,-0.3003964722156524,-2.197805404663086,-4.972217559814453
2024-12-07 16:24:08.206166500,1.50116650390625,-1.0427885055541992,-1.7353382110595703,-4.104373455047607
2024-12-07 16:24:08.216194300,1.5111943359375,-1.6490191221237185,-1.3214111328125,-4.188921451568604
2024-12-07 16:24:08.226222000,1.52122216796875,-1.2696748971939087,-1.5621700286865234,-4.953068256378174
2024-12-07 16:24:08.236249900,1.531249755859375,0.0637820363044738,-1.976058006286621,-4.858192443847656
2024-12-07 16:24:08.246277600,1.541277587890625,0.5801615715026855,-1.1865472793579102,-4.327573299407959
2024-12-07 16:24:08.256305700,1.5513056640625,0.5825589895248413,-1.2460041046142578,-3.268625259399414
2024-12-07 16:24:08.266333400,1.56133349609375,0.6692301034927368,-1.7233381271362305,-1.37772536277771
2024-12-07 16:24:08.276361200,1.571361328125,0.912783145904541,-2.3491134643554688,0.9394742250442504
2024-12-07 16:24:08.286389000,1.581388916015625,1.7493090629577637,-2.8501691818237305,2.7804629802703857
2024-12-07 16:24:08.296416800,1.591416748046875,2.6578760147094727,-3.347855567932129,3.7046921253204346
2024-12-07 16:24:08.306444500,1.601444580078125,2.103743076324463,-3.619076728820801,4.246090888977051
2024-12-07 16:24:08.316472300,1.611472412109375,1.385157823562622,-3.0706920623779297,3.9530270099639897
2024-12-07 16:24:08.326500400,1.621500244140625,0.993438720703125,-2.206899642944336,2.328389883041382
2024-12-07 16:24:08.336528100,1.631528076171875,1.2201015949249268,-1.2224721908569336,0.2948850989341736
2024-12-07 16:24:08.346556000,1.641555908203125,1.241729497909546,-0.1354026794433593,-0.4812664985656738
2024-12-07 16:24:08.356583700,1.651583740234375,0.935411274433136,0.3550376892089844,-0.5365868806838989
2024-12-07 16:24:08.366611700,1.66161181640625,1.2236320972442627,0.3583812713623047,-0.5865550637245178
2024-12-07 16:24:08.376639500,1.671639404296875,2.142530918121338,-0.151402473449707,0.2610038518905639
2024-12-07 16:24:08.386667300,1.681667236328125,2.908172130584717,-0.8923454284667969,0.803270697593689
2024-12-07 16:24:08.396695300,1.6916953125,2.968824625015259,-1.6553478240966797,1.0269062519073486
2024-12-07 16:24:08.406723000,1.70172314453125,2.941922426223755,-1.883559226989746,1.2187895774841309
2024-12-07 16:24:08.416751000,1.711751220703125,1.5728272199630735,-0.940166473388672,1.4284265041351318
2024-12-07 16:24:08.426779000,1.72177880859375,-1.3602592945098877,-0.3659334182739258,0.8554961681365967
2024-12-07 16:24:08.436806700,1.731806640625,-1.7864959239959717,-0.2440481185913086,-1.0261670351028442
2024-12-07 16:24:08.446834700,1.741834716796875,-0.1335784196853637,-0.0300779342651367,-3.687540054321289
2024-12-07 16:24:08.456862500,1.751862548828125,-0.0538692474365234,0.7336540222167969,-5.721457004547119
2024-12-07 16:24:08.466890200,1.76189013671875,-3.049619674682617,1.1369829177856443,-5.03095817565918
2024-12-07 16:24:08.476918300,1.771918212890625,-5.931055068969727,0.9148387908935548,-3.316617488861084
2024-12-07 16:24:08.486946000,1.781946044921875,-6.949557304382324,0.3486137390136719,-1.1795132160186768
2024-12-07 16:24:08.496973800,1.791973876953125,-5.587815761566162,-0.0248651504516601,0.5409878492355347
2024-12-07 16:24:08.507001900,1.802001953125,-3.052196264266968,-0.1892070770263672,2.4928343296051025
2024-12-07 16:24:08.517029600,1.812029541015625,-0.9858683347702026,-0.6074600219726562,4.737686634063721
2024-12-07 16:24:08.527057400,1.822057373046875,0.2146252393722534,-0.3042640686035156,5.068962097167969
2024-12-07 16:24:08.537085400,1.83208544921875,0.413110613822937,0.5506715774536133,3.896146535873413
2024-12-07 16:24:08.547113200,1.84211328125,0.216890811920166,1.113224983215332,3.194475650787353
2024-12-07 16:24:08.557141000,1.85214111328125,0.0619772672653198,1.195744514465332,2.8718020915985107
2024-12-07 16:24:08.567169000,1.8621689453125,0.1340575218200683,1.5631141662597656,2.191327810287476
2024-12-07 16:24:08.577196800,1.87219677734375,0.1775140762329101,1.894824981689453,1.6525133848190308
2024-12-07 16:24:08.587224600,1.882224609375,0.1428332328796386,1.829617500305176,1.866574764251709
2024-12-07 16:24:08.597252600,1.892252685546875,0.4052568674087524,1.6602792739868164,1.9159643650054927
2024-12-07 16:24:08.607280400,1.9022802734375,0.942450761795044,1.4154777526855469,1.3501126766204834
2024-12-07 16:24:08.617308200,1.91230810546875,1.3138028383255005,1.0470151901245115,0.8899616599082947
2024-12-07 16:24:08.627336200,1.922336181640625,1.478376030921936,0.6834468841552734,0.2639889419078827
2024-12-07 16:24:08.637364000,1.932364013671875,1.4322017431259155,0.3436698913574219,-0.2225187569856643
2024-12-07 16:24:08.647391700,1.942391845703125,1.310786485671997,0.1182107925415039,-0.6551690101623535
2024-12-07 16:24:08.657419800,1.952419677734375,1.3071441650390625,-0.0169525146484375,-0.7610659599304199
2024-12-07 16:24:08.667447600,1.962447509765625,1.4850455522537231,-0.0380573272705078,-0.6990741491317749
2024-12-07 16:24:08.677475600,1.9724755859375,1.5963783264160156,-0.0695104598999023,-0.5037457346916199
2024-12-07 16:24:08.687503400,1.98250341796875,1.6084480285644531,-0.1446981430053711,-0.1738227754831314
2024-12-07 16:24:08.697531100,1.99253125,1.5405704975128174,-0.1921262741088867,0.0497727990150451
2024-12-07 16:24:08.707559200,2.00255908203125,1.150106430053711,-0.2215089797973632,0.1402283310890197
2024-12-07 16:24:08.717587000,2.0125869140625,0.4897568225860595,-0.1988201141357422,-0.229541465640068
2024-12-07 16:24:08.727614700,2.02261474609375,-0.0858333110809326,-0.189615249633789,-0.8119484186172485
2024-12-07 16:24:08.737642800,2.032642822265625,-0.4668043851852417,-0.1266365051269531,-1.5434811115264893
2024-12-07 16:24:08.747670500,2.04267041015625,-0.8172516822814941,-0.0434741973876953,-2.141770124435425
2024-12-07 16:24:08.757698300,2.0526982421875,-1.1446568965911863,0.1509103775024414,-2.654110908508301
2024-12-07 16:24:08.767726300,2.062726318359375,-1.2989598512649536,0.4279766082763672,-3.195324420928955
2024-12-07 16:24:08.777754000,2.072754150390625,-1.0043870210647583,0.5681381225585938,-3.269045829772949
2024-12-07 16:24:08.787782000,2.082781982421875,-0.2468209266662597,0.5235109329223633,-2.7798922061920166
2024-12-07 16:24:08.797810000,2.092809814453125,0.5738213062286377,0.4359569549560547,-1.5280661582946775
2024-12-07 16:24:08.807837700,2.102837646484375,0.7733790874481201,0.3800821304321289,-0.5213354825973511
2024-12-07 16:24:08.817865500,2.112865478515625,0.5086972713470459,0.4227924346923828,0.0666891708970069
2024-12-07 16:24:08.827893500,2.1228935546875,0.124117374420166,0.57891845703125,0.3991099894046783
2024-12-07 16:24:08.837921300,2.13292138671875,-0.0054934024810791,0.7009096145629883,0.560184121131897
2024-12-07 16:24:08.847949000,2.142948974609375,-0.2746899127960205,0.8562488555908203,0.8233395218849182
2024-12-07 16:24:08.857977000,2.15297705078125,-0.5411961078643799,1.0981369018554688,1.2542694807052612
2024-12-07 16:24:08.868004900,2.1630048828125,-0.6502400636672974,1.2933979034423828,1.850183129310608
2024-12-07 16:24:08.878032600,2.17303271484375,-0.4744808673858642,1.3802528381347656,2.32529878616333
2024-12-07 16:24:08.888060400,2.183060302734375,-0.222907543182373,1.2584991455078125,2.2867140769958496
2024-12-07 16:24:08.898088200,2.193088134765625,-0.0215458869934082,0.9619998931884766,1.7895110845565796
2024-12-07 16:24:08.908116000,2.203115966796875,0.1938281059265136,0.6480350494384766,1.0461019277572632
2024-12-07 16:24:08.918143700,2.213143798828125,0.4973294734954834,0.3494596481323242,0.4941785633563995
2024-12-07 16:24:08.928171800,2.223171875,0.7792913913726807,0.1711349487304687,-0.0571412593126297
2024-12-07 16:24:08.938199600,2.233199462890625,0.8220715522766113,0.0175161361694335,-0.5431135296821594
2024-12-07 16:24:08.948227300,2.243227294921875,0.9946839809417723,0.1317758560180664,-0.8187943696975708
2024-12-07 16:24:08.958255000,2.253255126953125,0.8248293399810791,0.5032176971435547,-0.7561878561973572
2024-12-07 16:24:08.968283000,2.263282958984375,0.4080731868743896,0.845515251159668,-0.486692726612091
2024-12-07 16:24:08.978310700,2.273310546875,0.2426130771636963,1.1018857955932615,-0.3643245697021484
2024-12-07 16:24:08.988338400,2.28333837890625,0.2307465076446533,1.2723960876464844,-0.2472200095653534
2024-12-07 16:24:08.998366500,2.293366455078125,0.3088424205780029,1.3285865783691406,-0.2482609748840332
2024-12-07 16:24:09.008394200,2.303394287109375,0.1718814373016357,0.8515262603759766,-0.0542875304818153
2024-12-07 16:24:09.018422000,2.313422119140625,0.0361809730529785,-0.7665634155273438,0.8288285732269287
2024-12-07 16:24:09.028449800,2.32344970703125,0.5667622089385986,-3.583320617675781,2.1306047439575195
2024-12-07 16:24:09.038477600,2.3334775390625,1.4940975904464722,-6.818570137023926,2.693481683731079
2024-12-07 16:24:09.048505300,2.34350537109375,1.4498977661132812,-8.865571022033691,2.071394443511963
2024-12-07 16:24:09.058533000,2.353533203125,0.7748574018478394,-9.100400924682615,1.6409683227539062
2024-12-07 16:24:09.068561200,2.36356103515625,0.4870685338973999,-8.106579780578613,0.964267373085022
2024-12-07 16:24:09.078589000,2.3735888671875,0.8563941717147827,-2.95595932006836,-0.3305096924304962
2024-12-07 16:24:09.088616700,2.38361669921875,0.151863694190979,0.8406896591186523,0.7391303777694702
2024-12-07 16:24:09.098644500,2.39364453125,-1.2930667400360107,2.4507803916931152,1.8118550777435305
2024-12-07 16:24:09.108672300,2.40367236328125,-2.3195910453796387,3.8398284912109375,2.0230026245117188
2024-12-07 16:24:09.118700000,2.413699951171875,-3.089141607284546,5.053160190582275,2.249092102050781
2024-12-07 16:24:09.128727800,2.423727783203125,-3.572659969329834,5.439418315887451,2.507230758666992
2024-12-07 16:24:09.138755800,2.433755859375,-3.88203239440918,4.745044708251953,2.216264247894287
2024-12-07 16:24:09.148783600,2.44378369140625,-3.453401803970337,3.6030797958374015,1.4309922456741333
2024-12-07 16:24:09.158811400,2.453811279296875,-2.944390296936035,2.290454387664795,0.742218017578125
2024-12-07 16:24:09.168839200,2.463839111328125,-2.409474849700928,0.8638515472412109,-0.2596723139286041
2024-12-07 16:24:09.178867200,2.4738671875,-1.8674840927124023,-0.6384792327880859,-1.3208134174346924
2024-12-07 16:24:09.188895000,2.48389501953125,-1.3533862829208374,-1.8201446533203125,-2.11432147026062
2024-12-07 16:24:09.198922800,2.4939228515625,-0.6487533450126648,-2.543887138366699,-2.6657161712646484
2024-12-07 16:24:09.208950800,2.50395068359375,0.3852248191833496,-2.7594213485717773,-2.698484182357788
2024-12-07 16:24:09.218978600,2.513978515625,1.0751923322677612,-2.274078369140625,-1.619220495223999
2024-12-07 16:24:09.229006300,2.52400634765625,1.4781705141067505,-1.420379638671875,-0.2293911278247833
2024-12-07 16:24:09.239034400,2.534034423828125,1.5062958002090454,-0.6581945419311523,0.8828606009483337
2024-12-07 16:24:09.249062100,2.544062255859375,0.8913406133651733,-0.2064542770385742,1.9078043699264529
2024-12-07 16:24:09.259090000,2.55408984375,0.142276644706726,0.1369533538818359,2.192072868347168
2024-12-07 16:24:09.269118000,2.564117919921875,-0.5627160668373108,0.3588848114013672,1.804098129272461
2024-12-07 16:24:09.279145700,2.574145751953125,-1.0709291696548462,0.4653663635253906,0.7492822408676147
2024-12-07 16:24:09.289173800,2.584173828125,-1.821662664413452,0.6437320709228516,-0.1355082690715789
2024-12-07 16:24:09.299201500,2.594201416015625,-1.833569288253784,0.5652399063110352,-1.4652057886123655
2024-12-07 16:24:09.309229300,2.604229248046875,-1.7901192903518677,0.4932193756103515,-1.9804750680923464
2024-12-07 16:24:09.319257300,2.61425732421875,-1.8452128171920776,0.3654775619506836,-1.9039461612701416
2024-12-07 16:24:09.329285000,2.62428515625,-1.742264747619629,0.1438102722167968,-1.7394189834594729
2024-12-07 16:24:09.339313000,2.63431298828125,-1.4643833637237549,-0.1717357635498047,-1.4357675313949585
2024-12-07 16:24:09.349341000,2.6443408203125,-1.061365842819214,-0.3283042907714844,-1.0427221059799194
2024-12-07 16:24:09.359368700,2.65436865234375,-0.5206615328788757,-0.4030599594116211,-0.6235650181770325
2024-12-07 16:24:09.369396500,2.664396484375,-0.0789925456047058,-0.3632802963256836,-0.1177629232406616
2024-12-07 16:24:09.379424500,2.674424560546875,0.1585051417350769,-0.2381868362426757,0.2907026410102844
2024-12-07 16:24:09.389452300,2.684452392578125,0.3829022049903869,-0.1521921157836914,0.467780590057373
2024-12-07 16:24:09.399480000,2.69447998046875,0.4401369094848633,-0.176858901977539,0.5421125292778015
2024-12-07 16:24:09.409508000,2.704508056640625,0.312493622303009,-0.1447162628173828,0.5088850259780884
2024-12-07 16:24:09.419536000,2.714535888671875,0.3020603060722351,-0.0796689987182617,0.3361926972866058
2024-12-07 16:24:09.429564000,2.72456396484375,0.23678719997406,0.0373401641845703,0.2118786573410034
2024-12-07 16:24:09.439592000,2.734592041015625,0.2549049854278564,0.1107797622680664,0.0658371448516845
2024-12-07 16:24:09.449619700,2.74461962890625,0.2417828440666198,0.2315044403076172,-0.0631976127624511
2024-12-07 16:24:09.459647700,2.754647705078125,0.1692683100700378,0.3230581283569336,-0.2370533198118209
2024-12-07 16:24:09.469675500,2.764675537109375,-0.1846069097518921,0.4333200454711914,-0.0237289667129516
2024-12-07 16:24:09.479703600,2.77470361328125,-0.4060426950454712,0.4764356613159179,0.0051812231540679
2024-12-07 16:24:09.489731300,2.7847314453125,-0.7589823603630066,0.5815696716308594,0.4712443947792053
2024-12-07 16:24:09.499759400,2.79475927734375,-0.1902476549148559,0.2855854034423828,0.0045565664768218
2024-12-07 16:24:09.509787100,2.804787109375,-0.1242347359657287,0.2291507720947265,-0.379889041185379
2024-12-07 16:24:09.519815200,2.814815185546875,-0.3915459811687469,0.0775680541992187,-0.5845623016357422
2024-12-07 16:24:09.529843000,2.824843017578125,-0.5979015231132507,-0.0256786346435546,-0.5646250247955322
2024-12-07 16:24:09.539871000,2.83487109375,-0.6000688672065735,-0.0664815902709961,-0.7507559061050415
2024-12-07 16:24:09.549899000,2.84489892578125,-0.4654004871845245,-0.1118364334106445,-0.7164502143859863
2024-12-07 16:24:09.559926800,2.8549267578125,-0.1194789111614227,-0.2476625442504882,-0.699623703956604
2024-12-07 16:24:09.569954800,2.864954833984375,-0.065652847290039,-0.1874284744262695,-0.1796156764030456
2024-12-07 16:24:09.579982600,2.874982666015625,0.122751772403717,-0.0654888153076171,0.2812391221523285
2024-12-07 16:24:09.590010600,2.8850107421875,0.5155093669891357,0.0653295516967773,0.7390307188034058
2024-12-07 16:24:09.600038400,2.895038330078125,0.8365969657897949,0.1618490219116211,1.0486449003219604
2024-12-07 16:24:09.610066400,2.90506640625,0.9216821193695068,0.2574748992919922,1.084912896156311
2024-12-07 16:24:09.620094200,2.91509423828125,0.7336971759796143,0.3331861495971679,0.9159103631973268
2024-12-07 16:24:09.630122200,2.925122314453125,0.376575618982315,0.2937726974487304,0.705639123916626
2024-12-07 16:24:09.640150300,2.935150390625,0.1163093745708465,0.2399740219116211,0.4457626938819885
2024-12-07 16:24:09.650178000,2.945177978515625,0.0728924572467804,0.1480388641357422,0.1707749962806701
2024-12-07 16:24:09.660206000,2.9552060546875,0.0877633690834045,0.0037822723388671,0.0339358448982238
2024-12-07 16:24:09.670233900,2.96523388671875,0.0453366488218307,-0.2069616317749023,0.0396274328231811
2024-12-07 16:24:09.680262000,2.975261962890625,0.0699259787797927,-0.3980531692504883,0.1210344433784484
2024-12-07 16:24:09.690289700,2.98528955078125,0.1513937711715698,-0.4884452819824219,0.2445651888847351
2024-12-07 16:24:09.700317700,2.995317626953125,0.1940347999334335,-0.4020919799804687,0.3103877902030945
2024-12-07 16:24:09.710345500,3.005345458984375,0.2219348847866058,-0.1490592956542968,0.2100036144256591
2024-12-07 16:24:09.720373200,3.015373291015625,0.1407089382410049,0.1509065628051757,0.1028153300285339
2024-12-07 16:24:09.730401300,3.0254013671875,-0.1904418468475341,0.4736642837524414,0.4544437527656555
2024-12-07 16:24:09.740429000,3.035428955078125,0.1371736079454422,0.3034992218017578,0.2441383600234985
2024-12-07 16:24:09.750456800,3.045456787109375,0.4517270028591156,0.124363899230957,-0.2259463667869568
2024-12-07 16:24:09.760484900,3.05548486328125,0.4536566436290741,0.070108413696289,-0.5760960578918457
2024-12-07 16:24:09.770512600,3.0655126953125,-0.0241867452859878,0.230783462524414,-0.528367817401886
2024-12-07 16:24:09.780540400,3.07554052734375,-0.2072018384933471,0.3859291076660156,-0.8644356727600098
2024-12-07 16:24:09.790568400,3.085568359375,0.004528172314167,0.4258785247802734,-1.123530626296997
2024-12-07 16:24:09.800596200,3.09559619140625,0.2179704159498214,0.298497200012207,-1.134069323539734
2024-12-07 16:24:09.810624000,3.1056240234375,0.15728060901165,0.2857837677001953,-0.6784912347793579
2024-12-07 16:24:09.820652000,3.115652099609375,0.5516966581344604,0.0861740112304687,-0.4882947504520416
2024-12-07 16:24:09.830679800,3.1256796875,1.3880932331085205,-0.1702518463134765,-0.8046532869338989
2024-12-07 16:24:09.840707600,3.13570751953125,1.3757238388061523,-0.158665657043457,-0.5991611480712891
2024-12-07 16:24:09.850735600,3.145735595703125,1.3377375602722168,-0.0710992813110351,-0.3966309428215027
2024-12-07 16:24:09.860763400,3.155763427734375,0.9510470032691956,-0.1370582580566406,-0.3857643008232116
2024-12-07 16:24:09.870791200,3.165791259765625,0.6830329895019531,-0.2274484634399414,-0.5530401468276978
2024-12-07 16:24:09.880819200,3.175819091796875,0.6554055213928223,-0.4709005355834961,-0.9394172430038452
2024-12-07 16:24:09.890847000,3.185846923828125,0.0079134106636047,-1.0479230880737305,-1.5803216695785522
2024-12-07 16:24:09.900875000,3.195875,-1.3022518157958984,-1.5275964736938477,-2.538482666015625
2024-12-07 16:24:09.910902800,3.20590283203125,-2.167008638381958,-1.6328811645507812,-3.7205615043640137
2024-12-07 16:24:09.920930600,3.2159306640625,-2.2704825401306152,-1.3690519332885742,-4.469442367553711
2024-12-07 16:24:09.930958600,3.22595849609375,-1.7894736528396606,-1.2860069274902344,-4.430998802185059
2024-12-07 16:24:09.940986400,3.235986328125,-0.7974859476089478,-1.736433029174805,-3.666218280792236
2024-12-07 16:24:09.951014100,3.24601416015625,0.0581083595752716,-2.5467920303344727,-2.33146333694458
2024-12-07 16:24:09.961042200,3.256042236328125,0.7942774295806885,-2.842540740966797,-0.7258458137512207
2024-12-07 16:24:09.971070000,3.266070068359375,1.2202081680297852,-2.717106819152832,1.9134448766708376
2024-12-07 16:24:09.981097700,3.27609765625,2.474952220916748,-2.348968505859375,3.597063541412353
2024-12-07 16:24:09.991125800,3.286125732421875,2.941946506500244,-1.9346933364868164,5.102709293365479
2024-12-07 16:24:10.001153500,3.296153564453125,2.7973434925079346,-1.0974979400634766,5.081284523010254
2024-12-07 16:24:10.011181300,3.306181396484375,1.8830218315124512,-0.459202766418457,4.185914993286133
2024-12-07 16:24:10.021209300,3.316209228515625,1.0605707168579102,-0.0241365432739257,2.981727123260498
2024-12-07 16:24:10.031237000,3.326237060546875,0.7294485569000244,0.280034065246582,1.8519927263259888
2024-12-07 16:24:10.041265000,3.336264892578125,0.6419218182563782,0.3870229721069336,1.0250602960586548
2024-12-07 16:24:10.051293000,3.34629296875,0.4840668439865112,0.3691663742065429,0.4126626253128052
2024-12-07 16:24:10.061320700,3.35632080078125,0.2866099774837494,0.3844280242919922,0.0113892555236816
2024-12-07 16:24:10.071348500,3.366348388671875,0.2416566312313079,0.5138835906982422,-0.2879890203475952
2024-12-07 16:24:10.081376500,3.37637646484375,0.2331101447343826,0.7191228866577148,-0.6700624823570251
2024-12-07 16:24:10.091404300,3.386404296875,0.3356003165245056,1.0098028182983398,-1.2117908000946045
2024-12-07 16:24:10.101432000,3.39643212890625,0.532300591468811,0.8700675964355469,-1.1558632850646973
2024-12-07 16:24:10.111460000,3.406460205078125,0.8776698112487793,1.092930793762207,-1.2598152160644531
2024-12-07 16:24:10.121488000,3.41648779296875,1.034691333770752,1.099020004272461,-1.2113850116729736
2024-12-07 16:24:10.131515600,3.426515625,0.914707362651825,0.9500980377197266,-1.069681167602539
2024-12-07 16:24:10.141543700,3.436543701171875,0.3758931159973144,0.7987747192382812,-1.0042481422424316
2024-12-07 16:24:10.151571500,3.446571533203125,-0.7464755177497864,0.1152334213256836,-0.4371072649955749
2024-12-07 16:24:10.161599500,3.456599609375,-1.6219768524169922,-0.2382612228393554,-0.5339807868003845
2024-12-07 16:24:10.171627300,3.466627197265625,-2.1153783798217773,-0.5899572372436523,-0.7261184453964233
2024-12-07 16:24:10.181655000,3.476655029296875,-1.994135856628418,-0.8916158676147461,-0.3382062911987304
2024-12-07 16:24:10.191683000,3.48668310546875,-1.2661724090576172,-1.0299863815307615,0.2605821490287781
2024-12-07 16:24:10.201710800,3.4967109375,0.0225981473922729,-1.087921142578125,0.6412414312362671
2024-12-07 16:24:10.211738600,3.506738525390625,1.5928237438201904,-1.081141471862793,0.7887156009674072
2024-12-07 16:24:10.221766700,3.5167666015625,2.2149813175201416,-0.6481428146362305,0.6028856635093689
2024-12-07 16:24:10.231794400,3.52679443359375,2.3853352069854736,-0.4593839645385742,0.8965646624565125
2024-12-07 16:24:10.241822200,3.536822265625,1.5041131973266602,-0.3902149200439453,1.148993730545044
2024-12-07 16:24:10.251850200,3.546850341796875,-0.1469125747680664,-0.4537420272827148,1.054620623588562
2024-12-07 16:24:10.261878000,3.5568779296875,-1.8039640188217163,-0.3902664184570312,0.7783492803573608
2024-12-07 16:24:10.271905800,3.56690576171875,-3.123985767364502,-0.1826629638671875,0.2421572208404541
2024-12-07 16:24:10.281933800,3.576933837890625,-3.118198871612549,0.019622802734375,-0.6647589206695557
2024-12-07 16:24:10.291961600,3.586961669921875,-2.176006317138672,0.1607437133789062,-1.3882906436920166
2024-12-07 16:24:10.301989400,3.5969892578125,-1.371054768562317,0.2880220413208008,-1.6371325254440308
2024-12-07 16:24:10.312017400,3.607017333984375,-1.1338146924972534,0.4050264358520508,-1.4492008686065674
2024-12-07 16:24:10.322045200,3.617045166015625,-1.3367528915405271,0.5491847991943359,-1.3600445985794067
2024-12-07 16:24:10.332073000,3.627072998046875,-1.7950823307037354,0.615696907043457,-1.5138202905654907
2024-12-07 16:24:10.342101000,3.63710107421875,-2.1116888523101807,0.5244379043579102,-1.3114657402038574
2024-12-07 16:24:10.352128800,3.647128662109375,-2.227482318878174,0.4332418441772461,-0.6353707909584045
2024-12-07 16:24:10.362156500,3.657156494140625,-2.239619493484497,0.221714973449707,0.1356934905052185
2024-12-07 16:24:10.372184600,3.6671845703125,-2.077064275741577,0.1044502258300781,0.7774052023887634
2024-12-07 16:24:10.382212400,3.67721240234375,-1.855049014091492,0.0520248413085937,1.3374576568603516
2024-12-07 16:24:10.392240000,3.687240234375,-1.3998688459396362,0.068094253540039,1.6375646591186523
2024-12-07 16:24:10.402268200,3.69726806640625,-0.7360856533050537,0.0938501358032226,1.731348991394043
2024-12-07 16:24:10.412296000,3.7072958984375,-0.0553178787231445,0.1184043884277343,1.7232812643051147
2024-12-07 16:24:10.422324000,3.717323974609375,0.5886673927307129,0.1451072692871093,1.5477540493011477
2024-12-07 16:24:10.432351700,3.727351806640625,1.1048448085784912,0.1250772476196289,1.2360644340515137
2024-12-07 16:24:10.442379500,3.737379638671875,1.5710601806640625,0.0003519058227539,0.9145251512527466
2024-12-07 16:24:10.452407600,3.747407470703125,1.498276710510254,-0.3438777923583984,1.0948586463928225
2024-12-07 16:24:10.462435300,3.757435302734375,1.4771182537078855,-0.7203340530395508,1.3032809495925903
2024-12-07 16:24:10.472463000,3.767463134765625,1.6191935539245603,-0.9375123977661132,1.611220359802246
2024-12-07 16:24:10.482491100,3.7774912109375,1.849846363067627,-0.8712348937988281,2.097592830657959
2024-12-07 16:24:10.492519000,3.787518798828125,1.889007806777954,-0.5791501998901367,2.531404733657837
2024-12-07 16:24:10.502546700,3.797546630859375,1.600862979888916,-0.0087308883666992,2.7443594932556152
2024-12-07 16:24:10.512574700,3.80757470703125,1.035472393035889,0.6439037322998047,2.792741775512696
2024-12-07 16:24:10.522602500,3.8176025390625,0.5152473449707031,1.288248062133789,2.5025746822357178
2024-12-07 16:24:10.532630300,3.82763037109375,-0.2763793468475342,1.5385150909423828,2.5261192321777344
2024-12-07 16:24:10.542658300,3.837658203125,-0.7707939147949219,1.807846546173096,1.890575885772705
2024-12-07 16:24:10.552686000,3.84768603515625,-1.1082978248596191,1.8969168663024905,1.2937136888504028
2024-12-07 16:24:10.562713900,3.8577138671875,-1.1536307334899902,1.8022284507751465,0.8856155872344971
2024-12-07 16:24:10.572742000,3.867741943359375,-1.11255145072937,1.5961780548095703,0.4950069785118103
2024-12-07 16:24:10.582769700,3.877769775390625,-1.088589429855347,1.3036985397338867,0.137639969587326
2024-12-07 16:24:10.592797400,3.88779736328125,-1.0516109466552734,0.9734363555908204,-0.4418866634368896
2024-12-07 16:24:10.602825500,3.897825439453125,-0.7163848876953125,0.6433944702148438,-0.8528032302856445
2024-12-07 16:24:10.612853200,3.907853271484375,-0.5111215114593506,0.3940353393554687,-1.427472710609436
2024-12-07 16:24:10.622881000,3.917881103515625,-0.2982707023620605,0.2582159042358398,-1.7992929220199585
2024-12-07 16:24:10.632909000,3.927908935546875,0.0576074123382568,0.1915922164916992,-2.216270685195923
2024-12-07 16:24:10.642936800,3.937936767578125,0.3423323631286621,0.020751953125,-2.6141228675842285
2024-12-07 16:24:10.652964600,3.947964599609375,0.8056235313415527,-0.0834245681762695,-2.7333288192749023
2024-12-07 16:24:10.662992600,3.95799267578125,1.0823557376861572,-0.0693321228027343,-2.6345019340515137
2024-12-07 16:24:10.673020400,3.9680205078125,1.2355327606201172,0.0626983642578125,-2.433734655380249
2024-12-07 16:24:10.683048200,3.978048095703125,1.3533644676208496,0.241215705871582,-1.6878522634506226
2024-12-07 16:24:10.693076000,3.988075927734375,1.3374745845794678,0.4906368255615234,-1.0713716745376587
2024-12-07 16:24:10.703103700,3.998103759765625,1.3851511478424072,0.7874832153320312,-0.6139248609542847
2024-12-07 16:24:10.713131500,4.008131591796875,1.4572689533233645,1.1029205322265625,-0.4313906729221344
2024-12-07 16:24:10.723159300,4.0181591796875,1.2415683269500732,1.307451248168945,-0.211283728480339
2024-12-07 16:24:10.733187300,4.028187255859375,0.8210201263427734,1.4543523788452148,-0.1304822266101837
2024-12-07 16:24:10.743215000,4.038215087890625,0.2851889133453369,1.635599136352539,-0.3978211283683777
2024-12-07 16:24:10.753243000,4.048242919921875,-0.3898215293884277,1.7761387825012207,-0.9428476095199584
2024-12-07 16:24:10.763270700,4.058270751953125,-0.9181411266326904,2.0204625129699707,-1.284142017364502
2024-12-07 16:24:10.773298400,4.06829833984375,-1.3897852897644043,2.354159355163574,-1.1190977096557615
2024-12-07 16:24:10.783326200,4.078326171875,-1.641628623008728,2.629009246826172,-0.6825383901596069
2024-12-07 16:24:10.793354000,4.08835400390625,-1.6502152681350708,2.677817344665528,-0.2206685245037078
2024-12-07 16:24:10.803382000,4.098382080078125,-1.4056549072265625,2.267059326171875,0.5387920141220093
2024-12-07 16:24:10.813409800,4.108409912109375,-0.892715334892273,1.3788976669311523,1.6779041290283203
2024-12-07 16:24:10.823437600,4.1184375,-0.0646555423736572,0.1763877868652343,2.560641288757324
2024-12-07 16:24:10.833465300,4.12846533203125,1.084727764129639,-1.3457374572753906,2.9598515033721924
2024-12-07 16:24:10.843493000,4.1384931640625,2.5348575115203857,-3.303333282470703,3.2860302925109863
2024-12-07 16:24:10.853521000,4.14852099609375,4.079395294189453,-5.707671165466309,3.675107479095459
2024-12-07 16:24:10.863548700,4.158548583984375,5.388284683227539,-7.648842811584473,2.712970733642578
2024-12-07 16:24:10.873576700,4.16857666015625,5.642716407775879,-8.782727241516113,0.609795093536377
2024-12-07 16:24:10.883604500,4.1786044921875,4.7781267166137695,-9.045310020446776,-2.134146451950073
2024-12-07 16:24:10.893632300,4.18863232421875,3.23059344291687,-7.089409828186035,-4.274686813354492
2024-12-07 16:24:10.903660000,4.198659912109375,0.6953182220458984,-4.4207868576049805,-3.373638153076172
2024-12-07 16:24:10.913687800,4.208687744140625,-0.8269461393356323,-3.0714187622070312,-2.816745519638061
2024-12-07 16:24:10.923715600,4.218715576171875,-0.6926393508911133,-1.7090396881103516,-3.060536623001098
2024-12-07 16:24:10.933743400,4.228743408203125,0.0520539283752441,-0.812739372253418,-2.4067249298095703
2024-12-07 16:24:10.943771400,4.238771484375,0.4839315414428711,0.1857995986938476,-1.2177892923355105
2024-12-07 16:24:10.953799200,4.248799072265625,0.58951735496521,1.7496910095214844,0.6495513916015625
2024-12-07 16:24:10.963827000,4.258826904296875,0.508232831954956,3.682052612304687,2.528418064117432
2024-12-07 16:24:10.973854700,4.268854736328125,0.0362629890441894,5.36638879776001,4.127834796905518
2024-12-07 16:24:10.983882500,4.278882568359375,-0.5403972864151001,6.379123687744141,5.274418830871582
2024-12-07 16:24:10.993910300,4.28891015625,-1.3950433731079102,6.455105781555176,5.325939178466797
2024-12-07 16:24:11.003938000,4.29893798828125,-2.28463101387024,5.560064315795898,4.939065933227539
2024-12-07 16:24:11.013966000,4.308966064453125,-2.669000625610352,4.127057552337647,5.00683069229126
2024-12-07 16:24:11.023993900,4.318993896484375,-2.7584285736083984,2.581053733825684,4.393820762634277
2024-12-07 16:24:11.034021600,4.329021728515625,-2.489428997039795,0.9591264724731444,3.590376377105713
2024-12-07 16:24:11.044049400,4.33904931640625,-1.8338212966918943,-0.6782474517822266,2.793480157852173
2024-12-07 16:24:11.054077200,4.3490771484375,-0.7723912000656128,-1.912935256958008,0.9636052846908568
2024-12-07 16:24:11.064105000,4.35910498046875,0.0636496543884277,-2.971968650817871,-0.7743496298789978
2024-12-07 16:24:11.074132700,4.3691328125,0.0477124452590942,-3.549708366394043,-2.437809705734253
2024-12-07 16:24:11.084160800,4.379160888671875,-0.5085334777832031,-3.425479888916016,-4.094936847686768
2024-12-07 16:24:11.094188500,4.3891884765625,-1.0184913873672483,-2.4980411529541016,-5.217873573303223
2024-12-07 16:24:11.104216300,4.39921630859375,-1.3536595106124878,-1.0352020263671875,-5.387932300567627
2024-12-07 16:24:11.114244000,4.409244140625,-1.6216585636138916,0.1359672546386718,-4.51463794708252
2024-12-07 16:24:11.124271900,4.41927197265625,-1.0921727418899536,0.5804405212402344,-2.711523532867432
2024-12-07 16:24:11.134299600,4.429299560546875,-0.5896331071853638,0.6321268081665039,-0.821585476398468
2024-12-07 16:24:11.144327400,4.439327392578125,-0.5930292010307312,0.4196720123291015,0.697886049747467
2024-12-07 16:24:11.154355500,4.44935546875,-0.6772428154945374,0.2447128295898437,1.182396411895752
2024-12-07 16:24:11.164383200,4.45938330078125,-0.942838191986084,0.2846431732177734,0.8751013875007629
2024-12-07 16:24:11.174411000,4.469410888671875,-1.3566311597824097,-0.4683809280395508,1.5311059951782229
2024-12-07 16:24:11.184438800,4.479438720703125,-1.585374355316162,-0.8900079727172852,1.6652992963790894
2024-12-07 16:24:11.194466800,4.489466796875,-1.6689436435699463,-0.2645587921142578,1.4159824848175049
2024-12-07 16:24:11.204494600,4.49949462890625,-1.71125590801239,0.2585630416870117,1.3660897016525269
2024-12-07 16:24:11.214522400,4.5095224609375,-1.6290168762207031,0.6317367553710938,1.2596848011016846
2024-12-07 16:24:11.224550400,4.51955029296875,-1.2176461219787598,0.8505315780639648,1.4122509956359863
2024-12-07 16:24:11.234578200,4.529578125,-0.5897733569145203,0.8102254867553711,1.514606475830078
2024-12-07 16:24:11.244606000,4.53960595703125,-0.0577269792556762,0.5210256576538086,1.983465313911438
2024-12-07 16:24:11.254634000,4.549634033203125,0.4167685508728027,0.2127103805541992,2.4332292079925537
2024-12-07 16:24:11.264661800,4.559661865234375,0.6868172883987427,0.0142431259155273,2.617515802383423
2024-12-07 16:24:11.274689500,4.569689453125,0.6676638126373291,-0.1319417953491211,2.311942338943481
2024-12-07 16:24:11.284717600,4.579717529296875,0.4557783007621765,-0.3022222518920898,1.5251003503799438
2024-12-07 16:24:11.294745300,4.589745361328125,0.1120005249977111,-0.4198312759399414,0.4310284256935119
2024-12-07 16:24:11.304773000,4.599773193359375,-0.3419512510299682,-0.5132608413696289,-0.5196755528450012
2024-12-07 16:24:11.314801200,4.60980126953125,-0.7540706992149353,-0.4963970184326172,-1.1527100801467896
2024-12-07 16:24:11.324829000,4.619828857421875,-1.1262787580490112,-0.2932367324829101,-1.0869125127792358
2024-12-07 16:24:11.334856700,4.629856689453125,-1.290830373764038,0.0431270599365234,-1.3898236751556396
2024-12-07 16:24:11.344884700,4.639884765625,-1.2125272750854492,0.4027738571166992,-1.570799708366394
2024-12-07 16:24:11.354912500,4.64991259765625,-1.1290923357009888,0.5707664489746094,-1.3050793409347534
2024-12-07 16:24:11.364940300,4.659940185546875,-0.8059149980545044,0.5761003494262695,-1.0731043815612793
2024-12-07 16:24:11.374968300,4.66996826171875,-0.3841930627822876,0.4476604461669922,-0.8420975804328918
2024-12-07 16:24:11.384996000,4.67999609375,-0.1579172909259796,0.2620067596435547,-0.5560603737831116
2024-12-07 16:24:11.395024100,4.690024169921875,-0.1277792602777481,0.0908546447753906,-0.1917554438114166
2024-12-07 16:24:11.405052000,4.700052001953125,-0.0628686696290969,-0.1423826217651367,0.0426765084266662
2024-12-07 16:24:11.415079700,4.71007958984375,0.161859393119812,-0.1173286437988281,-0.1629311442375183
2024-12-07 16:24:11.425107700,4.720107666015625,-0.0431736335158348,-0.0684366226196289,-0.0012459158897399
2024-12-07 16:24:11.435135500,4.730135498046875,-0.1774888485670089,-0.067418098449707,0.2294302582740783
2024-12-07 16:24:11.445163300,4.740163330078125,-0.1535710394382476,-0.1237068176269531,0.5475895404815674
2024-12-07 16:24:11.455191300,4.75019140625,-0.3014246821403503,-0.1229753494262695,1.5421205759048462
2024-12-07 16:24:11.465219000,4.760218994140625,0.4853397905826568,-0.2564420700073242,1.1581437587738037
2024-12-07 16:24:11.475246800,4.770246826171875,0.9698501825332642,-0.2319154739379882,1.079073429107666
2024-12-07 16:24:11.485274600,4.780274658203125,0.2849110662937164,0.0883350372314453,1.6593284606933594
2024-12-07 16:24:11.495302400,4.790302490234375,-0.108765609562397,0.3596277236938476,0.9907605648040771
2024-12-07 16:24:11.505330200,4.800330078125,0.0236999839544296,0.4869384765625,0.6399467587471008
2024-12-07 16:24:11.515358200,4.810358154296875,0.3094018697738647,0.5469875335693359,0.4809805750846863
2024-12-07 16:24:11.525386000,4.820385986328125,0.4996188580989837,0.3202781677246094,0.3136504292488098
2024-12-07 16:24:11.535413800,4.830413818359375,0.4847480952739715,0.1083927154541015,0.266196072101593
2024-12-07 16:24:11.545441500,4.840441650390625,0.1469060480594635,0.18310546875,0.5197114944458008
2024-12-07 16:24:11.555469300,4.85046923828125,0.6676387190818787,0.0279359817504882,-0.1512757539749145
2024-12-07 16:24:11.565497000,4.8604970703125,1.2347456216812134,-0.1078462600708007,-0.2274476587772369
2024-12-07 16:24:11.575524900,4.87052490234375,1.369738221168518,-0.0379800796508789,-0.538615345954895
2024-12-07 16:24:11.585552600,4.880552734375,0.92067950963974,0.0365543365478515,-0.9253981113433838
2024-12-07 16:24:11.595580400,4.890580322265625,0.3747318685054779,0.0823631286621093,-1.3095667362213137
2024-12-07 16:24:11.605608200,4.900608154296875,0.0633231997489929,0.0471792221069335,-1.6450356245040894
2024-12-07 16:24:11.615636000,4.910635986328125,-0.1520240604877472,-0.1450881958007812,-1.7390395402908323
2024-12-07 16:24:11.625663700,4.920663818359375,-0.3604437410831451,-0.2839841842651367,-1.4348559379577637
2024-12-07 16:24:11.635691500,4.93069140625,-0.4295345544815063,-0.3843498229980469,-0.8985666036605835
2024-12-07 16:24:11.645719300,4.94071923828125,0.0235481262207031,-0.4751720428466797,-0.3282391130924225
2024-12-07 16:24:11.655747000,4.9507470703125,0.4928276240825653,-0.4659223556518554,0.4438701868057251
2024-12-07 16:24:11.665774800,4.96077490234375,0.9893327355384828,-0.4573192596435547,1.0067743062973022
2024-12-07 16:24:11.675802600,4.970802734375,1.3951661586761477,-0.3155298233032226,1.2592523097991943
2024-12-07 16:24:11.685830400,4.980830322265625,1.1680254936218262,0.054183006286621,1.7992866039276123
2024-12-07 16:24:11.695858200,4.990858154296875,1.7135460376739502,0.0781965255737304,1.033139944076538
2024-12-07 16:24:11.705886000,5.000885986328125,1.6801377534866333,0.0638017654418945,0.2469633817672729
2024-12-07 16:24:11.715913700,5.010913818359375,1.1702195405960083,-0.1989002227783203,-0.4135805964469909
2024-12-07 16:24:11.725941500,5.02094140625,0.6754603981971741,-0.5038938522338867,-1.1755554676055908
2024-12-07 16:24:11.735969300,5.03096923828125,0.3657078146934509,-0.5785856246948242,-1.5423285961151123
2024-12-07 16:24:11.745996800,5.040996826171875,0.2471970915794372,-0.5815038681030273,-1.4788837432861328
2024-12-07 16:24:11.756024600,5.051024658203125,0.3615688681602478,-0.4364328384399414,-1.3072032928466797
2024-12-07 16:24:11.766052400,5.06105224609375,0.4558237195014953,-0.4119062423706054,-0.699390172958374
2024-12-07 16:24:11.776080100,5.071080078125,1.122013807296753,-0.3923330307006836,-0.5995773077011108
2024-12-07 16:24:11.786108000,5.08110791015625,1.6097557544708252,-0.525303840637207,-0.160142183303833
2024-12-07 16:24:11.796135700,5.0911357421875,1.704188346862793,-0.566986083984375,0.4821066856384277
2024-12-07 16:24:11.806163500,5.10116357421875,1.7144315242767334,-0.6187210083007812,0.8434154987335205
2024-12-07 16:24:11.816191200,5.111191162109375,1.3615641593933103,-0.6194972991943359,1.3234018087387085
2024-12-07 16:24:11.826219000,5.121218994140625,2.0971884727478027,-1.290090560913086,-0.2356407046318054
2024-12-07 16:24:11.836246800,5.131246826171875,1.8875443935394287,-1.6993484497070312,-2.1125380992889404
2024-12-07 16:24:11.846274600,5.141274658203125,0.6792558431625366,-2.1958932876586914,-3.325840473175049
2024-12-07 16:24:11.856302300,5.15130224609375,-0.5823900699615479,-2.192563056945801,-4.289059162139893
2024-12-07 16:24:11.866330000,5.161330078125,-0.7514438629150391,-1.7002325057983398,-4.538950443267822
2024-12-07 16:24:11.876358000,5.17135791015625,0.2235446572303772,-1.1829700469970703,-3.4553847312927246
2024-12-07 16:24:11.886385700,5.1813857421875,1.400963306427002,-0.8179941177368164,-1.398631572723389
2024-12-07 16:24:11.896413400,5.191413330078125,2.4118757247924805,-0.8350400924682617,0.6013965606689453
2024-12-07 16:24:11.906441200,5.201441162109375,2.611413955688477,-1.0281553268432615,2.3382184505462646
2024-12-07 16:24:11.916469000,5.211468994140625,2.071261405944824,-1.153824806213379,3.469517230987549
2024-12-07 16:24:11.926496800,5.221496826171875,1.3452303409576416,-1.2413606643676758,3.791780948638916
2024-12-07 16:24:11.936524500,5.231524658203125,0.9870980978012084,-1.2098712921142578,3.587325096130371
2024-12-07 16:24:11.946552300,5.24155224609375,1.0639605522155762,-0.9928035736083984,3.151679277420044
2024-12-07 16:24:11.956580400,5.251580322265625,1.2660846710205078,-0.6622304916381836,2.6258511543273926
2024-12-07 16:24:11.966608100,5.261608154296875,1.161159634590149,-0.1900691986083984,2.077779054641724
2024-12-07 16:24:11.976636000,5.271635986328125,0.684219479560852,0.4037113189697265,1.5894163846969604
2024-12-07 16:24:11.986663700,5.28166357421875,0.1345187723636627,0.941594123840332,1.0752726793289185
2024-12-07 16:24:11.996691500,5.29169140625,-0.3044397234916687,1.4329519271850586,0.6274101734161377
2024-12-07 16:24:12.006719200,5.30171923828125,-0.5413594841957092,1.8297662734985352,0.2032326459884643
2024-12-07 16:24:12.016747000,5.3117470703125,-0.719107985496521,2.079435348510742,-0.2393919229507446
2024-12-07 16:24:12.026775000,5.321775146484375,-1.0462632179260254,2.182020664215088,-0.5426640510559082
2024-12-07 16:24:12.036802800,5.331802734375,-1.3519293069839478,2.080643653869629,-0.9590668678283693
2024-12-07 16:24:12.046830600,5.34183056640625,-1.2365262508392334,1.709101676940918,-1.2399441003799438
2024-12-07 16:24:12.056858400,5.3518583984375,-0.9890851378440856,1.1492738723754885,-1.6418676376342771
2024-12-07 16:24:12.066886100,5.36188623046875,-0.8555647134780884,0.5883941650390625,-2.2559351921081543
2024-12-07 16:24:12.076914000,5.371913818359375,-1.044121026992798,-0.0155143737792968,-2.734344005584717
2024-12-07 16:24:12.086941700,5.381941650390625,-1.3070902824401855,-0.6800928115844727,-2.782895565032959
2024-12-07 16:24:12.096969700,5.3919697265625,-1.4735634326934814,-1.399190902709961,-2.282944440841675
2024-12-07 16:24:12.106997500,5.40199755859375,-1.499408483505249,-1.8330841064453125,-1.2776633501052856
2024-12-07 16:24:12.117025300,5.412025390625,-1.2201814651489258,-2.102313041687012,-0.2838395237922668
2024-12-07 16:24:12.127053000,5.422052978515625,-0.9147597551345824,-2.140436172485352,0.1801877617835998
2024-12-07 16:24:12.137080800,5.432080810546875,-0.5607978105545044,-2.1389083862304688,0.4656052589416504
2024-12-07 16:24:12.147108600,5.442108642578125,-0.3035368919372558,-2.116896629333496,0.4459326267242431
2024-12-07 16:24:12.157136400,5.452136474609375,0.0460357666015625,-2.012575149536133,0.3293695449829101
2024-12-07 16:24:12.167164400,5.462164306640625,0.3490896224975586,-1.7890939712524414,0.1505131721496582
2024-12-07 16:24:12.177192200,5.472192138671875,0.3837113380432129,-1.5572824478149414,-0.2096335589885711
2024-12-07 16:24:12.187220000,5.482219970703125,0.3182160854339599,-1.2073183059692385,-0.1973047256469726
2024-12-07 16:24:12.197247700,5.492247802734375,0.1436336040496826,-0.7826328277587891,-0.0027343034744262
2024-12-07 16:24:12.207275500,5.502275634765625,-0.1729352474212646,-0.3121290206909179,0.04614719748497
2024-12-07 16:24:12.217303300,5.51230322265625,-0.6388976573944092,0.2476081848144531,0.2153191566467285
2024-12-07 16:24:12.227331000,5.5223310546875,-1.0947041511535645,0.6437978744506836,0.5032901763916016
2024-12-07 16:24:12.237359000,5.532359130859375,-1.7587207555770874,0.9777917861938475,0.8571866750717163
2024-12-07 16:24:12.247387000,5.542386962890625,-1.99641215801239,1.177900314331055,1.239330530166626
2024-12-07 16:24:12.257414700,5.55241455078125,-2.112688064575196,1.2196722030639648,1.7148863077163696
2024-12-07 16:24:12.267442400,5.5624423828125,-2.4941658973693848,1.3521595001220703,2.13468599319458
2024-12-07 16:24:12.277470200,5.57247021484375,-2.730630874633789,1.490549087524414,2.43813157081604
2024-12-07 16:24:12.287498000,5.582498046875,-2.4723095893859863,1.5351686477661133,2.6873669624328613
2024-12-07 16:24:12.297525800,5.59252587890625,-1.9703840017318728,1.552668571472168,2.609793186187744
2024-12-07 16:24:12.307553800,5.6025537109375,-1.6620104312896729,1.509115219116211,2.4811179637908936
2024-12-07 16:24:12.317581600,5.61258154296875,-1.4316539764404297,1.3666486740112305,2.363638401031494
2024-12-07 16:24:12.327609300,5.622609375,-1.1579408645629885,1.3076486587524414,2.2107174396514893
2024-12-07 16:24:12.337637000,5.63263720703125,-0.9925386905670166,1.1986970901489258,1.98987889289856
2024-12-07 16:24:12.347665000,5.642664794921875,-0.7961025238037109,1.0735902786254885,1.7448279857635498
2024-12-07 16:24:12.357692700,5.652692626953125,-0.504220724105835,0.8980112075805664,1.4554566144943235
2024-12-07 16:24:12.367720400,5.662720458984375,-0.2406320571899414,0.703944206237793,1.064114332199097
2024-12-07 16:24:12.377748200,5.672748291015625,-0.2417590618133545,0.5143918991088867,0.7731596231460571
2024-12-07 16:24:12.387776000,5.68277587890625,-0.3622474670410156,0.4779262542724609,0.540824830532074
2024-12-07 16:24:12.397803800,5.6928037109375,-0.341275691986084,0.5186738967895508,0.3815315961837768
2024-12-07 16:24:12.407831600,5.70283154296875,-0.2392642498016357,0.5559196472167969,0.2370956540107727
2024-12-07 16:24:12.417859300,5.712859375,-0.0835983753204345,0.585383415222168,0.0170310139656066
2024-12-07 16:24:12.427887000,5.72288720703125,0.2106189727783203,0.5351152420043945,-0.2238278985023498
2024-12-07 16:24:12.437915000,5.732914794921875,0.4122533798217773,0.443002700805664,-0.3739420771598816
2024-12-07 16:24:12.447942700,5.742942626953125,0.4967195987701416,0.3995828628540039,-0.4565973877906799
2024-12-07 16:24:12.457970400,5.752970458984375,0.5263285636901855,0.3712873458862304,-0.5049380660057068
2024-12-07 16:24:12.467998200,5.762998291015625,0.6210339069366455,0.3439311981201172,-0.6712543368339539
2024-12-07 16:24:12.478026000,5.77302587890625,0.7186594009399414,0.3319234848022461,-0.9067432284355164
2024-12-07 16:24:12.488053800,5.7830537109375,0.8286385536193848,0.3639669418334961,-1.1763066053390503
2024-12-07 16:24:12.498081300,5.793081298828125,0.8367650508880615,0.3493614196777344,-1.31284761428833
2024-12-07 16:24:12.508109000,5.803109130859375,1.0160198211669922,0.2788009643554687,-1.522353172302246
2024-12-07 16:24:12.518136800,5.81313671875,1.4518961906433103,0.1285314559936523,-1.7948085069656372
2024-12-07 16:24:12.528164600,5.82316455078125,1.886223316192627,-0.1536836624145507,-2.1683263778686523
2024-12-07 16:24:12.538192400,5.8331923828125,2.2340571880340576,-0.4572782516479492,-2.426878929138184
2024-12-07 16:24:12.548220200,5.84322021484375,2.646913290023804,-0.6873006820678711,-2.399510383605957
2024-12-07 16:24:12.558248000,5.853248046875,3.339028596878052,-0.8458070755004883,-2.2796380519866943
2024-12-07 16:24:12.568275700,5.863275634765625,3.784860849380493,-0.9068202972412108,-2.356862783432007
2024-12-07 16:24:12.578303500,5.873303466796875,3.6011717319488525,-0.8908681869506836,-2.29504942893982
2024-12-07 16:24:12.588331300,5.883331298828125,3.113619565963745,-0.7976598739624023,-1.5064526796340942
2024-12-07 16:24:12.598359000,5.893359130859375,2.6708600521087646,-0.3588285446166992,-0.4049790501594543
2024-12-07 16:24:12.608386800,5.90338671875,2.866792678833008,0.2777328491210937,0.3740573525428772
2024-12-07 16:24:12.618414600,5.91341455078125,3.164013147354126,1.0447711944580078,0.5241350531578064
2024-12-07 16:24:12.628442400,5.9234423828125,2.9480984210968018,1.937607288360596,0.1972389221191406
2024-12-07 16:24:12.638470100,5.93347021484375,2.176247358322144,2.7899374961853027,-0.2566054463386535
2024-12-07 16:24:12.648498000,5.943497802734375,0.561490535736084,3.4465227127075195,-0.4712914824485779
2024-12-07 16:24:12.658525400,5.953525390625,-1.5886770486831665,3.3848743438720703,0.178228497505188
2024-12-07 16:24:12.668553200,5.96355322265625,-3.2507381439208984,2.292168617248535,1.712278127670288
2024-12-07 16:24:12.678581000,5.9735810546875,-4.062206268310547,0.600285530090332,2.857461929321289
2024-12-07 16:24:12.688608800,5.98360888671875,-3.946111917495727,-1.6044130325317385,3.682274341583252
2024-12-07 16:24:12.698636500,5.993636474609375,-2.636746406555176,-3.6690826416015625,3.597376585006714
2024-12-07 16:24:12.708664300,6.003664306640625,-1.263028860092163,-4.981870651245117,3.3945422172546387
2024-12-07 16:24:12.718692000,6.013692138671875,0.0713965892791748,-5.193593978881836,2.666853904724121
2024-12-07 16:24:12.728720000,6.023719970703125,2.0632810592651367,-4.416604042053223,1.9319111108779907
2024-12-07 16:24:12.738747600,6.03374755859375,4.17085599899292,-3.206185340881348,0.4611775875091553
2024-12-07 16:24:12.748775400,6.043775390625,5.532895088195801,-2.291900634765625,-0.9665668606758118
2024-12-07 16:24:12.758803200,6.05380322265625,5.740805625915527,-2.204235076904297,-1.247523546218872
2024-12-07 16:24:12.768831000,6.0638310546875,5.017257690429688,-1.5042781829833984,-2.452159881591797
2024-12-07 16:24:12.778858800,6.073858642578125,2.0819053649902344,-0.0140390396118164,-3.177309989929199
2024-12-07 16:24:12.788886500,6.083886474609375,-1.3852026462554932,1.6849918365478516,-2.6859002113342285
2024-12-07 16:24:12.798914300,6.093914306640625,-3.412205696105957,2.777057647705078,-2.0155367851257324
2024-12-07 16:24:12.808942000,6.103942138671875,-5.0405988693237305,3.60318660736084,-1.238593578338623
2024-12-07 16:24:12.818969900,6.113969970703125,-6.29126501083374,3.8447928428649902,-0.135444164276123
2024-12-07 16:24:12.828997400,6.123997314453125,-6.596683502197266,3.134603977203369,1.4923171997070312
2024-12-07 16:24:12.839025200,6.134025146484375,-6.059529781341553,1.6365108489990234,2.452200174331665
2024-12-07 16:24:12.849053000,6.144052978515625,-4.774514198303223,0.4168043136596679,3.337747097015381
2024-12-07 16:24:12.859080700,6.154080810546875,-3.555635452270508,0.1372289657592773,3.1012327671051025
2024-12-07 16:24:12.869108500,6.1641083984375,-2.0241427421569824,-0.3703107833862304,2.973139524459839
2024-12-07 16:24:12.879136300,6.17413623046875,-0.3385185003280639,-0.3375530242919922,2.129396438598633
2024-12-07 16:24:12.889164000,6.1841640625,1.1576259136199951,-0.1317834854125976,0.8981812000274658
2024-12-07 16:24:12.899191800,6.19419189453125,1.7901358604431152,-0.2946844100952148,-0.1930055618286132
2024-12-07 16:24:12.909219600,6.204219482421875,1.5307793617248535,-0.6191844940185547,-1.1948140859603882
2024-12-07 16:24:12.919247400,6.214247314453125,0.8704192638397217,-0.8253898620605469,-2.1559271812438965
2024-12-07 16:24:12.929275100,6.224275146484375,0.0604064464569091,-0.920485496520996,-2.7787039279937744
2024-12-07 16:24:12.939303000,6.234302978515625,-0.8902225494384766,-0.9034824371337892,-2.6354739665985107
2024-12-07 16:24:12.949330700,6.24433056640625,-1.8713253736495967,-0.6411037445068359,-1.7802059650421145
2024-12-07 16:24:12.959358500,6.2543583984375,-2.3488502502441406,-0.5027341842651367,-1.1689319610595703
2024-12-07 16:24:12.969386200,6.26438623046875,-2.482311487197876,-0.5075130462646484,-0.4917597770690918
2024-12-07 16:24:12.979414000,6.2744140625,-2.3870439529418945,-0.4888467788696289,0.2694894075393677
2024-12-07 16:24:12.989441500,6.284441650390625,-2.291297197341919,-0.3466691970825195,0.5724817514419556
2024-12-07 16:24:12.999469300,6.29446923828125,-2.0895450115203857,-0.0616922378540039,0.6361871957778931
2024-12-07 16:24:13.009497000,6.3044970703125,-1.6058430671691897,0.1363077163696289,0.4467941522598266
2024-12-07 16:24:13.019524900,6.31452490234375,-1.1157432794570925,0.1139984130859375,-0.0488492250442504
2024-12-07 16:24:13.029552600,6.324552734375,-0.9418568015098572,0.1015157699584961,-0.3970059156417846
2024-12-07 16:24:13.039580400,6.334580322265625,-0.6852768659591675,-0.0204782485961914,-0.4233410358428955
2024-12-07 16:24:13.049608200,6.344608154296875,-0.337388813495636,-0.2422895431518554,-0.2533756494522095
2024-12-07 16:24:13.059636000,6.354635986328125,0.0821031928062439,-0.3538703918457031,-0.0474724769592285
2024-12-07 16:24:13.069663700,6.364663818359375,0.376800000667572,-0.3222618103027344,0.1404285430908203
2024-12-07 16:24:13.079691500,6.37469140625,0.5228443741798401,-0.190892219543457,0.2715035676956177
2024-12-07 16:24:13.089719300,6.38471923828125,0.4971462488174438,-0.0174026489257812,0.263679027557373
2024-12-07 16:24:13.099747000,6.3947470703125,0.338752269744873,0.1407670974731445,0.0832616090774536
2024-12-07 16:24:13.109774800,6.40477490234375,0.0540907382965087,0.2216796875,-0.0163390636444091
2024-12-07 16:24:13.119802600,6.414802734375,-0.2835592627525329,0.2206630706787109,-0.0989331007003784
2024-12-07 16:24:13.129830400,6.424830322265625,-0.3853516280651092,0.1761188507080078,-0.3140679597854614
2024-12-07 16:24:13.139858200,6.434858154296875,-0.3991624712944031,0.1597194671630859,-0.4857475161552429
2024-12-07 16:24:13.149886000,6.444885986328125,-0.5395684838294983,0.2001104354858398,-0.6952099204063416
2024-12-07 16:24:13.159913500,6.45491357421875,-0.6376951336860657,0.2447032928466797,-0.7894638776779175
2024-12-07 16:24:13.169941200,6.464941162109375,-0.6494626402854919,0.2171583175659179,-0.7923460006713867
2024-12-07 16:24:13.179969000,6.474968994140625,-0.536483645439148,0.0842533111572265,-0.7943931818008423
2024-12-07 16:24:13.189996800,6.484996826171875,-0.315400093793869,-0.0008172988891601,-0.8127591013908386
2024-12-07 16:24:13.200024600,6.495024658203125,-0.1220321953296661,-0.081094741821289,-0.7647262811660767
2024-12-07 16:24:13.210052400,6.50505224609375,-0.0195785462856292,-0.0943498611450195,-0.7109888195991516
2024-12-07 16:24:13.220080000,6.515080078125,-0.0836875438690185,-0.1169672012329101,-0.6168815493583679
2024-12-07 16:24:13.230108000,6.52510791015625,-0.1274463832378387,-0.0580530166625976,-0.4721524119377136
2024-12-07 16:24:13.240135700,6.5351357421875,-0.0183239579200744,0.0438423156738281,-0.4064257144927978
2024-12-07 16:24:13.250163500,6.54516357421875,0.0545078217983245,0.1645765304565429,-0.1143608093261718
2024-12-07 16:24:13.260191200,6.555191162109375,-0.0267312675714492,0.3465909957885742,0.1415978670120239
2024-12-07 16:24:13.270219000,6.565218994140625,-0.0322462618350982,0.4226646423339844,0.3143993616104126
2024-12-07 16:24:13.280246500,6.57524658203125,-0.0195323377847671,0.4646949768066406,0.5330536365509033
2024-12-07 16:24:13.290274300,6.5852744140625,0.10769984126091,0.4393606185913086,0.6590064764022827
2024-12-07 16:24:13.300302000,6.595302001953125,0.3785091638565063,0.4374275207519531,0.8633413314819336
2024-12-07 16:24:13.310329900,6.605329833984375,0.6677237749099731,0.4206018447875976,0.6538616418838501
2024-12-07 16:24:13.320357400,6.615357421875,0.979942798614502,0.2359170913696289,0.2885373830795288
2024-12-07 16:24:13.330385200,6.62538525390625,0.7892900109291077,0.1080789566040039,-0.3433916568756103
2024-12-07 16:24:13.340413000,6.635412841796875,0.0244497694075107,0.1664552688598632,-0.7645881175994873
2024-12-07 16:24:13.350440400,6.6454404296875,0.16609987616539,0.1197118759155273,-0.9145275354385376
2024-12-07 16:24:13.360468200,6.65546826171875,0.5830948948860168,-0.0274209976196289,-0.7478782534599304
2024-12-07 16:24:13.370496000,6.66549609375,0.7062019109725952,-0.0598993301391601,-0.6966332197189331
2024-12-07 16:24:13.380523800,6.675523681640625,0.6397973299026489,-0.1925296783447265,-0.3762035369873047
2024-12-07 16:24:13.390551300,6.68555126953125,0.4528234004974365,-0.4923324584960937,0.0956723690032959
2024-12-07 16:24:13.400579000,6.6955791015625,0.6141385436058044,-0.6009578704833984,0.2344436645507812
2024-12-07 16:24:13.410606800,6.70560693359375,0.873085618019104,-0.5856008529663086,0.1608854532241821
2024-12-07 16:24:13.420634600,6.715634521484375,1.0945643186569214,-0.5226421356201172,0.1398663520812988
2024-12-07 16:24:13.430662100,6.725662109375,1.0542526245117188,-0.292729377746582,0.0185315608978271
2024-12-07 16:24:13.440690000,6.73568994140625,0.8925921320915222,-0.0489721298217773,-0.4072120189666748
2024-12-07 16:24:13.450717700,6.7457177734375,0.7954273223876953,0.1468725204467773,-0.8865303993225098
2024-12-07 16:24:13.460745500,6.755745361328125,0.5696002244949341,0.1564598083496093,-1.1142055988311768
2024-12-07 16:24:13.470773000,6.76577294921875,0.2213515043258667,-0.1299095153808593,-1.3551552295684814
2024-12-07 16:24:13.480800800,6.77580078125,-0.0945097208023071,-0.1855974197387695,-1.682624101638794
2024-12-07 16:24:13.490828500,6.78582861328125,-0.4696998596191406,-0.0302543640136718,-1.3736557960510254
2024-12-07 16:24:13.500856000,6.79585595703125,-0.5221109390258789,0.0675811767578125,-1.008832931518555
2024-12-07 16:24:13.510883800,6.8058837890625,-0.4715799689292907,0.1175785064697265,-0.3871742486953735
2024-12-07 16:24:13.520911600,6.81591162109375,-0.4475718140602112,0.1323070526123047,0.9317986965179444
2024-12-07 16:24:13.530939400,6.825939453125,0.6122642159461975,-0.2126760482788086,1.1467845439910889
2024-12-07 16:24:13.540967000,6.835966796875,1.3070003986358645,-0.3757867813110351,1.9005967378616333
2024-12-07 16:24:13.550994700,6.84599462890625,1.7187336683273315,-0.4777612686157226,2.554044485092163
2024-12-07 16:24:13.561022500,6.8560224609375,2.011953115463257,-0.4381465911865234,2.591015815734864
2024-12-07 16:24:13.571050200,6.86605029296875,2.0511152744293213,-0.3527345657348633,1.864293932914734
2024-12-07 16:24:13.581077800,6.876077880859375,1.771286129951477,-0.5892677307128906,0.7931876182556152
2024-12-07 16:24:13.591105500,6.88610546875,1.4821786880493164,-1.180633544921875,-0.1761629581451416
2024-12-07 16:24:13.601133300,6.89613330078125,1.4521743059158323,-1.9634113311767576,-1.4099305868148804
2024-12-07 16:24:13.611161000,6.9061611328125,1.5836328268051147,-2.6099395751953125,-3.013849973678589
2024-12-07 16:24:13.621188600,6.916188720703125,1.18577241897583,-3.1512508392333984,-4.455691337585449
2024-12-07 16:24:13.631216400,6.92621630859375,0.3592240810394287,-3.2335357666015625,-5.4239912033081055
2024-12-07 16:24:13.641244200,6.936244140625,-0.132258653640747,-3.2365121841430664,-5.7191667556762695
2024-12-07 16:24:13.651272000,6.94627197265625,0.179090678691864,-3.2661523818969727,-5.68040943145752
2024-12-07 16:24:13.661299500,6.956299560546875,0.9851465225219728,-3.263716697692871,-5.355437278747559
2024-12-07 16:24:13.671327200,6.9663271484375,1.318289041519165,-3.1704635620117188,-4.454744338989258
2024-12-07 16:24:13.681355000,6.97635498046875,0.984757661819458,-2.905517578125,-2.659018278121948
2024-12-07 16:24:13.691382800,6.9863828125,0.3826469182968139,-2.2100868225097656,0.0980567932128906
2024-12-07 16:24:13.701410600,6.99641064453125,1.0996760129928589,-1.483684539794922,1.992614269256592
2024-12-07 16:24:13.711438300,7.006438232421875,2.06341552734375,-0.7262172698974609,3.5194811820983887
2024-12-07 16:24:13.721465900,7.0164658203125,2.48909878730774,-0.1053857803344726,4.49333381652832
2024-12-07 16:24:13.731493600,7.02649365234375,2.3775782585144043,0.3833904266357422,4.603617668151856
2024-12-07 16:24:13.741521400,7.036521484375,2.085463523864746,0.7689371109008789,3.845273971557617
2024-12-07 16:24:13.751549200,7.046549072265625,1.7536225318908691,1.0707130432128906,2.8691930770874023
2024-12-07 16:24:13.761577000,7.056576904296875,1.5795750617980957,1.3128395080566406,2.056692361831665
2024-12-07 16:24:13.771604700,7.066604736328125,1.4384546279907229,1.6052274703979492,1.3188917636871338
2024-12-07 16:24:13.781632500,7.076632568359375,1.4489895105361938,1.866427421569824,0.5242218971252441
2024-12-07 16:24:13.791660300,7.086660400390625,1.366352081298828,2.04870080947876,-0.2525162696838379
2024-12-07 16:24:13.801688000,7.09668798828125,1.090580940246582,2.2187371253967285,-0.9520267248153688
2024-12-07 16:24:13.811715800,7.1067158203125,0.7536627650260925,2.2378592491149902,-1.4953198432922363
2024-12-07 16:24:13.821743600,7.11674365234375,0.06782066822052,1.862098693847656,-1.6252708435058594
2024-12-07 16:24:13.831771400,7.126771484375,-0.5364803075790405,1.3455734252929688,-1.642552375793457
2024-12-07 16:24:13.841799200,7.136799072265625,-1.0753166675567627,0.8559789657592773,-1.5082108974456787
2024-12-07 16:24:13.851827000,7.146826904296875,-1.7306339740753174,0.0969934463500976,-0.7207001447677612
2024-12-07 16:24:13.861854700,7.156854736328125,-2.020779609680176,-0.4772214889526367,-0.2413456439971923
2024-12-07 16:24:13.871882500,7.166882568359375,-2.0507900714874268,-1.167428970336914,0.4785339832305908
2024-12-07 16:24:13.881910300,7.17691015625,-2.263543605804444,-1.7342548370361328,1.2254149913787842
2024-12-07 16:24:13.891937800,7.186937744140625,-2.535372734069824,-2.2143983840942383,1.2823407649993896
2024-12-07 16:24:13.901965600,7.196965576171875,-2.4828665256500244,-2.482650756835937,1.8464624881744385
2024-12-07 16:24:13.911993300,7.206993408203125,-3.160229206085205,-2.6058645248413086,2.039469242095948
2024-12-07 16:24:13.922021000,7.217021240234375,-3.9193177223205566,-2.4929628372192383,1.4395776987075806
2024-12-07 16:24:13.932049000,7.227048828125,-3.1976547241210938,-2.2213058471679688,1.2162878513336182
2024-12-07 16:24:13.942076700,7.23707666015625,-2.057387590408325,-1.8750600814819336,1.16519033908844
2024-12-07 16:24:13.952104400,7.2471044921875,-1.4922370910644531,-1.4717350006103516,0.2814894914627075
2024-12-07 16:24:13.962132200,7.25713232421875,-0.7072911262512207,-1.243189811706543,-0.8227923512458801
2024-12-07 16:24:13.972160000,7.267159912109375,0.3908936977386474,-1.168304443359375,-1.6227943897247314
2024-12-07 16:24:13.982187800,7.277187744140625,1.2890360355377195,-1.0920400619506836,-2.237781286239624
2024-12-07 16:24:13.992215600,7.287215576171875,1.8167846202850344,-1.0837173461914062,-2.2710165977478027
2024-12-07 16:24:14.002243300,7.297243408203125,2.080522298812866,-0.8443183898925781,-1.780070185661316
2024-12-07 16:24:14.012271000,7.30727099609375,1.7561864852905271,-0.2938919067382812,-1.2513645887374878
2024-12-07 16:24:14.022299000,7.317298828125,0.7843413352966309,0.1239643096923828,-0.6004123687744141
2024-12-07 16:24:14.032326700,7.32732666015625,-0.6028609275817871,0.4560537338256836,-0.0612825155258178
2024-12-07 16:24:14.042354400,7.3373544921875,-1.4107353687286377,0.7160377502441406,0.2593531608581543
2024-12-07 16:24:14.052382000,7.3473818359375,-2.1382155418396,0.7820558547973633,0.83765709400177
2024-12-07 16:24:14.062409700,7.35740966796875,-2.7300591468811035,0.9909448623657228,0.9513999223709106
2024-12-07 16:24:14.072437500,7.3674375,-2.7984890937805176,1.2194938659667969,0.945363998413086
2024-12-07 16:24:14.082465300,7.37746533203125,-2.6607956886291504,1.319533348083496,1.1301369667053225
2024-12-07 16:24:14.092493000,7.3874931640625,-2.329371213912964,1.3236017227172852,1.3861594200134275
2024-12-07 16:24:14.102520600,7.3975205078125,-2.145416021347046,1.3890256881713867,1.5266942977905271
2024-12-07 16:24:14.112548400,7.40754833984375,-1.3062188625335691,1.6806893348693848,1.5872516632080078
2024-12-07 16:24:14.122576100,7.417576171875,-1.6512556076049805,1.499039649963379,2.105304956436157
2024-12-07 16:24:14.132604000,7.42760400390625,-1.6999973058700562,1.51483154296875,1.629421949386597
2024-12-07 16:24:14.142631400,7.43763134765625,-1.903592824935913,1.4327592849731443,1.7046539783477783
2024-12-07 16:24:14.152659200,7.4476591796875,-1.6103301048278809,1.5639710426330566,1.4861012697219849
2024-12-07 16:24:14.162687000,7.45768701171875,-1.7690199613571167,1.2146673202514648,2.374518156051636
2024-12-07 16:24:14.172714800,7.46771484375,-1.3329870700836182,1.1784324645996094,2.329331874847412
2024-12-07 16:24:14.182742300,7.4777421875,-0.6509613990783691,1.2001523971557615,2.0473179817199707
2024-12-07 16:24:14.192770000,7.48777001953125,-0.2055001258850097,1.1730499267578125,1.879142999649048
2024-12-07 16:24:14.202797800,7.4977978515625,0.0117137432098388,1.1683015823364258,1.4054012298583984
2024-12-07 16:24:14.212825300,7.507825439453125,0.1264700889587402,1.0764217376708984,1.033402681350708
2024-12-07 16:24:14.222853000,7.51785302734375,0.3299846649169922,0.940587043762207,0.801387369632721
2024-12-07 16:24:14.232881000,7.527880859375,0.5578930377960205,0.8269262313842773,0.6796395182609558
2024-12-07 16:24:14.242908700,7.53790869140625,0.6755430698394775,0.7682437896728516,0.6800891160964966
2024-12-07 16:24:14.252936200,7.547936279296875,0.5599696636199951,0.8457698822021484,0.5914179086685181
2024-12-07 16:24:14.262964000,7.5579638671875,0.4005875587463379,0.959803581237793,0.4340461492538452
2024-12-07 16:24:14.272991700,7.56799169921875,0.3426597118377685,0.9580402374267578,0.270893931388855
2024-12-07 16:24:14.283019500,7.57801953125,0.4296803474426269,0.8697729110717773,-0.0542235374450683
2024-12-07 16:24:14.293047000,7.588047119140625,0.4754195213317871,0.7052278518676758,-0.4520645141601562
2024-12-07 16:24:14.303074800,7.59807470703125,0.5244064331054688,0.4799613952636719,-0.7754392623901367
2024-12-07 16:24:14.313102600,7.6081025390625,0.6771459579467773,0.2329750061035156,-1.0115976333618164
2024-12-07 16:24:14.323130400,7.61813037109375,0.9469351768493652,-0.0260353088378906,-1.2928094863891602
2024-12-07 16:24:14.333158000,7.628157958984375,1.2361958026885986,-0.4073371887207031,-1.6089576482772827
2024-12-07 16:24:14.343185700,7.638185546875,1.5861444473266602,-0.8776063919067383,-2.007249593734741
2024-12-07 16:24:14.353213400,7.64821337890625,1.807389736175537,-1.2222013473510742,-2.375281810760498
2024-12-07 16:24:14.363241000,7.658240966796875,1.788068771362305,-1.4080171585083008,-2.5564098358154297
2024-12-07 16:24:14.373268700,7.668268798828125,1.6141459941864014,-1.2777557373046875,-2.397019147872925
2024-12-07 16:24:14.383296500,7.678296630859375,1.4784307479858398,-0.9419050216674804,-2.4107985496521
2024-12-07 16:24:14.393324300,7.68832421875,1.3974721431732178,-0.6108427047729492,-2.523402214050293
2024-12-07 16:24:14.403351800,7.698351806640625,1.2389333248138428,-0.2844495773315429,-2.73174786567688
2024-12-07 16:24:14.413379600,7.708379638671875,1.0655388832092283,0.0226116180419921,-2.6081223487854004
2024-12-07 16:24:14.423407400,7.718407470703125,0.9015216827392578,0.3384790420532226,-2.395930290222168
2024-12-07 16:24:14.433435100,7.72843505859375,0.8295085430145264,0.7443428039550781,-2.088900566101074
2024-12-07 16:24:14.443462700,7.738462646484375,0.7706716060638428,1.2357215881347656,-1.804668664932251
2024-12-07 16:24:14.453490400,7.748490478515625,0.7949628829956055,1.7321953773498535,-1.6110256910324097
2024-12-07 16:24:14.463518200,7.758518310546875,0.9371628761291504,2.234181404113769,-1.2318153381347656
2024-12-07 16:24:14.473546000,7.7685458984375,1.2255280017852783,2.655470371246338,-0.6546915173530579
2024-12-07 16:24:14.483573500,7.778573486328125,1.4068033695220947,2.828674793243408,0.1207257509231567
2024-12-07 16:24:14.493601300,7.788601318359375,1.2866623401641846,2.79256010055542,0.7990487813949585
2024-12-07 16:24:14.503629000,7.798629150390625,0.801163911819458,2.4954614639282227,1.3930258750915527
2024-12-07 16:24:14.513656800,7.80865673828125,0.2204060554504394,1.8234553337097168,2.0494818687438965
2024-12-07 16:24:14.523684400,7.818684326171875,-0.2069027423858642,0.6862554550170898,2.6728005409240723
2024-12-07 16:24:14.533712100,7.828712158203125,-0.3782317638397217,-0.9205150604248048,3.2095742225646973
2024-12-07 16:24:14.543740000,7.838739990234375,-0.250108003616333,-3.1066293716430664,3.979285478591919
2024-12-07 16:24:14.553767400,7.848767333984375,-0.0556972026824951,-5.503897666931152,4.854404449462891
2024-12-07 16:24:14.563795200,7.858795166015625,0.2742996215820312,-6.985323905944824,4.615478515625
2024-12-07 16:24:14.573823000,7.868822998046875,0.7761702537536621,-7.074871063232422,3.1502509117126465
2024-12-07 16:24:14.583850800,7.878850830078125,2.081726789474488,-6.749394416809082,1.7677419185638428
2024-12-07 16:24:14.593878300,7.888878173828125,2.9824821949005127,-5.697284698486328,0.9658994674682616
2024-12-07 16:24:14.603906000,7.898906005859375,3.872316360473633,-5.1500749588012695,0.2788499593734741
2024-12-07 16:24:14.613933800,7.908933837890625,4.598048210144043,-4.762843132019043,-0.6738051176071167
2024-12-07 16:24:14.623961600,7.918961669921875,3.604623556137085,-3.2574052810668945,-2.0722384452819824
2024-12-07 16:24:14.633989000,7.928989013671875,1.2518014907836914,-0.513331413269043,-2.3620269298553467
2024-12-07 16:24:14.644017000,7.939016845703125,-0.9031556844711304,2.560737609863281,-1.5933979749679563
2024-12-07 16:24:14.654044700,7.949044677734375,-2.692238569259644,5.261989116668701,-0.4414284229278564
2024-12-07 16:24:14.664072400,7.959072509765625,-4.150171279907227,7.314142227172852,0.802759051322937
2024-12-07 16:24:14.674100000,7.969099853515625,-6.080327033996582,8.456695556640625,1.633420467376709
2024-12-07 16:24:14.684127700,7.979127685546875,-7.784441471099853,8.097685813903809,2.528006792068481
2024-12-07 16:24:14.694155500,7.989155517578125,-7.344206809997559,6.49845027923584,3.449702262878418
2024-12-07 16:24:14.704183300,7.999183349609375,-5.315911293029785,3.719342231750488,4.35411262512207
2024-12-07 16:24:14.714210800,8.0092109375,-3.37857723236084,0.8521757125854492,4.887087821960449
2024-12-07 16:24:14.724238600,8.019238525390625,-1.702940821647644,-1.197342872619629,4.126059055328369
2024-12-07 16:24:14.734266400,8.029266357421875,-0.1460999250411987,-2.530935287475586,2.3720052242279053
2024-12-07 16:24:14.744294000,8.0392939453125,1.251489281654358,-3.7455520629882817,0.4884874820709228
2024-12-07 16:24:14.754321700,8.04932177734375,1.7209396362304688,-4.122427940368652,-1.99800705909729
2024-12-07 16:24:14.764349400,8.059349365234375,1.3577969074249268,-3.741316795349121,-3.9695889949798575
2024-12-07 16:24:14.774377200,8.069377197265625,0.921884298324585,-3.174941062927246,-5.687654495239258
2024-12-07 16:24:14.784404700,8.07940478515625,0.9512956142425536,-2.714517593383789,-6.086073875427246
2024-12-07 16:24:14.794432500,8.0894326171875,0.2978789806365967,-1.8321733474731443,-5.059405326843262
2024-12-07 16:24:14.804460300,8.099460205078126,-0.8684422373771667,-0.4054021835327148,-4.221851825714111
2024-12-07 16:24:14.814488000,8.109488037109376,-2.003390073776245,0.4849691390991211,-1.9625743627548216
2024-12-07 16:24:14.824515600,8.119515625,-4.0674543380737305,0.8769741058349609,0.3665101528167724
2024-12-07 16:24:14.834543400,8.12954345703125,-2.820188283920288,1.4392719268798828,1.1879029273986816
2024-12-07 16:24:14.844571100,8.139571044921874,-0.9237453937530518,1.2758169174194336,1.9264817237854004
2024-12-07 16:24:14.854599000,8.149598876953124,-0.7959722280502319,1.074869155883789,2.4822452068328857
2024-12-07 16:24:14.864626400,8.15962646484375,-1.0952246189117432,0.893951416015625,2.297338962554932
2024-12-07 16:24:14.874654200,8.169654296875,-1.1241934299468994,0.6431493759155273,1.4701071977615356
2024-12-07 16:24:14.884682000,8.179681884765625,-1.088510036468506,0.3052873611450195,0.2595579624176025
2024-12-07 16:24:14.894709500,8.18970947265625,-0.9417238235473632,-0.0843420028686523,-0.6319339275360107
2024-12-07 16:24:14.904737300,8.1997373046875,-0.7705014944076538,-0.5055303573608398,-1.2625799179077148
2024-12-07 16:24:14.914765000,8.20976513671875,-0.6573317050933838,-0.8570041656494141,-1.609466791152954
2024-12-07 16:24:14.924792800,8.219792724609375,-0.7184369564056396,-1.061915397644043,-1.684425711631775
2024-12-07 16:24:14.934820400,8.2298203125,-0.7440399527549744,-0.9865198135375975,-1.4528547525405884
2024-12-07 16:24:14.944848100,8.23984814453125,-0.7098138332366943,-0.8519105911254883,-0.6322464942932129
2024-12-07 16:24:14.954876000,8.2498759765625,-0.4620160758495331,-0.5542898178100586,0.0634586811065673
2024-12-07 16:24:14.964903700,8.259903564453126,-0.0171341300010681,-0.1855401992797851,0.5840961933135986
2024-12-07 16:24:14.974931200,8.26993115234375,0.2220838665962219,0.0956287384033203,1.0263046026229858
2024-12-07 16:24:14.984959000,8.279958984375,0.3603797554969787,0.2552976608276367,1.238783597946167
2024-12-07 16:24:14.994986800,8.28998681640625,0.4317753314971924,0.3460369110107422,1.033954381942749
2024-12-07 16:24:15.005014500,8.3000146484375,0.3504515290260315,0.4017887115478515,0.4954234361648559
2024-12-07 16:24:15.015042000,8.3100419921875,0.1083593964576721,0.3752698898315429,0.0934876203536987
2024-12-07 16:24:15.025069800,8.32006982421875,-0.097718060016632,0.3719234466552734,-0.2529206275939941
2024-12-07 16:24:15.035097600,8.33009765625,-0.3679550290107727,0.3010368347167969,-0.486281156539917
2024-12-07 16:24:15.045125400,8.34012548828125,-0.7206577658653259,0.2250747680664062,-0.7255405187606812
2024-12-07 16:24:15.055153000,8.35015283203125,-0.977450966835022,0.120574951171875,-0.7828254699707031
2024-12-07 16:24:15.065180700,8.3601806640625,-1.1180322170257568,-0.0264606475830078,-0.7484766244888306
2024-12-07 16:24:15.075208400,8.37020849609375,-1.155447483062744,-0.0628376007080078,-0.6696877479553223
2024-12-07 16:24:15.085236000,8.380236083984375,-1.1875338554382324,0.0494699478149414,-0.5038443803787231
2024-12-07 16:24:15.095263700,8.390263671875,-1.0987567901611328,0.1333322525024414,-0.2943788766860962
2024-12-07 16:24:15.105291500,8.40029150390625,-0.9560627341270448,0.2217359542846679,-0.0152285099029541
2024-12-07 16:24:15.115319300,8.4103193359375,-0.595774233341217,0.0857563018798828,-0.1460232734680175
2024-12-07 16:24:15.125346800,8.420346923828125,-0.4792033731937408,-0.0497102737426757,0.1308858394622802
2024-12-07 16:24:15.135374600,8.43037451171875,-0.4306392073631286,-0.0467023849487304,0.3008993864059448
2024-12-07 16:24:15.145402400,8.44040234375,-0.403038889169693,-0.0107431411743164,0.3877623081207275
2024-12-07 16:24:15.155430100,8.45043017578125,-0.4103306531906128,0.0200119018554687,0.678830623626709
2024-12-07 16:24:15.165457700,8.460457763671876,-0.385461688041687,0.0167884826660156,0.9722042083740234
2024-12-07 16:24:15.175485400,8.4704853515625,-0.2795998752117157,0.0368404388427734,1.2811821699142456
2024-12-07 16:24:15.185513200,8.48051318359375,-0.1640440821647644,0.1037759780883789,1.4564485549926758
2024-12-07 16:24:15.195540700,8.490540771484374,0.0039014220237731,0.231694221496582,1.3736379146575928
2024-12-07 16:24:15.205568500,8.500568603515624,0.2032946944236755,0.2676248550415039,1.0910828113555908
2024-12-07 16:24:15.215596000,8.510595947265625,0.265211284160614,0.2024240493774414,0.729763388633728
2024-12-07 16:24:15.225623800,8.520623779296875,0.1285489052534103,0.0940265655517578,0.4062744379043579
2024-12-07 16:24:15.235651300,8.5306513671875,-0.051573421806097,-0.0237236022949218,0.1935278177261352
2024-12-07 16:24:15.245679000,8.54067919921875,-0.1356329917907714,-0.1123733520507812,0.0588361024856567
2024-12-07 16:24:15.255707000,8.550706787109375,-0.1325682401657104,-0.1288976669311523,0.0024951696395874
2024-12-07 16:24:15.265734400,8.560734375,-0.1046357005834579,-0.1211795806884765,0.010277509689331
2024-12-07 16:24:15.275762200,8.57076220703125,-0.0719405189156532,-0.103738784790039,0.0670709609985351
2024-12-07 16:24:15.285789700,8.580789794921875,-0.0543560124933719,-0.033757209777832,0.1099239587783813
2024-12-07 16:24:15.295817500,8.5908173828125,-0.0997671112418174,0.0742197036743164,0.1575411558151245
2024-12-07 16:24:15.305845000,8.600844970703125,-0.1312547922134399,0.2152366638183593,0.1903696060180664
2024-12-07 16:24:15.315872800,8.610872802734375,-0.1146194115281105,0.3413553237915039,0.2462315559387207
2024-12-07 16:24:15.325900300,8.620900390625,0.0617463812232017,0.3235187530517578,0.2147080898284912
2024-12-07 16:24:15.335928000,8.630927978515626,0.3294947147369385,0.1619338989257812,0.109642744064331
2024-12-07 16:24:15.345955600,8.64095556640625,0.4622385501861572,-0.0284185409545898,-0.1166410446166992
2024-12-07 16:24:15.355983400,8.6509833984375,0.336124986410141,-0.0944080352783203,-0.4485048055648803
2024-12-07 16:24:15.366011000,8.661010986328124,0.2495441734790802,-0.0599317550659179,-0.7934151887893677
2024-12-07 16:24:15.376038700,8.67103857421875,0.3270937800407409,0.0175142288208007,-0.9837652444839478
2024-12-07 16:24:15.386066200,8.681066162109374,0.4576331377029419,0.1572122573852539,-1.157221794128418
2024-12-07 16:24:15.396094000,8.691093994140624,0.3970111012458801,0.3204011917114258,-0.8380517959594727
2024-12-07 16:24:15.406121700,8.701121826171875,0.4815928339958191,0.2767677307128906,-0.8245986700057983
2024-12-07 16:24:15.416149200,8.711149169921875,0.8957831859588623,-0.1959028244018554,-0.9458897113800048
2024-12-07 16:24:15.426177000,8.721177001953125,1.0377600193023682,-0.5474252700805664,-0.4189879894256592
2024-12-07 16:24:15.436204500,8.73120458984375,1.1162848472595217,-0.5974969863891602,-0.2664209604263305
2024-12-07 16:24:15.446232300,8.741232421875,1.256007194519043,-0.5472517013549805,-0.5242220163345337
2024-12-07 16:24:15.456259800,8.751259765625,1.195059299468994,-0.2637653350830078,-0.3050631284713745
2024-12-07 16:24:15.466287600,8.76128759765625,1.5756208896636963,-0.4161062240600586,-1.243119716644287
2024-12-07 16:24:15.476315100,8.771315185546875,1.5329129695892334,-0.236520767211914,-1.492711067199707
2024-12-07 16:24:15.486343000,8.781343017578125,1.078417420387268,-0.0853643417358398,-1.066127896308899
2024-12-07 16:24:15.496370400,8.791370361328125,0.848453164100647,0.1128377914428711,-0.9059160947799684
2024-12-07 16:24:15.506398200,8.801398193359375,0.8405889868736267,0.0233078002929687,-0.8688734769821167
2024-12-07 16:24:15.516425700,8.81142578125,0.98806631565094,-0.3287019729614258,-0.445427656173706
2024-12-07 16:24:15.526453500,8.82145361328125,1.0688974857330322,-0.7622556686401367,-0.0804955959320068
2024-12-07 16:24:15.536481000,8.83148095703125,1.2240149974822998,-1.1569490432739258,-0.3348026275634765
2024-12-07 16:24:15.546508800,8.8415087890625,1.1810734272003174,-1.4306697845458984,-0.8169896602630615
2024-12-07 16:24:15.556536600,8.85153662109375,0.7801119685173035,-1.4966516494750977,-1.6804232597351074
2024-12-07 16:24:15.566564400,8.861564453125,-0.0271653532981872,-1.4026384353637695,-2.343025922775269
2024-12-07 16:24:15.576592000,8.871591796875,-0.952225148677826,-1.1733102798461914,-2.6859052181243896
2024-12-07 16:24:15.586619600,8.88161962890625,-1.590640425682068,-0.9526824951171876,-2.7583372592926025
2024-12-07 16:24:15.596647400,8.8916474609375,-1.89097797870636,-0.9125003814697266,-2.5696983337402344
2024-12-07 16:24:15.606675200,8.90167529296875,-2.2054150104522705,-0.9665098190307616,-1.4231107234954834
2024-12-07 16:24:15.616702700,8.91170263671875,-2.268617868423462,-1.078230857849121,0.2907834053039551
2024-12-07 16:24:15.626730500,8.92173046875,-1.4551661014556885,-1.176680564880371,1.8365707397460933
2024-12-07 16:24:15.636758300,8.93175830078125,-0.2657567262649536,-1.123673439025879,3.1539969444274902
2024-12-07 16:24:15.646786000,8.9417861328125,0.660307765007019,-1.0636730194091797,4.342087745666504
2024-12-07 16:24:15.656813600,8.9518134765625,1.3270089626312256,-0.6432428359985352,4.457510948181152
2024-12-07 16:24:15.666841300,8.96184130859375,1.555098533630371,-0.2262001037597656,3.9128284454345694
2024-12-07 16:24:15.676869000,8.971869140625,1.2892295122146606,0.0969867706298828,2.706827163696289
2024-12-07 16:24:15.686896600,8.981896728515625,0.8302414417266846,0.3174667358398437,1.4755754470825195
2024-12-07 16:24:15.696924400,8.99192431640625,0.6156072616577148,0.4981317520141601,0.3995692729949951
2024-12-07 16:24:15.706952200,9.0019521484375,0.5451092720031738,0.6493206024169922,-0.3987176418304443
2024-12-07 16:24:15.716980000,9.01197998046875,0.5195162296295166,0.8194408416748047,-0.917022943496704
2024-12-07 16:24:15.727007500,9.022007568359374,0.4833386540412903,0.9466428756713868,-1.225933313369751
2024-12-07 16:24:15.737035300,9.03203515625,0.4133221507072449,1.126787185668945,-1.272520899772644
2024-12-07 16:24:15.747063000,9.04206298828125,0.4967404007911682,1.1249189376831057,-1.4567887783050537
2024-12-07 16:24:15.757090800,9.0520908203125,0.7676616311073303,0.8100605010986328,-2.014267444610596
2024-12-07 16:24:15.767118300,9.062118408203125,0.7089744806289673,0.5422420501708984,-1.9136663675308228
2024-12-07 16:24:15.777146000,9.07214599609375,0.585732638835907,0.4303550720214844,-1.3745070695877075
2024-12-07 16:24:15.787174000,9.082173828125,0.6849807500839233,0.3159341812133789,-1.039555549621582
2024-12-07 16:24:15.797201700,9.09220166015625,0.8514695763587952,0.0890998840332031,-0.3641917705535888
2024-12-07 16:24:15.807229200,9.102229248046877,1.0361617803573608,-0.111978530883789,0.1086277961730957
2024-12-07 16:24:15.817257000,9.112257080078123,1.1088706254959106,-0.282968521118164,0.4163057804107666
2024-12-07 16:24:15.827284700,9.12228466796875,1.1933649778366089,-0.4578371047973633,0.6390409469604492
2024-12-07 16:24:15.837312500,9.1323125,1.3366613388061523,-0.5940008163452148,0.7663328647613525
2024-12-07 16:24:15.847340000,9.142340087890624,1.4800496101379397,-0.7111072540283203,0.7972226142883301
2024-12-07 16:24:15.857367800,9.152367919921875,1.6225942373275757,-0.857304573059082,0.6788830757141113
2024-12-07 16:24:15.867395600,9.1623955078125,1.7729921340942385,-0.9754152297973632,0.4692051410675049
2024-12-07 16:24:15.877423000,9.172423095703126,1.9254627227783203,-1.0322608947753906,0.2645378112792969
2024-12-07 16:24:15.887451000,9.182450927734376,1.9931912422180176,-1.0427312850952148,0.0506107807159423
2024-12-07 16:24:15.897478700,9.192478759765624,1.9990146160125728,-0.964381217956543,-0.2294671535491943
2024-12-07 16:24:15.907506400,9.20250634765625,1.731894612312317,-0.797938346862793,-0.5606280565261841
2024-12-07 16:24:15.917534000,9.212533935546874,1.1604353189468384,-0.5533781051635742,-0.960198163986206
2024-12-07 16:24:15.927561700,9.222561767578124,0.4878632426261902,-0.335728645324707,-1.4869064092636108
2024-12-07 16:24:15.937589500,9.232589599609376,-0.1297658681869506,-0.2018413543701172,-1.826865673065185
2024-12-07 16:24:15.947617300,9.2426171875,-0.5038881897926331,-0.203104019165039,-2.305020570755005
2024-12-07 16:24:15.957644800,9.252644775390625,-0.9520182013511658,-0.2618885040283203,-2.4391088485717773
2024-12-07 16:24:15.967672600,9.262672607421877,-1.3522800207138062,-0.4729080200195312,-1.90972638130188
2024-12-07 16:24:15.977700400,9.272700439453123,-1.4928297996520996,-0.7211084365844727,-1.3582313060760498
2024-12-07 16:24:15.987728100,9.28272802734375,-1.4336497783660889,-0.9047355651855468,-1.1349601745605469
2024-12-07 16:24:15.997755600,9.292755615234377,-1.209336280822754,-0.8904561996459961,0.0856685638427734
2024-12-07 16:24:16.007783400,9.302783447265623,-0.2560153007507324,-0.6191749572753906,1.235440373420715
2024-12-07 16:24:16.017811200,9.312811279296875,-0.6084287166595459,-0.7432937622070312,2.9779202938079834
2024-12-07 16:24:16.027838700,9.322838623046875,-0.5099425315856934,-0.3297414779663086,3.298231601715088
2024-12-07 16:24:16.037866500,9.332866455078126,-0.6511770486831665,-0.1047573089599609,3.4432830810546875
2024-12-07 16:24:16.047894300,9.342894287109376,-0.9751421213150024,-0.0431938171386718,3.042288303375244
2024-12-07 16:24:16.057922000,9.352922119140626,-1.0141913890838623,-0.0969743728637695,2.465841770172119
2024-12-07 16:24:16.067949600,9.362949462890626,-0.8268306255340576,-0.2330713272094726,1.5988227128982544
2024-12-07 16:24:16.077977300,9.372977294921874,-0.6670608520507812,-0.4413785934448242,0.4301725625991821
2024-12-07 16:24:16.088005000,9.383005126953124,-0.5374362468719482,-0.8018274307250977,-0.6686793565750122
2024-12-07 16:24:16.098032600,9.39303271484375,-0.4466736316680908,-1.155491828918457,-1.3918750286102295
2024-12-07 16:24:16.108060400,9.403060302734374,-0.3202521800994873,-1.3641481399536133,-1.6558101177215576
2024-12-07 16:24:16.118088000,9.413087890625,-0.393531322479248,-1.1661386489868164,-1.2529150247573853
2024-12-07 16:24:16.128115700,9.42311572265625,-0.6761391162872314,-0.4631319046020508,-0.3969078660011291
2024-12-07 16:24:16.138143500,9.4331435546875,-1.166619062423706,0.4903144836425781,0.3180055618286133
2024-12-07 16:24:16.148171000,9.4431708984375,-1.5376404523849487,1.264230728149414,1.0170412063598633
2024-12-07 16:24:16.158198800,9.45319873046875,-1.7538522481918335,1.8456206321716309,1.47839617729187
2024-12-07 16:24:16.168226300,9.463226318359377,-1.6289678812026978,2.182816505432129,1.7262715101242063
2024-12-07 16:24:16.178254000,9.473254150390623,-2.10823392868042,2.0908799171447754,2.119622707366944
2024-12-07 16:24:16.188281600,9.483281494140623,-1.9411743879318235,2.14069938659668,1.7029170989990234
2024-12-07 16:24:16.198309400,9.493309326171875,-1.7393033504486084,1.888621807098389,1.584388017654419
2024-12-07 16:24:16.208337000,9.5033369140625,-1.460360765457153,1.5550270080566406,1.4631953239440918
2024-12-07 16:24:16.218364700,9.51336474609375,-1.1919748783111572,1.259119987487793,1.2356791496276855
2024-12-07 16:24:16.228392200,9.52339208984375,-0.9168875217437744,1.0145263671875,1.1041218042373655
2024-12-07 16:24:16.238420000,9.533419921875,-0.6756198406219482,0.8106756210327148,1.120795965194702
2024-12-07 16:24:16.248447500,9.543447509765626,-0.5170392990112305,0.7137746810913086,1.126455783843994
2024-12-07 16:24:16.258475300,9.553475341796876,-0.4804301261901855,0.6704845428466797,1.1206936836242676
2024-12-07 16:24:16.268502800,9.563502685546876,-0.5417368412017822,0.6567115783691406,0.9982985854148864
2024-12-07 16:24:16.278530600,9.573530517578124,-0.6052267551422119,0.7105369567871094,0.807006299495697
2024-12-07 16:24:16.288558300,9.583558349609374,-0.6604564189910889,0.8273162841796875,0.5851662755012512
2024-12-07 16:24:16.298585900,9.5935859375,-0.539539098739624,0.916339874267578,0.4852415919303894
2024-12-07 16:24:16.308613600,9.603613525390625,-0.3142209053039551,0.8821315765380859,0.5821896195411682
2024-12-07 16:24:16.318641200,9.61364111328125,-0.0517604351043701,0.7056455612182617,0.7065346837043762
2024-12-07 16:24:16.328669000,9.6236689453125,0.3556544780731201,0.4197425842285156,0.7846663594245911
2024-12-07 16:24:16.338696400,9.633696533203125,0.6229650974273682,0.1238422393798828,0.6630973815917969
2024-12-07 16:24:16.348724200,9.64372412109375,0.8007247447967529,-0.12554931640625,0.4097427725791931
2024-12-07 16:24:16.358751700,9.653751708984377,1.0016965866088867,-0.2813968658447265,0.0362108945846557
2024-12-07 16:24:16.368779500,9.663779541015623,1.1052429676055908,-0.3058490753173828,-0.4445595741271972
2024-12-07 16:24:16.378807000,9.67380712890625,1.1733191013336182,-0.2276201248168945,-0.7515041828155518
2024-12-07 16:24:16.388834800,9.683834716796875,1.201796293258667,-0.0226554870605468,-0.9167962074279784
2024-12-07 16:24:16.398862300,9.6938623046875,1.1690013408660889,0.2140321731567382,-0.987914741039276
2024-12-07 16:24:16.408890000,9.70389013671875,1.111396551132202,0.3830423355102539,-1.003514289855957
2024-12-07 16:24:16.418917600,9.713917724609376,1.0367231369018557,0.4090652465820312,-1.0024737119674685
2024-12-07 16:24:16.428945400,9.7239453125,1.094925880432129,0.3074283599853515,-1.061184644699097
2024-12-07 16:24:16.438973200,9.73397314453125,1.199673414230347,0.0451431274414062,-1.121243953704834
2024-12-07 16:24:16.449000700,9.744000732421876,1.3782503604888916,-0.2105636596679687,-1.215733289718628
2024-12-07 16:24:16.459028500,9.754028564453124,1.5135188102722168,-0.3648405075073242,-1.410885214805603
2024-12-07 16:24:16.469056000,9.764055908203124,1.4552359580993652,-0.4757499694824219,-1.637991189956665
2024-12-07 16:24:16.479083800,9.774083740234374,1.2409682273864746,-0.4813718795776367,-1.8330190181732176
2024-12-07 16:24:16.489111300,9.784111328125,0.8377814292907715,-0.3434591293334961,-1.8224565982818604
2024-12-07 16:24:16.499139000,9.79413916015625,0.5207304954528809,-0.1668176651000976,-1.521754264831543
2024-12-07 16:24:16.509166600,9.80416650390625,0.5341665744781494,-0.0183229446411132,-1.157614827156067
2024-12-07 16:24:16.519194400,9.8141943359375,0.780705451965332,0.0631752014160156,-0.6611739993095398
2024-12-07 16:24:16.529222000,9.824221923828125,1.1584620475769043,0.0579538345336914,-0.3991945385932922
2024-12-07 16:24:16.539249700,9.834249755859377,1.5466241836547852,0.0181407928466796,-0.3112277388572693
2024-12-07 16:24:16.549277200,9.844277099609377,1.7530903816223145,-0.0231761932373046,-0.3595691919326782
2024-12-07 16:24:16.559305000,9.854304931640623,1.6077892780303955,0.0348167419433593,-0.6391010880470276
2024-12-07 16:24:16.569332500,9.86433251953125,1.1387240886688232,0.2313766479492187,-0.9896031022071838
2024-12-07 16:24:16.579360300,9.8743603515625,0.7837636470794678,0.75811767578125,-1.0468295812606812
2024-12-07 16:24:16.589388000,9.884387939453124,0.7486362457275391,1.4469938278198242,-0.9758933782577516
2024-12-07 16:24:16.599415600,9.89441552734375,0.746633768081665,1.9773898124694824,-0.6849364638328552
2024-12-07 16:24:16.609443300,9.904443359375,0.6983687877655029,2.27828598022461,-0.3400148749351501
2024-12-07 16:24:16.619470800,9.914470947265626,0.7008240222930908,2.3314218521118164,0.1102787256240844
2024-12-07 16:24:16.629498600,9.92449853515625,0.7305757999420166,2.084800243377685,0.6451345682144165
2024-12-07 16:24:16.639526100,9.934526123046876,0.6255056858062744,1.5771160125732422,1.2004657983779907
2024-12-07 16:24:16.649554000,9.944553955078124,0.3768219947814941,0.8470659255981445,1.7184398174285889
2024-12-07 16:24:16.659581400,9.95458154296875,0.1387794017791748,-0.114232063293457,2.1953258514404297
2024-12-07 16:24:16.669609200,9.964609130859374,0.044877290725708,-1.206010818481445,2.6575474739074707
2024-12-07 16:24:16.679636700,9.97463671875,-0.0588915348052978,-2.208247184753418,2.9993603229522705
2024-12-07 16:24:16.689664500,9.98466455078125,-0.031036376953125,-2.949112892150879,3.1982734203338623
2024-12-07 16:24:16.699692000,9.994692138671876,0.4634146690368652,-3.3101806640625,3.1211557388305664
2024-12-07 16:24:16.709719800,10.0047197265625,1.0670628547668457,-3.4277143478393555,2.708186149597168
2024-12-07 16:24:16.719747300,10.014747314453125,1.3728735446929932,-3.551912307739258,1.8829607963562007
2024-12-07 16:24:16.729775000,10.024775146484377,1.641445875167847,-3.5302696228027344,0.6176046133041382
2024-12-07 16:24:16.739802600,10.034802734375,1.4353358745574951,-2.961576461791992,-0.8491085171699524
2024-12-07 16:24:16.749830400,10.044830322265623,1.1949787139892578,-2.1180429458618164,-2.4294004440307617
2024-12-07 16:24:16.759858200,10.054858154296875,1.062267780303955,-1.2808523178100586,-3.3614797592163086
2024-12-07 16:24:16.769885700,10.0648857421875,0.4757194519042969,-0.3203744888305664,-3.294032096862793
2024-12-07 16:24:16.779913500,10.07491357421875,-0.1159296035766601,0.8009119033813477,-2.603271245956421
2024-12-07 16:24:16.789941000,10.08494091796875,-0.6357784271240234,1.924053192138672,-1.539962649345398
2024-12-07 16:24:16.799968800,10.09496875,-1.185823678970337,2.690216064453125,-0.0745695829391479
2024-12-07 16:24:16.809996300,10.104996337890626,-1.757271647453308,3.152472972869873,1.1729694604873655
2024-12-07 16:24:16.820024000,10.115024169921876,-1.8900588750839231,2.9722256660461426,2.1856119632720947
2024-12-07 16:24:16.830051600,10.125051513671876,-1.234496831893921,2.236405849456787,2.486500740051269
2024-12-07 16:24:16.840079400,10.135079345703126,-0.7373123168945312,1.342935562133789,2.121650218963623
2024-12-07 16:24:16.850107100,10.145107177734374,-0.8895120620727539,0.579676628112793,1.756777048110962
2024-12-07 16:24:16.860134700,10.155134765625,-1.6784980297088623,0.1197690963745117,1.312587022781372
2024-12-07 16:24:16.870162400,10.165162353515624,-2.5335917472839355,-0.2413654327392578,0.8165732622146606
2024-12-07 16:24:16.880190200,10.175190185546874,-2.876802921295166,-0.6705827713012695,0.6170346736907959
2024-12-07 16:24:16.890218000,10.185218017578125,-2.5868539810180664,-0.8960981369018555,0.2775380611419678
2024-12-07 16:24:16.900245500,10.19524560546875,-1.7984015941619873,-1.0149059295654297,-0.016947865486145
2024-12-07 16:24:16.910273300,10.205273193359377,-0.8250901699066162,-0.9661598205566406,-0.2714414596557617
2024-12-07 16:24:16.920301000,10.215301025390623,-0.0565836429595947,-0.8415546417236328,-0.5357306003570557
2024-12-07 16:24:16.930328800,10.225328857421877,0.2127240896224975,-0.7223129272460938,-0.8920832872390747
2024-12-07 16:24:16.940356400,10.2353564453125,0.1277343034744262,-0.5222644805908203,-1.1348116397857666
2024-12-07 16:24:16.950384000,10.245384033203123,-0.1289488077163696,-0.1888952255249023,-1.2207591533660889
2024-12-07 16:24:16.960412000,10.255411865234375,-0.456803023815155,0.2108058929443359,-0.9042937755584716
2024-12-07 16:24:16.970439700,10.265439697265624,-0.781407356262207,0.5094137191772461,-0.2496263980865478
2024-12-07 16:24:16.980467200,10.27546728515625,-0.9896490573883056,0.5921697616577148,0.5517374277114868
2024-12-07 16:24:16.990495000,10.285494873046876,-1.016685962677002,0.4778947830200195,1.2479718923568726
2024-12-07 16:24:17.000522800,10.295522705078126,-0.8990519046783447,0.2811088562011719,1.5418721437454224
2024-12-07 16:24:17.010550500,10.305550537109376,-0.7630997896194458,0.1687908172607422,1.615046501159668
2024-12-07 16:24:17.020578000,10.315578125,-0.6341311931610107,0.173776626586914,1.40969979763031
2024-12-07 16:24:17.030605800,10.325605712890624,-0.4795188903808594,0.1861228942871093,0.837593674659729
2024-12-07 16:24:17.040633600,10.335633544921874,-0.4432187080383301,0.082489013671875,0.0909771919250488
2024-12-07 16:24:17.050661000,10.3456611328125,-0.5573164224624634,-0.1068277359008789,-0.6993457078933716
2024-12-07 16:24:17.060689000,10.35568896484375,-0.6480120420455933,-0.3615932464599609,-1.3291460275650024
2024-12-07 16:24:17.070716700,10.365716552734376,-0.8914622068405151,-0.5327777862548828,-1.742898941040039
2024-12-07 16:24:17.080744400,10.375744384765625,-1.457506537437439,-0.5483665466308594,-1.6623557806015017
2024-12-07 16:24:17.090772000,10.38577197265625,-1.5535813570022583,-0.4133176803588867,-1.5147454738616943
2024-12-07 16:24:17.100799700,10.3957998046875,-1.4126416444778442,-0.276097297668457,-1.1148667335510254
2024-12-07 16:24:17.110827500,10.40582763671875,-1.01608145236969,-0.147125244140625,-0.4766691923141479
2024-12-07 16:24:17.120855300,10.415855224609375,-0.5204871296882629,0.0153560638427734,0.0176657438278198
2024-12-07 16:24:17.130882800,10.4258828125,-0.144932746887207,0.0766983032226562,0.4762561321258545
2024-12-07 16:24:17.140910600,10.43591064453125,0.12297123670578,0.127324104309082,0.7681094408035278
2024-12-07 16:24:17.150938000,10.445938232421875,0.3061804175376892,0.238743782043457,0.8309602737426758
2024-12-07 16:24:17.160966000,10.4559658203125,0.4752734303474426,0.3058681488037109,0.723738431930542
2024-12-07 16:24:17.170993400,10.465993408203126,0.5246366262435913,0.381387710571289,0.6141704320907593
2024-12-07 16:24:17.181021200,10.476021240234376,0.4937896132469177,0.3840560913085937,0.4488602876663208
2024-12-07 16:24:17.191049000,10.486049072265626,0.5555856227874756,0.295083999633789,0.1756647825241089
2024-12-07 16:24:17.201076500,10.496076416015624,0.5380123853683472,0.1673116683959961,-0.0378131866455078
2024-12-07 16:24:17.211104300,10.506104248046874,0.5228562951087952,0.0200786590576171,-0.2533168792724609
2024-12-07 16:24:17.221131800,10.5161318359375,0.610325276851654,-0.1942682266235351,-0.4991999864578247
2024-12-07 16:24:17.231159600,10.52615966796875,0.6136667728424072,-0.3178167343139648,-0.7746840715408325
2024-12-07 16:24:17.241187000,10.53618701171875,0.5725935101509094,-0.3648653030395508,-0.959382951259613
2024-12-07 16:24:17.251214800,10.54621484375,0.5594939589500427,-0.3497180938720703,-1.124237060546875
2024-12-07 16:24:17.261242400,10.556242431640625,0.4698963761329651,-0.3010272979736328,-1.1396851539611816
2024-12-07 16:24:17.271270100,10.566270263671877,0.2332407236099243,-0.2283802032470703,-1.1542057991027832
2024-12-07 16:24:17.281297700,10.576297607421877,-0.1150155961513519,-0.1267375946044922,-1.0137025117874146
2024-12-07 16:24:17.291325400,10.586325439453123,-0.190458595752716,0.003941535949707,-0.8856824636459351
2024-12-07 16:24:17.301353000,10.59635302734375,-0.0613726675510406,0.0535573959350585,-0.6225849390029907
2024-12-07 16:24:17.311380700,10.606380615234375,0.1364860534667968,0.0410642623901367,-0.3312070369720459
2024-12-07 16:24:17.321408300,10.616408203125,0.2344176173210144,-0.0098552703857421,-0.0513361692428588
2024-12-07 16:24:17.331436000,10.62643603515625,0.1367616951465606,-0.0466632843017578,0.0590031147003173
2024-12-07 16:24:17.341463800,10.6364638671875,-0.0357700586318969,-0.0215721130371093,0.1436898708343505
2024-12-07 16:24:17.351491300,10.6464912109375,-0.115314245223999,0.0177383422851562,0.0369030237197876
2024-12-07 16:24:17.361519000,10.65651904296875,-0.1651711612939834,0.219482421875,0.132094144821167
2024-12-07 16:24:17.371546600,10.666546630859376,-0.1271630674600601,0.391946792602539,0.2934820652008056
2024-12-07 16:24:17.381574400,10.676574462890626,0.0321252644062042,0.5542058944702148,0.4057632684707641
2024-12-07 16:24:17.391602000,10.686601806640626,0.2493713796138763,0.6104640960693359,0.6300963163375854
2024-12-07 16:24:17.401629700,10.696629638671874,0.4030700325965881,0.5893583297729492,0.6544662714004517
2024-12-07 16:24:17.411657200,10.7066572265625,0.2787427306175232,0.3477201461791992,0.7130087614059448
2024-12-07 16:24:17.421685000,10.71668505859375,0.1648769527673721,0.1631326675415039,0.585862398147583
2024-12-07 16:24:17.431712500,10.72671240234375,-0.0224596932530403,0.0356464385986328,0.5038039684295654
2024-12-07 16:24:17.441740300,10.736740234375,-0.0157905593514442,-0.0490388870239257,0.4296907186508178
2024-12-07 16:24:17.451767800,10.746767822265625,0.1822583079338073,-0.0671424865722656,0.4211268424987793
2024-12-07 16:24:17.461795600,10.756795654296877,0.421697050333023,-0.1863861083984375,0.2849987745285034
2024-12-07 16:24:17.471823000,10.766822998046877,0.6797648668289185,-0.1576566696166992,0.0145339965820312
2024-12-07 16:24:17.481851000,10.776850830078123,0.7129198908805847,-0.019413948059082,-0.0408552885055542
2024-12-07 16:24:17.491878700,10.786878662109377,0.7486006021499634,0.070530891418457,-0.1966222524642944
2024-12-07 16:24:17.501906200,10.79690625,0.7882601618766785,0.1076774597167968,-0.3657902479171753
2024-12-07 16:24:17.511934000,10.806933837890623,0.7224891185760498,0.0207071304321289,-0.5139713287353516
2024-12-07 16:24:17.521961500,10.81696142578125,0.6090534925460815,-0.1135797500610351,-0.6075174808502197
2024-12-07 16:24:17.531989200,10.8269892578125,0.467479407787323,-0.1469554901123047,-0.6750649213790894
2024-12-07 16:24:17.542016800,10.837016845703126,0.3685546517372131,-0.1417064666748047,-0.792966365814209
2024-12-07 16:24:17.552044500,10.84704443359375,0.2491214573383331,-0.1313133239746093,-0.8416388034820557
2024-12-07 16:24:17.562072000,10.857072021484376,0.0761426985263824,-0.0774993896484375,-0.835291862487793
2024-12-07 16:24:17.572099800,10.867099853515626,-0.0434690415859222,-0.04254150390625,-0.7694898843765259
2024-12-07 16:24:17.582127400,10.87712744140625,-0.0032679438591003,-0.0454978942871093,-0.5964069366455078
2024-12-07 16:24:17.592155100,10.887155029296874,0.1828126311302185,-0.0673398971557617,-0.4458942413330078
2024-12-07 16:24:17.602182700,10.8971826171875,0.3956092000007629,-0.0844287872314453,-0.2282664775848388
2024-12-07 16:24:17.612210400,10.90721044921875,0.6251978874206543,-0.0779323577880859,-0.102410078048706
2024-12-07 16:24:17.622238000,10.917238037109374,0.7511011958122253,0.0092334747314453,-0.0164051055908203
2024-12-07 16:24:17.632265700,10.927265625,0.8780165314674377,0.1385374069213867,-0.0757818222045898
2024-12-07 16:24:17.642293200,10.937293212890625,0.8852053284645081,0.2718029022216797,-0.1603627204895019
2024-12-07 16:24:17.652321000,10.947321044921877,0.7450075149536133,0.4131288528442383,-0.0101006031036376
2024-12-07 16:24:17.662348800,10.957348876953125,0.8973923921585083,0.3810567855834961,-0.4705262184143066
2024-12-07 16:24:17.672376300,10.967376220703123,0.9202711582183838,0.2241506576538086,-0.3971203565597534
2024-12-07 16:24:17.682404000,10.977404052734377,1.064031004905701,0.0612955093383789,-0.5918750762939453
2024-12-07 16:24:17.692431600,10.987431640625,1.190869927406311,-0.1025238037109375,-0.952417254447937
2024-12-07 16:24:17.702459400,10.99745947265625,1.3341264724731443,-0.2715559005737304,-1.2992103099822998
2024-12-07 16:24:17.712487000,11.00748681640625,1.5074243545532229,-0.417027473449707,-1.670109748840332
2024-12-07 16:24:17.722514700,11.0175146484375,1.5617663860321045,-0.5672693252563477,-2.049363613128662
2024-12-07 16:24:17.732542200,11.027542236328124,1.5341811180114746,-0.6883745193481445,-2.349668264389038
2024-12-07 16:24:17.742570000,11.037570068359376,1.5094317197799685,-0.7943439483642578,-2.4604415893554688
2024-12-07 16:24:17.752597500,11.047597412109376,1.5901753902435305,-0.9470062255859376,-2.382134914398194
2024-12-07 16:24:17.762625300,11.057625244140626,1.71723210811615,-1.1699590682983398,-2.134613275527954
2024-12-07 16:24:17.772652800,11.06765283203125,1.7995550632476809,-1.525191307067871,-1.771484136581421
2024-12-07 16:24:17.782680600,11.0776806640625,1.81398606300354,-2.030817985534668,-1.8322391510009768
2024-12-07 16:24:17.792708000,11.0877080078125,1.3933537006378174,-2.436208724975586,-2.2678284645080566
2024-12-07 16:24:17.802735900,11.09773583984375,0.3899625539779663,-2.549557685852051,-2.833251476287842
2024-12-07 16:24:17.812763600,11.107763671875,-0.97918701171875,-2.138528823852539,-3.220064401626587
2024-12-07 16:24:17.822791200,11.117791259765625,-1.4266505241394043,-1.9942026138305664,-3.09096908569336
2024-12-07 16:24:17.832819000,11.12781884765625,-0.7256138324737549,-2.0687122344970703,-2.6896140575408936
2024-12-07 16:24:17.842846500,11.137846435546876,0.0639305114746093,-2.232007026672364,-1.9566631317138672
2024-12-07 16:24:17.852874200,11.147874267578125,0.2525510787963867,-2.092203140258789,-0.5158582925796509
2024-12-07 16:24:17.862901800,11.15790185546875,0.2583127021789551,-1.6433210372924805,1.5794730186462402
2024-12-07 16:24:17.872929500,11.167929443359377,0.6328895688056946,-0.9256715774536132,3.011742353439331
2024-12-07 16:24:17.882957000,11.17795703125,0.7834639549255371,-0.250152587890625,4.380099296569824
2024-12-07 16:24:17.892984800,11.18798486328125,0.6721876859664917,0.2828493118286133,5.13608455657959
2024-12-07 16:24:17.903012400,11.198012451171875,0.8026273250579834,0.5973014831542969,5.014437198638916
2024-12-07 16:24:17.913040100,11.2080400390625,0.93173086643219,0.7086553573608398,4.178370475769043
2024-12-07 16:24:17.923067600,11.218067626953124,0.8386235237121582,0.6323881149291992,3.043185949325561
2024-12-07 16:24:17.933095400,11.228095458984376,0.9578961133956908,0.5414743423461914,2.004114389419556
2024-12-07 16:24:17.943123000,11.238123046875,1.245887041091919,0.4413347244262695,1.054703950881958
2024-12-07 16:24:17.953150700,11.248150634765626,1.520582914352417,0.3757381439208984,0.1318295001983642
2024-12-07 16:24:17.963178500,11.258178466796876,1.6667969226837158,0.3881034851074219,-0.6518846750259399
2024-12-07 16:24:17.973206000,11.2682060546875,1.6891770362854004,0.5216302871704102,-1.3467377424240112
2024-12-07 16:24:17.983233800,11.27823388671875,1.6596670150756836,0.6232357025146484,-1.8319244384765625
2024-12-07 16:24:17.993261300,11.28826123046875,1.6308550834655762,0.6976785659790039,-2.2022624015808105
2024-12-07 16:24:18.003289000,11.2982890625,1.4550179243087769,0.706608772277832,-2.327878475189209
2024-12-07 16:24:18.013316600,11.308316650390625,1.1760544776916504,0.5923023223876953,-2.1615536212921143
2024-12-07 16:24:18.023344400,11.318344482421876,0.8429825305938721,0.4595661163330078,-1.727712869644165
2024-12-07 16:24:18.033372000,11.328371826171876,0.4135002195835113,0.3267707824707031,-0.989368200302124
2024-12-07 16:24:18.043399700,11.338399658203125,-0.0592692196369171,0.1881046295166015,-0.1303033828735351
2024-12-07 16:24:18.053427200,11.34842724609375,-0.7454400062561035,0.0950784683227539,0.7088251113891602
2024-12-07 16:24:18.063455000,11.358455078125,-1.0922281742095947,0.3485469818115234,0.8898007869720459
2024-12-07 16:24:18.073482500,11.368482421875,-2.170787811279297,-0.2902545928955078,2.245384693145752
2024-12-07 16:24:18.083510300,11.37851025390625,-2.475841522216797,-0.3768444061279297,2.3296563625335693
2024-12-07 16:24:18.093537800,11.388537841796875,-2.3842177391052246,-0.494516372680664,2.4373083114624023
2024-12-07 16:24:18.103565600,11.398565673828124,-1.8181626796722408,-0.6477270126342773,2.376033306121826
2024-12-07 16:24:18.113593300,11.40859326171875,-0.8366665840148926,-0.6879796981811523,1.955857753753662
2024-12-07 16:24:18.123620900,11.418620849609376,-0.7075107097625732,-1.3006830215454102,2.662465810775757
2024-12-07 16:24:18.133648600,11.428648681640626,-0.5511757135391235,-1.1004562377929688,2.1175074577331543
2024-12-07 16:24:18.143676200,11.43867626953125,-0.5758051872253418,-0.8141336441040039,1.0427409410476685
2024-12-07 16:24:18.153704000,11.448703857421876,-0.3144986629486084,-0.6934375762939453,0.2350468635559082
2024-12-07 16:24:18.163731500,11.4587314453125,-0.0438456535339355,-0.6799192428588867,-0.3016948699951172
2024-12-07 16:24:18.173759200,11.46875927734375,0.0536196231842041,-0.7107276916503906,-1.1590697765350342
2024-12-07 16:24:18.183786800,11.478786865234374,-0.1853680610656738,-0.7751321792602539,-2.211578607559204
2024-12-07 16:24:18.193814500,11.488814453125,-0.5095798969268799,-0.9341554641723632,-2.901717185974121
2024-12-07 16:24:18.203842000,11.498842041015624,-0.4799778461456299,-1.253645896911621,-3.206964015960694
2024-12-07 16:24:18.213869800,11.508869873046876,-0.4793224334716797,-1.4559879302978516,-3.070690155029297
2024-12-07 16:24:18.223897300,11.5188974609375,-0.6173410415649414,-1.5415496826171875,-2.9197418689727783
2024-12-07 16:24:18.233925000,11.528925048828125,-1.1758503913879397,-1.5098848342895508,-2.677381753921509
2024-12-07 16:24:18.243952600,11.53895263671875,-1.8913731575012207,-1.4025640487670898,-1.7498571872711182
2024-12-07 16:24:18.253980400,11.54898046875,-2.5179672241210938,-1.0985708236694336,-0.5962275266647339
2024-12-07 16:24:18.264008000,11.559008056640623,-3.059083938598633,-0.754246711730957,0.5156775712966919
2024-12-07 16:24:18.274035700,11.56903564453125,-3.182074785232544,-0.3785295486450195,1.5519535541534424
2024-12-07 16:24:18.284063500,11.5790634765625,-2.79058051109314,0.0266685485839843,2.60046124458313
2024-12-07 16:24:18.294091000,11.589091064453124,-1.9617290496826167,0.4050264358520508,3.3931400775909424
2024-12-07 16:24:18.304118800,11.599118896484375,-0.995790719985962,0.7901296615600586,3.770280361175537
2024-12-07 16:24:18.314146300,11.609146240234375,-0.3520271778106689,1.1257991790771484,3.8545889854431152
