time,seconds_elapsed,z,y,x
2024-12-07 16:18:19.577455000,0.176455078125,-0.0687310695648193,0.2430171966552734,-0.1372370719909668
2024-12-07 16:18:19.587326200,0.186326171875,-0.0579149723052978,0.2191905975341797,-0.2021493911743164
2024-12-07 16:18:19.597230000,0.19622998046875,-0.0656135082244873,0.1911783218383789,-0.2502255439758301
2024-12-07 16:18:19.607170000,0.206170166015625,-0.037514328956604,0.1891422271728515,-0.261232852935791
2024-12-07 16:18:19.617148200,0.216148193359375,-0.0291497707366943,0.2197017669677734,-0.2601461410522461
2024-12-07 16:18:19.627165000,0.2261650390625,-0.0121264457702636,0.2451028823852539,-0.2607879638671875
2024-12-07 16:18:19.637219000,0.236218994140625,-0.0050941705703735,0.2388801574707031,-0.2449665069580078
2024-12-07 16:18:19.647308500,0.24630859375,0.0108934640884399,0.2477903366088867,-0.1820707321166992
2024-12-07 16:18:19.657428700,0.2564287109375,0.1163804531097412,0.2257308959960937,-0.1102066040039062
2024-12-07 16:18:19.667575300,0.2665751953125,0.1934003829956054,0.1877927780151367,-0.1020164489746093
2024-12-07 16:18:19.677742000,0.2767421875,0.1486237049102783,0.1707162857055664,-0.1040382385253906
2024-12-07 16:18:19.687923000,0.2869228515625,0.1295167207717895,0.1505184173583984,-0.1336169242858886
2024-12-07 16:18:19.698111000,0.297111083984375,0.1160563230514526,0.0995025634765625,-0.1389350891113281
2024-12-07 16:18:19.708299500,0.307299560546875,0.0624113082885742,0.0417842864990234,-0.0755376815795898
2024-12-07 16:18:19.718340600,0.317340576171875,0.0938502550125122,0.0095148086547851,-0.0652799606323242
2024-12-07 16:18:19.728368000,0.3273681640625,0.1284806728363037,-0.0031852722167968,-0.0599856376647949
2024-12-07 16:18:19.738395400,0.3373955078125,0.0744417905807495,-0.006382942199707,-0.0271306037902832
2024-12-07 16:18:19.748423000,0.3474228515625,0.0318100452423095,-0.0142154693603515,0.0369095802307128
2024-12-07 16:18:19.758450400,0.357450439453125,-0.0091851949691772,-0.0125741958618164,0.1032791137695312
2024-12-07 16:18:19.768477700,0.367477783203125,-0.0577424764633178,0.0076560974121093,0.1486697196960449
2024-12-07 16:18:19.778505200,0.377505126953125,-0.0393095016479492,0.0321521759033203,0.1969404220581054
2024-12-07 16:18:19.788532700,0.38753271484375,0.0202976465225219,0.0376901626586914,0.2247581481933593
2024-12-07 16:18:19.798560300,0.397560302734375,0.0641173124313354,-0.0215673446655273,0.2051839828491211
2024-12-07 16:18:19.808587500,0.40758740234375,0.0879242420196533,-0.0835638046264648,0.1630463600158691
2024-12-07 16:18:19.818615000,0.417614990234375,0.1109806299209594,-0.1389856338500976,0.1313285827636718
2024-12-07 16:18:19.828642600,0.427642578125,0.1007895469665527,-0.1790418624877929,0.0356836318969726
2024-12-07 16:18:19.838669800,0.437669921875,0.0532896518707275,-0.1253929138183593,0.0129833221435546
2024-12-07 16:18:19.848697300,0.447697265625,0.0025551319122314,-0.045516014099121,0.0144314765930175
2024-12-07 16:18:19.858724900,0.457724853515625,0.0374685525894165,0.0320758819580078,-0.0164399147033691
2024-12-07 16:18:19.868752400,0.46775244140625,-0.0393581390380859,0.0655899047851562,-0.027289867401123
2024-12-07 16:18:19.878779600,0.477779541015625,0.1064310073852539,0.056467056274414,-0.0330171585083007
2024-12-07 16:18:19.888807200,0.48780712890625,0.1860345602035522,0.1409244537353515,0.0401396751403808
2024-12-07 16:18:19.898834700,0.497834716796875,0.0060217380523681,0.2232980728149414,0.0273404121398925
2024-12-07 16:18:19.908862200,0.5078623046875,-0.0244795083999633,0.1918516159057617,-0.0134334564208984
2024-12-07 16:18:19.918889500,0.517889404296875,-0.0026756525039672,0.1613807678222656,-0.1142630577087402
2024-12-07 16:18:19.928917000,0.5279169921875,0.0091903209686279,0.112980842590332,-0.1520767211914062
2024-12-07 16:18:19.938944500,0.537944580078125,0.0954481363296508,0.0796880722045898,-0.132904052734375
2024-12-07 16:18:19.948971800,0.5479716796875,0.2070536613464355,0.0237131118774414,-0.1660447120666504
2024-12-07 16:18:19.958999300,0.557999267578125,0.2162758111953735,0.0016126632690429,-0.1473860740661621
2024-12-07 16:18:19.969026800,0.56802685546875,0.136258840560913,0.0221157073974609,-0.1572318077087402
2024-12-07 16:18:19.979054300,0.578054443359375,0.132676362991333,0.0654792785644531,-0.1104283332824707
2024-12-07 16:18:19.989081600,0.58808154296875,0.0260757207870483,0.0469989776611328,-0.0270333290100097
2024-12-07 16:18:19.999109000,0.598109130859375,-0.0543992519378662,0.0106220245361328,0.0445880889892578
2024-12-07 16:18:20.009136600,0.60813671875,0.0409063100814819,-0.0197553634643554,0.0763249397277832
2024-12-07 16:18:20.019164000,0.618163818359375,0.1429308652877807,-0.0443658828735351,0.1108913421630859
2024-12-07 16:18:20.029191400,0.62819140625,0.0870411396026611,-0.0495691299438476,0.0219573974609375
2024-12-07 16:18:20.039219000,0.638218994140625,-0.0529693365097045,-0.0833110809326171,-0.0083823204040527
2024-12-07 16:18:20.049246500,0.64824658203125,-0.1286461353302002,-0.1498575210571289,-0.0135354995727539
2024-12-07 16:18:20.059273700,0.658273681640625,-0.0426244735717773,-0.2062883377075195,0.0529193878173828
2024-12-07 16:18:20.069301200,0.66830126953125,-0.0757292509078979,-0.1635255813598632,0.0016264915466308
2024-12-07 16:18:20.079328800,0.678328857421875,-0.1465402841567993,-0.1599454879760742,0.0559730529785156
2024-12-07 16:18:20.089356000,0.68835595703125,-0.3064675331115722,-0.1100349426269531,0.0444502830505371
2024-12-07 16:18:20.099383600,0.698383544921875,-0.5255434513092041,-0.0808649063110351,-0.0168466567993164
2024-12-07 16:18:20.109411000,0.7084111328125,-0.6751340627670288,-0.0675230026245117,-0.065406322479248
2024-12-07 16:18:20.119438600,0.7184384765625,-0.6945022344589233,-0.0085525512695312,0.153111457824707
2024-12-07 16:18:20.129465900,0.7284658203125,-0.6374746561050415,0.0207719802856445,0.1006593704223632
2024-12-07 16:18:20.139493400,0.738493408203125,-0.600439190864563,0.1054811477661132,0.0596113204956054
2024-12-07 16:18:20.149521000,0.74852099609375,-0.7102915048599243,0.1695680618286132,-0.0037083625793457
2024-12-07 16:18:20.159548200,0.758548095703125,-0.7756773233413696,0.2043113708496093,-0.089395523071289
2024-12-07 16:18:20.169575700,0.76857568359375,-0.7017983794212341,0.2061281204223632,-0.1459908485412597
2024-12-07 16:18:20.179603200,0.778603271484375,-0.5287072658538818,0.2795705795288086,-0.2265787124633789
2024-12-07 16:18:20.189630700,0.788630615234375,-0.4508557319641113,0.3668785095214844,-0.2316732406616211
2024-12-07 16:18:20.199658000,0.798657958984375,-0.2965003252029419,0.3923301696777344,-0.1478910446166992
2024-12-07 16:18:20.209685500,0.808685546875,-0.049026608467102,0.3337259292602539,0.074164867401123
2024-12-07 16:18:20.219713000,0.818713134765625,0.1012415885925293,0.2030191421508789,0.0296926498413085
2024-12-07 16:18:20.229740500,0.828740478515625,0.2826632261276245,0.0575408935546875,-0.0832514762878418
2024-12-07 16:18:20.239767800,0.838767822265625,0.4787949323654175,-0.0604829788208007,-0.0562343597412109
2024-12-07 16:18:20.249795300,0.84879541015625,0.4911857843399048,-0.1329030990600586,-0.1032161712646484
2024-12-07 16:18:20.259822800,0.85882275390625,0.5176458358764648,-0.0573053359985351,-0.193361759185791
2024-12-07 16:18:20.269850000,0.86885009765625,0.54277503490448,-0.0109901428222656,-0.2827835083007812
2024-12-07 16:18:20.279877600,0.878877685546875,0.4023159742355346,-0.0219573974609375,-0.4791593551635742
2024-12-07 16:18:20.289905200,0.8889052734375,0.3295412063598633,0.0420026779174804,-0.5771937370300293
2024-12-07 16:18:20.299932700,0.8989326171875,0.3651717901229858,0.0851688385009765,-0.4651226997375488
2024-12-07 16:18:20.309960000,0.9089599609375,0.4833779335021972,0.094212532043457,-0.4017305374145508
2024-12-07 16:18:20.319987500,0.918987548828125,0.5834741592407227,0.2161159515380859,-0.401343822479248
2024-12-07 16:18:20.330015000,0.929014892578125,0.6518028974533081,0.3592662811279297,-0.4905962944030761
2024-12-07 16:18:20.340042200,0.939042236328125,0.6842770576477051,0.5321893692016602,-0.4126811027526855
2024-12-07 16:18:20.350069800,0.94906982421875,0.51703941822052,0.5835962295532227,-0.3583822250366211
2024-12-07 16:18:20.360097300,0.95909716796875,0.437950849533081,0.5777044296264648,-0.0506339073181152
2024-12-07 16:18:20.370124800,0.969124755859375,0.4500548839569092,0.441441535949707,-0.3014135360717773
2024-12-07 16:18:20.380152000,0.979152099609375,0.2706180810928345,0.2835140228271484,-0.6172738075256348
2024-12-07 16:18:20.390179600,0.9891796875,0.3926857709884643,0.3162698745727539,-0.5640439987182617
2024-12-07 16:18:20.400207000,0.99920703125,0.4094133377075195,0.3479509353637695,-0.4117016792297363
2024-12-07 16:18:20.410234400,1.009234375,0.3689846992492676,0.4120073318481445,-0.3655214309692383
2024-12-07 16:18:20.420262000,1.019261962890625,0.2199975252151489,0.4938497543334961,-0.3393402099609375
2024-12-07 16:18:20.430289400,1.029289306640625,0.0176974534988403,0.4899368286132812,-0.2904796600341797
2024-12-07 16:18:20.440317000,1.03931689453125,-0.1231303215026855,0.4022274017333984,-0.2388248443603515
2024-12-07 16:18:20.450344200,1.04934423828125,-0.2831646203994751,0.3362722396850586,-0.2089095115661621
2024-12-07 16:18:20.460371700,1.059371826171875,-0.347948670387268,0.1084976196289062,-0.2761225700378418
2024-12-07 16:18:20.470399200,1.069399169921875,-0.3015840053558349,-0.0244731903076171,-0.2409930229187011
2024-12-07 16:18:20.480426500,1.079426513671875,-0.3537017107009887,0.0008268356323242,-0.094398021697998
2024-12-07 16:18:20.490454000,1.0894541015625,-0.3840174674987793,-0.0066442489624023,-0.0778994560241699
2024-12-07 16:18:20.500481500,1.0994814453125,-0.3078964948654175,-0.0516910552978515,-0.0373425483703613
2024-12-07 16:18:20.510509000,1.109509033203125,-0.0997965335845947,-0.0345067977905273,0.1389217376708984
2024-12-07 16:18:20.520536600,1.11953662109375,0.1006394624710083,-0.0544919967651367,0.2259559631347656
2024-12-07 16:18:20.530564000,1.129564208984375,0.1565344333648681,-0.1071157455444336,0.0806760787963867
2024-12-07 16:18:20.540591600,1.139591552734375,0.3100535869598388,-0.1677026748657226,0.2800884246826172
2024-12-07 16:18:20.550619100,1.149619140625,0.3926390409469604,-0.3112964630126953,0.0780568122863769
2024-12-07 16:18:20.560646700,1.159646728515625,0.3768439292907715,-0.4248256683349609,-0.0782938003540039
2024-12-07 16:18:20.570674200,1.169674072265625,0.3489990234375,-0.3104381561279297,0.020937442779541
2024-12-07 16:18:20.580701700,1.17970166015625,0.2919613122940063,-0.0151376724243164,-0.2148261070251464
2024-12-07 16:18:20.590729200,1.189729248046875,0.3778378963470459,0.3351354598999023,-0.0294423103332519
2024-12-07 16:18:20.600756700,1.1997568359375,0.6042789220809937,0.6034440994262695,0.1405444145202636
2024-12-07 16:18:20.610784000,1.209783935546875,0.8138220310211182,0.6079034805297852,0.0875310897827148
2024-12-07 16:18:20.620811500,1.2198115234375,0.9960814714431764,0.4423236846923828,0.007948875427246
2024-12-07 16:18:20.630839000,1.229839111328125,1.1181001663208008,0.2509841918945312,-0.1454067230224609
2024-12-07 16:18:20.640866600,1.239866455078125,1.2367550134658811,0.1991262435913086,-0.4280605316162109
2024-12-07 16:18:20.650894000,1.24989404296875,1.1615859270095823,0.1476373672485351,-0.7534356117248535
2024-12-07 16:18:20.660921600,1.259921630859375,0.7530328035354614,0.0305471420288085,-1.121349811553955
2024-12-07 16:18:20.670949000,1.26994921875,0.2059518098831176,-0.0100669860839843,-1.3417978286743164
2024-12-07 16:18:20.680976600,1.2799765625,-0.3441615104675293,0.0102214813232421,-1.2986087799072266
2024-12-07 16:18:20.691004200,1.290004150390625,-0.8312410116195679,-0.0369081497192382,-1.1699728965759275
2024-12-07 16:18:20.701031700,1.30003173828125,-1.5531091690063477,-0.1222896575927734,-1.022829532623291
2024-12-07 16:18:20.711059200,1.31005908203125,-2.428093194961548,-0.1569271087646484,-0.8493313789367676
2024-12-07 16:18:20.721086700,1.320086669921875,-2.903883457183838,-0.1157112121582031,-0.5831451416015625
2024-12-07 16:18:20.731114200,1.3301142578125,-2.746859073638916,0.1923189163208007,0.4429714679718017
2024-12-07 16:18:20.741141500,1.3401416015625,-1.7094125747680664,0.0796070098876953,0.6705403327941895
2024-12-07 16:18:20.751169000,1.3501689453125,-1.3488460779190063,-0.0276451110839843,-0.0891828536987304
2024-12-07 16:18:20.761196500,1.360196533203125,-0.4694130420684814,0.0001335144042968,0.1582469940185547
2024-12-07 16:18:20.771224000,1.37022412109375,-0.0881160497665405,-0.0373001098632812,-0.0232810974121093
2024-12-07 16:18:20.781251600,1.38025146484375,0.0978854894638061,0.030196189880371,-0.3282074928283691
2024-12-07 16:18:20.791279000,1.390279052734375,0.2562583684921264,0.1068563461303711,-0.3091344833374023
2024-12-07 16:18:20.801306600,1.400306640625,0.5005255937576294,0.1632804870605468,-0.2520689964294433
2024-12-07 16:18:20.811334100,1.410334228515625,0.7897696495056152,0.2564077377319336,0.0943317413330078
2024-12-07 16:18:20.821361700,1.420361572265625,0.8033356666564941,0.3246421813964844,0.3745665550231933
2024-12-07 16:18:20.831389200,1.43038916015625,0.8243957757949829,0.2357845306396484,0.2836668491363525
2024-12-07 16:18:20.841416700,1.440416748046875,0.9142236709594728,0.1944303512573242,0.1351418495178222
2024-12-07 16:18:20.851444000,1.45044384765625,1.026817798614502,0.0577335357666015,-0.0796740055084228
2024-12-07 16:18:20.861471500,1.460471435546875,1.316343903541565,-0.2177925109863281,-0.6035552024841309
2024-12-07 16:18:20.871499000,1.4704990234375,1.7419706583023071,0.0325613021850585,-1.3928098678588867
2024-12-07 16:18:20.881526500,1.480526611328125,1.8642548322677608,0.1081418991088867,-0.3750967979431152
2024-12-07 16:18:20.891553800,1.4905537109375,2.1769230365753174,-0.7695493698120117,-1.1378164291381836
2024-12-07 16:18:20.901581300,1.500581298828125,1.7525181770324707,-1.0780096054077148,-1.9010677337646484
2024-12-07 16:18:20.911608800,1.51060888671875,1.7363829612731934,-1.2504653930664062,-1.8204233646392824
2024-12-07 16:18:20.921636000,1.520635986328125,1.934107780456543,-1.2308721542358398,-1.3375885486602783
2024-12-07 16:18:20.931663600,1.53066357421875,2.278951644897461,-0.2682609558105469,-1.101883888244629
2024-12-07 16:18:20.941691100,1.540691162109375,1.9377985000610352,0.0284557342529296,-0.0690412521362304
2024-12-07 16:18:20.951718700,1.55071875,1.2968883514404297,-0.2947273254394531,-0.8407394886016846
2024-12-07 16:18:20.961746000,1.560745849609375,0.2207038402557373,-0.4291601181030273,-1.3840034008026123
2024-12-07 16:18:20.971773400,1.5707734375,-0.7393529415130615,-0.5313577651977539,-1.101461410522461
2024-12-07 16:18:20.981801000,1.580801025390625,-1.9138129949569704,-0.5737543106079102,-0.4760937690734863
2024-12-07 16:18:20.991828200,1.590828125,-2.241335391998291,-0.3822774887084961,0.4052183628082275
2024-12-07 16:18:21.001855700,1.600855712890625,-2.207806348800659,-0.0138654708862304,1.55076003074646
2024-12-07 16:18:21.011883300,1.61088330078125,-1.833956837654113,0.3238296508789062,2.3026561737060547
2024-12-07 16:18:21.021910800,1.620910888671875,-0.9729832410812378,0.2348709106445312,2.547562599182129
2024-12-07 16:18:21.031938000,1.63093798828125,-0.1267764568328857,0.2733564376831054,2.7363171577453613
2024-12-07 16:18:21.041965600,1.640965576171875,0.8269402980804443,0.1881923675537109,2.3048295974731445
2024-12-07 16:18:21.051993000,1.6509931640625,1.5704779624938965,-0.2202835083007812,1.8425893783569336
2024-12-07 16:18:21.062020400,1.661020263671875,1.6985986232757568,-0.8752899169921875,1.8482027053833008
2024-12-07 16:18:21.072047900,1.6710478515625,1.9549522399902344,-1.721510887145996,1.7741680145263672
2024-12-07 16:18:21.082075400,1.681075439453125,1.6117949485778809,-2.485118865966797,2.3379058837890625
2024-12-07 16:18:21.092103000,1.69110302734375,-0.6016213893890381,-2.6180572509765625,3.0321733951568604
2024-12-07 16:18:21.102130200,1.701130126953125,-3.3923912048339844,-2.0037622451782227,3.291206359863281
2024-12-07 16:18:21.112157700,1.71115771484375,-4.8702802658081055,-1.061967849731445,2.7681121826171875
2024-12-07 16:18:21.122185200,1.721185302734375,-3.876473903656006,-0.1363420486450195,1.3430566787719729
2024-12-07 16:18:21.132212700,1.731212646484375,-2.022503614425659,0.5853385925292969,-0.3272671699523926
2024-12-07 16:18:21.142240000,1.741239990234375,-0.2424345016479492,0.808194637298584,-1.3431086540222168
2024-12-07 16:18:21.152267500,1.751267578125,0.8481903076171875,0.5073108673095703,-1.7874889373779297
2024-12-07 16:18:21.162295000,1.761294921875,1.249436616897583,0.1422805786132812,-1.5719122886657717
2024-12-07 16:18:21.172322300,1.771322265625,0.9210033416748048,0.0544605255126953,-0.4605140686035156
2024-12-07 16:18:21.182349800,1.781349853515625,0.2460241317749023,0.2235736846923828,0.9960651397705078
2024-12-07 16:18:21.192377300,1.79137744140625,-0.652829647064209,0.3670883178710937,1.7363550662994385
2024-12-07 16:18:21.202404900,1.80140478515625,-0.9615099430084229,0.2701716423034668,1.850651502609253
2024-12-07 16:18:21.212432100,1.81143212890625,-0.8967151641845703,0.2152881622314453,1.7101943492889404
2024-12-07 16:18:21.222459600,1.821459716796875,-0.9317007064819336,-0.0985879898071289,1.0662155151367188
2024-12-07 16:18:21.232487200,1.831487060546875,-0.3821949958801269,-0.1524114608764648,0.6504313945770264
2024-12-07 16:18:21.242514400,1.841514404296875,0.4479551315307617,-0.0986647605895996,0.4296503067016601
2024-12-07 16:18:21.252542000,1.8515419921875,0.6939678192138672,-0.0291371345520019,0.6360564231872559
2024-12-07 16:18:21.262569500,1.861569580078125,0.6431500911712646,-0.0716557502746582,1.0167527198791504
2024-12-07 16:18:21.272597000,1.871596923828125,0.4877355098724365,-0.3290433883666992,1.382892370223999
2024-12-07 16:18:21.282624300,1.881624267578125,0.7777762413024902,0.1340317726135254,0.4598078727722168
2024-12-07 16:18:21.292651800,1.89165185546875,0.0604529380798339,-0.9202103614807128,1.119678020477295
2024-12-07 16:18:21.302679300,1.90167919921875,-0.5537047386169434,-1.350812911987305,0.6152381896972656
2024-12-07 16:18:21.312706600,1.91170654296875,-0.4802873134613037,-0.8361806869506836,-0.0208792686462402
2024-12-07 16:18:21.322734000,1.921734130859375,-0.3330004215240478,-0.2811393737792969,0.6823756694793701
2024-12-07 16:18:21.332761600,1.93176171875,-0.2383713722229004,0.2569913864135742,1.052799940109253
2024-12-07 16:18:21.342789000,1.9417890625,-0.0582180023193359,1.0153284072875977,1.108124017715454
2024-12-07 16:18:21.352816400,1.95181640625,-0.017012596130371,1.886915683746338,1.0516369342803955
2024-12-07 16:18:21.362844000,1.961843994140625,0.0167672634124755,2.443044185638428,0.9894983768463136
2024-12-07 16:18:21.372871400,1.971871337890625,0.4908711910247803,2.7952799797058105,1.182812213897705
2024-12-07 16:18:21.382898700,1.981898681640625,0.9844324588775636,2.996891975402832,1.3742153644561768
2024-12-07 16:18:21.392926200,1.99192626953125,0.8320722579956055,3.085897445678711,1.2288818359375
2024-12-07 16:18:21.402953700,2.00195361328125,0.9902358055114746,2.839477062225342,0.9762513637542723
2024-12-07 16:18:21.412981200,2.011981201171875,1.716477870941162,2.1604957580566406,0.1551120281219482
2024-12-07 16:18:21.423008500,2.022008544921875,2.4448797702789307,1.4183902740478516,-0.7988815307617188
2024-12-07 16:18:21.433036000,2.0320361328125,2.376981019973755,0.6498088836669922,-1.8364803791046145
2024-12-07 16:18:21.443063600,2.0420634765625,2.7825284004211426,-0.0201807022094726,-2.945387125015259
2024-12-07 16:18:21.453090800,2.0520908203125,2.5298757553100586,-0.1244382858276367,-3.872960805892944
2024-12-07 16:18:21.463118300,2.062118408203125,2.014674663543701,0.263427734375,-3.719310998916626
2024-12-07 16:18:21.473145900,2.072145751953125,1.011605739593506,0.3541240692138672,-3.473853826522827
2024-12-07 16:18:21.483173400,2.08217333984375,0.5369653701782227,0.3808765411376953,-2.797404527664185
2024-12-07 16:18:21.493200600,2.09220068359375,-0.3974945545196533,0.4284753799438476,-1.7853078842163086
2024-12-07 16:18:21.503228200,2.102228271484375,-1.6866960525512695,0.4035320281982422,-0.3755059242248535
2024-12-07 16:18:21.513255700,2.112255615234375,-2.38523817062378,-0.0836677551269531,0.0797040462493896
2024-12-07 16:18:21.523283200,2.122283203125,-1.8890022039413448,-0.8443260192871094,-0.023848533630371
2024-12-07 16:18:21.533310500,2.132310546875,-0.8368885517120361,-1.6605520248413086,-0.2245192527770996
2024-12-07 16:18:21.543338000,2.142337890625,0.7354757785797119,-2.391425132751465,0.013010025024414
2024-12-07 16:18:21.553365500,2.152365478515625,2.419790267944336,-3.150529861450196,0.7000529766082764
2024-12-07 16:18:21.563392800,2.162392822265625,3.610738515853882,-3.811512947082519,1.402862310409546
2024-12-07 16:18:21.573420300,2.172420166015625,3.825877189636232,-4.17967414855957,2.060403823852539
2024-12-07 16:18:21.583447800,2.18244775390625,3.144202947616577,-4.004743576049805,1.7277262210845947
2024-12-07 16:18:21.593475300,2.192475341796875,1.6234276294708252,-2.686250686645508,0.7100749015808105
2024-12-07 16:18:21.603502600,2.202502685546875,-0.6907958984375,-1.059138298034668,-0.2653687000274658
2024-12-07 16:18:21.613530000,2.212530029296875,-2.497251510620117,0.4188423156738281,-0.4418182373046875
2024-12-07 16:18:21.623557600,2.2225576171875,-3.334911823272705,1.122331142425537,0.1098463535308837
2024-12-07 16:18:21.633585200,2.232585205078125,-3.151545286178589,1.3133578300476074,0.5114254951477051
2024-12-07 16:18:21.643612700,2.24261279296875,-2.399919509887696,1.219796657562256,1.0744380950927734
2024-12-07 16:18:21.653640200,2.25264013671875,-1.5725295543670654,1.133568286895752,1.5562903881072998
2024-12-07 16:18:21.663667700,2.262667724609375,-1.4930188655853271,0.9010143280029296,1.2749464511871338
2024-12-07 16:18:21.673695200,2.2726953125,-1.3634252548217771,0.5353822708129883,0.8181312084197998
2024-12-07 16:18:21.683722500,2.282722412109375,-1.4100844860076904,0.0394830703735351,0.1050739288330078
2024-12-07 16:18:21.693750000,2.29275,-1.8687901496887207,-0.3241119384765625,-0.26509690284729
2024-12-07 16:18:21.703777500,2.302777587890625,-2.170968532562256,-0.4057989120483398,0.0997750759124755
2024-12-07 16:18:21.713805000,2.31280517578125,-2.123585224151612,-0.5204353332519531,0.7772305011749268
2024-12-07 16:18:21.723832600,2.32283251953125,-1.8102569580078125,-0.65814208984375,0.6345529556274414
2024-12-07 16:18:21.733860000,2.332860107421875,-1.6672405004501345,-0.5569696426391602,0.5091204643249512
2024-12-07 16:18:21.743887600,2.3428876953125,-1.4630475044250488,-0.5280618667602539,0.1598410606384277
2024-12-07 16:18:21.753915100,2.3529150390625,-0.8124470710754395,-0.5904741287231445,-0.2789046764373779
2024-12-07 16:18:21.763942700,2.362942626953125,-0.2536640167236328,-0.5632305145263672,-0.1210911273956298
2024-12-07 16:18:21.773970200,2.37297021484375,-0.063706636428833,-0.4891939163208008,-0.2341177463531494
2024-12-07 16:18:21.783997700,2.382997802734375,-0.1312179565429687,-0.2822208404541015,-0.4225556850433349
2024-12-07 16:18:21.794025200,2.393025146484375,-0.2554459571838379,-0.0900907516479492,-0.535383939743042
2024-12-07 16:18:21.804052500,2.403052490234375,-0.5406327247619629,0.0730094909667968,-0.4535031318664551
2024-12-07 16:18:21.814080000,2.413080078125,-0.4774019718170166,0.1261234283447265,-0.6221706867218018
2024-12-07 16:18:21.824107500,2.423107421875,-0.67781662940979,0.2799263000488281,-0.4549219608306885
2024-12-07 16:18:21.834135000,2.433135009765625,-0.7210283279418945,0.4627599716186523,-0.401792049407959
2024-12-07 16:18:21.844162600,2.44316259765625,-0.745415210723877,0.5557689666748047,-0.3769934177398681
2024-12-07 16:18:21.854190000,2.453190185546875,-0.7123644351959229,0.3784732818603515,-0.4998650550842285
2024-12-07 16:18:21.864217600,2.463217529296875,-0.3858594894409179,0.1699295043945312,-0.6366353034973145
2024-12-07 16:18:21.874245000,2.4732451171875,-0.2857186794281006,0.0581541061401367,-0.5302212238311768
2024-12-07 16:18:21.884272600,2.483272705078125,-0.2373321056365966,0.0626096725463867,-0.3631010055541992
2024-12-07 16:18:21.894300200,2.493300048828125,-0.2204511165618896,-0.0845556259155273,-0.3534343242645263
2024-12-07 16:18:21.904327700,2.50332763671875,-0.177020788192749,-0.0496206283569335,-0.1885876655578613
2024-12-07 16:18:21.914355200,2.513355224609375,-0.277393102645874,-0.1239776611328125,-0.2121291160583496
2024-12-07 16:18:21.924382700,2.5233828125,-0.1464924812316894,0.0462455749511718,0.4402632713317871
2024-12-07 16:18:21.934410000,2.533409912109375,0.0078709125518798,-0.3736448287963867,0.2701225280761719
2024-12-07 16:18:21.944437500,2.5434375,-0.1187236309051513,-0.3671865463256836,0.4343898296356201
2024-12-07 16:18:21.954465000,2.553465087890625,-0.1049339771270752,-0.1771154403686523,0.712409496307373
2024-12-07 16:18:21.964492500,2.563492431640625,-0.2473900318145752,-0.360208511352539,0.2513890266418457
2024-12-07 16:18:21.974520000,2.57352001953125,-0.3928165435791015,-0.2809095382690429,0.056363821029663
2024-12-07 16:18:21.984547600,2.583547607421875,-0.5207628011703491,-0.0836143493652343,0.1181886196136474
2024-12-07 16:18:21.994575000,2.5935751953125,-0.3723049163818359,0.0839176177978515,0.2160308361053466
2024-12-07 16:18:22.004602400,2.603602294921875,0.0562067031860351,0.1063652038574218,0.1487777233123779
2024-12-07 16:18:22.014630000,2.6136298828125,0.0313913822174072,0.2081279754638672,0.1262807846069336
2024-12-07 16:18:22.024657400,2.623657470703125,-0.0762495994567871,0.2132463455200195,0.0377020835876464
2024-12-07 16:18:22.034684700,2.6336845703125,0.0736944675445556,0.2131080627441406,0.0359082221984863
2024-12-07 16:18:22.044712200,2.643712158203125,0.3603529930114746,0.1746196746826172,0.162503957748413
2024-12-07 16:18:22.054739700,2.65373974609375,0.5010201930999756,0.2128992080688476,0.339099645614624
2024-12-07 16:18:22.064767200,2.663767333984375,0.4422085285186767,0.3093366622924804,0.274522066116333
2024-12-07 16:18:22.074794500,2.67379443359375,0.6542251110076904,0.3152065277099609,0.2988088130950928
2024-12-07 16:18:22.084822000,2.683822021484375,0.8174307346343994,0.2501354217529297,0.2542860507965088
2024-12-07 16:18:22.094849500,2.693849609375,0.8903694152832031,0.2388019561767578,0.0884821414947509
2024-12-07 16:18:22.104877000,2.703876953125,1.2356271743774414,0.1126928329467773,-0.0571284294128418
2024-12-07 16:18:22.114904300,2.713904296875,0.1660373210906982,0.1548051834106445,-0.601149320602417
2024-12-07 16:18:22.124931800,2.723931884765625,0.6362435817718506,0.1630916595458984,-1.0617709159851074
2024-12-07 16:18:22.134959400,2.73395947265625,0.340279221534729,0.3234500885009765,-1.2435059547424316
2024-12-07 16:18:22.144986600,2.743986572265625,0.2271205186843872,0.5309553146362305,-1.3219459056854248
2024-12-07 16:18:22.155014100,2.75401416015625,-0.0575085878372192,0.5266733169555664,-1.2879250049591064
2024-12-07 16:18:22.165041700,2.764041748046875,0.1033655405044555,0.4845685958862304,-0.856194019317627
2024-12-07 16:18:22.175069200,2.774069091796875,0.4430683851242065,0.338470458984375,-0.90871000289917
2024-12-07 16:18:22.185096400,2.784096435546875,0.7179315090179443,0.4317445755004883,-0.924802541732788
2024-12-07 16:18:22.195124000,2.7941240234375,0.5035009384155273,0.6400661468505859,-0.7892405986785889
2024-12-07 16:18:22.205151500,2.8041513671875,0.2644599676132202,0.7673778533935547,-0.4786770343780517
2024-12-07 16:18:22.215178800,2.8141787109375,0.7617858648300171,0.5817766189575195,-0.9500043392181396
2024-12-07 16:18:22.225206300,2.824206298828125,1.2501939535140991,0.3681793212890625,-1.3124313354492188
2024-12-07 16:18:22.235233800,2.83423388671875,0.119478702545166,0.4883975982666015,-0.5620546340942383
2024-12-07 16:18:22.245261300,2.84426123046875,0.8780211210250854,0.0517311096191406,-1.3066954612731934
2024-12-07 16:18:22.255288600,2.85428857421875,0.8147867918014526,-0.3789958953857422,-2.5636134147644043
2024-12-07 16:18:22.265316000,2.864316162109375,0.1885714530944824,-0.2971582412719726,-2.0579617023468018
2024-12-07 16:18:22.275343600,2.874343505859375,-0.4363683462142944,-0.0183668136596679,-1.2697021961212158
2024-12-07 16:18:22.285371000,2.884370849609375,-0.3496618270874023,0.2614278793334961,-1.0504083633422852
2024-12-07 16:18:22.295398400,2.8943984375,-0.2535386085510254,0.5762786865234375,-0.2419006824493408
2024-12-07 16:18:22.305426000,2.904426025390625,-0.3773109912872314,0.6705989837646484,0.1698091030120849
2024-12-07 16:18:22.315453400,2.914453369140625,-0.961314618587494,0.5591697692871094,-0.2080011367797851
2024-12-07 16:18:22.325480700,2.924480712890625,-1.1818668842315674,0.544011116027832,-0.2547781467437744
2024-12-07 16:18:22.335508200,2.93450830078125,-0.8911460638046265,0.2047948837280273,-0.1092138290405273
2024-12-07 16:18:22.345535700,2.94453564453125,-0.4139597415924072,-0.457310676574707,-0.0981569290161132
2024-12-07 16:18:22.355563000,2.95456298828125,0.049781322479248,-1.1978425979614258,-0.1131331920623779
2024-12-07 16:18:22.365590500,2.964590576171875,0.4255114793777466,-1.7732677459716797,-0.2126133441925048
2024-12-07 16:18:22.375618000,2.9746181640625,0.8822715282440186,-2.156073570251465,-0.3202052116394043
2024-12-07 16:18:22.385645600,2.9846455078125,1.670010685920715,-1.2543354034423828,0.5578415393829346
2024-12-07 16:18:22.395672800,2.9946728515625,1.7596772909164429,-1.736311912536621,0.0286087989807128
2024-12-07 16:18:22.405700400,3.004700439453125,2.1205222606658936,-1.877585411071777,-0.3037495613098144
2024-12-07 16:18:22.415727900,3.014727783203125,2.099319696426392,-1.7324399948120115,-0.2174117565155029
2024-12-07 16:18:22.425755400,3.02475537109375,1.917937994003296,-1.4876842498779297,-0.3046996593475342
2024-12-07 16:18:22.435782700,3.03478271484375,2.013822793960572,-1.1109466552734375,-0.5697357654571533
2024-12-07 16:18:22.445810200,3.04481005859375,2.274895429611206,-0.6563682556152344,-0.5018961429595947
2024-12-07 16:18:22.455837700,3.054837646484375,1.8869493007659912,0.7632379531860352,-0.3014500141143799
2024-12-07 16:18:22.465865000,3.064864990234375,1.0396246910095217,1.0751705169677734,-0.2219376564025879
2024-12-07 16:18:22.475892500,3.074892578125,0.2409942150115966,1.400393009185791,-0.8038365840911865
2024-12-07 16:18:22.485920000,3.084919921875,-0.131861925125122,1.3877339363098145,-1.2148268222808838
2024-12-07 16:18:22.495947500,3.094947509765625,0.6839971542358398,0.931804656982422,-1.4682180881500244
2024-12-07 16:18:22.505974800,3.104974853515625,0.7838180065155029,0.6424741744995117,-1.0627236366271973
2024-12-07 16:18:22.516002300,3.115002197265625,-0.6102018356323242,0.4721565246582031,0.0123276710510253
2024-12-07 16:18:22.526029800,3.12502978515625,-2.95586371421814,-0.0334653854370117,1.2260220050811768
2024-12-07 16:18:22.536057000,3.13505712890625,-3.238778829574585,-0.7443103790283203,2.300823211669922
2024-12-07 16:18:22.546084600,3.145084716796875,-2.556319236755371,-1.425556182861328,3.326792478561402
2024-12-07 16:18:22.556112100,3.155112060546875,-2.296722888946533,-1.7961196899414062,3.622570276260376
2024-12-07 16:18:22.566139600,3.1651396484375,-2.317755699157715,-1.8153104782104488,3.4873709678649902
2024-12-07 16:18:22.576167000,3.1751669921875,-1.8908655643463137,-1.5149421691894531,2.848543405532837
2024-12-07 16:18:22.586194400,3.1851943359375,-1.0543272495269775,-1.0526914596557615,1.9519729614257808
2024-12-07 16:18:22.596222000,3.195221923828125,-0.3869266510009765,-0.4998083114624023,1.2847621440887451
2024-12-07 16:18:22.606249200,3.205249267578125,0.0407991409301757,-0.1022281646728515,0.6942696571350098
2024-12-07 16:18:22.616276700,3.21527685546875,0.0637876987457275,0.2024087905883789,0.5732772350311279
2024-12-07 16:18:22.626304300,3.22530419921875,-0.2600140571594238,0.2771673202514648,0.6735405921936035
2024-12-07 16:18:22.636331800,3.235331787109375,-0.8914339542388916,0.2235774993896484,0.6015675067901611
2024-12-07 16:18:22.646359000,3.245359130859375,-1.2229316234588623,0.16082763671875,0.8273251056671143
2024-12-07 16:18:22.656386600,3.255386474609375,-1.375607967376709,0.3248872756958008,1.4922528266906738
2024-12-07 16:18:22.666414000,3.2654140625,-1.365278244018555,0.6888132095336914,1.6384332180023191
2024-12-07 16:18:22.676441300,3.27544140625,-1.5080537796020508,0.7388296127319336,1.2961938381195068
2024-12-07 16:18:22.686468900,3.28546875,-1.9576176404953003,0.5325918197631836,1.3645541667938232
2024-12-07 16:18:22.696496400,3.295496337890625,-2.0360987186431885,0.5411605834960938,2.002630710601806
2024-12-07 16:18:22.706524000,3.30552392578125,-1.8114322423934937,0.9187026023864746,2.62096643447876
2024-12-07 16:18:22.716551200,3.31555126953125,-1.5975327491760254,1.382542610168457,2.88684630393982
2024-12-07 16:18:22.726578700,3.32557861328125,-1.2321476936340332,1.8125686645507808,2.902060031890869
2024-12-07 16:18:22.736606200,3.335606201171875,-1.0650219917297363,1.997866153717041,2.8591792583465576
2024-12-07 16:18:22.746633700,3.3456337890625,-1.012763261795044,2.177296161651612,2.9326865673065186
2024-12-07 16:18:22.756661200,3.3556611328125,-0.8264849185943604,2.398634433746338,2.916300296783448
2024-12-07 16:18:22.766688800,3.365688720703125,-0.5696167945861816,2.331238269805908,2.6967501640319824
2024-12-07 16:18:22.776716000,3.375716064453125,0.0313251018524169,1.7829875946044922,2.495692491531372
2024-12-07 16:18:22.786743600,3.38574365234375,0.7094454765319824,0.9729290008544922,2.195044994354248
2024-12-07 16:18:22.796771000,3.39577099609375,0.9325892925262452,0.3386592864990234,1.4750601053237915
2024-12-07 16:18:22.806798600,3.405798583984375,0.6254124641418457,0.0976743698120117,0.6620383262634277
2024-12-07 16:18:22.816826000,3.415826171875,0.4900147914886474,-0.2303237915039062,0.2293856143951416
2024-12-07 16:18:22.826853600,3.425853515625,0.6212153434753418,-0.9519100189208984,0.4236414432525635
2024-12-07 16:18:22.836881200,3.435881103515625,0.8461570739746094,-1.5427675247192385,0.3412206172943115
2024-12-07 16:18:22.846908700,3.44590869140625,0.7979526519775391,-1.7823972702026367,-0.1680855751037597
2024-12-07 16:18:22.856936200,3.455936279296875,1.6375670433044434,-1.6344108581542969,-0.7520453929901123
2024-12-07 16:18:22.866963700,3.465963623046875,2.5341572761535645,-1.0518131256103516,-1.608018159866333
2024-12-07 16:18:22.876991200,3.4759912109375,2.815431594848633,-1.0566167831420898,-2.7754099369049072
2024-12-07 16:18:22.887018800,3.486018798828125,2.859675884246826,-1.6864652633666992,-2.270622730255127
2024-12-07 16:18:22.897046300,3.49604638671875,2.6161680221557617,-2.233773231506348,-2.7286901473999023
2024-12-07 16:18:22.907073500,3.506073486328125,2.1295101642608643,-2.5221433639526367,-3.914785623550415
2024-12-07 16:18:22.917101000,3.51610107421875,1.5068049430847168,-1.6398181915283203,-4.221940040588379
2024-12-07 16:18:22.927128600,3.526128662109375,1.3117759227752686,0.158329963684082,-3.749302387237549
2024-12-07 16:18:22.937156000,3.536156005859375,1.4163539409637451,0.8271617889404297,-3.408719539642334
2024-12-07 16:18:22.947183600,3.54618359375,1.812084436416626,1.2626237869262695,-2.79304313659668
2024-12-07 16:18:22.957211100,3.556211181640625,2.158219575881958,1.6308960914611816,-3.0354580879211426
2024-12-07 16:18:22.967238700,3.56623876953125,2.193182468414306,0.4847297668457031,-0.9759352207183838
2024-12-07 16:18:22.977266200,3.57626611328125,1.4214487075805664,-0.5171957015991211,-0.4549081325531006
2024-12-07 16:18:22.987293700,3.586293701171875,0.4715557098388672,-1.072284698486328,0.4725720882415771
2024-12-07 16:18:22.997321200,3.5963212890625,-0.3438589572906494,-1.364397048950195,1.665786623954773
2024-12-07 16:18:23.007348700,3.6063486328125,-0.8703910112380981,-1.573288917541504,2.2644472122192383
2024-12-07 16:18:23.017376300,3.616376220703125,-1.2518974542617798,-1.6190261840820312,2.51888656616211
2024-12-07 16:18:23.027403800,3.62640380859375,-1.5033921003341677,-2.157416343688965,2.4544172286987305
2024-12-07 16:18:23.037431000,3.63643115234375,-2.0811781883239746,-2.5466623306274414,1.978292465209961
2024-12-07 16:18:23.047458600,3.64645849609375,-2.633678913116455,-2.6386594772338867,1.4682977199554443
2024-12-07 16:18:23.057486000,3.656486083984375,-2.3367552757263184,-1.6835289001464844,1.275511622428894
2024-12-07 16:18:23.067513600,3.666513671875,-1.1560723781585691,0.0222730636596679,0.62967848777771
2024-12-07 16:18:23.077541000,3.676541015625,-0.1092095375061035,1.4901838302612305,0.8467526435852051
2024-12-07 16:18:23.087568600,3.686568603515625,0.6749675273895264,2.4894723892211914,1.3510329723358154
2024-12-07 16:18:23.097596200,3.69659619140625,0.0345274209976196,3.1190853118896484,0.7260656356811523
2024-12-07 16:18:23.107623700,3.706623779296875,-0.1724413633346557,2.8188395500183105,0.1799094676971435
2024-12-07 16:18:23.117651000,3.71665087890625,-0.4941306114196777,1.1310720443725586,0.3602571487426758
2024-12-07 16:18:23.127678500,3.726678466796875,-0.6184544563293457,-0.115488052368164,-0.2117395401000976
2024-12-07 16:18:23.137706000,3.7367060546875,-0.8152694702148438,-1.4681415557861328,-0.7719531059265137
2024-12-07 16:18:23.147733500,3.7467333984375,-0.998848021030426,-1.9617013931274416,-0.740990400314331
2024-12-07 16:18:23.157760800,3.7567607421875,-1.0086342096328735,-2.318544387817383,-0.351572036743164
2024-12-07 16:18:23.167788300,3.766788330078125,-1.0568900108337402,-1.7639570236206057,-0.1932766437530517
2024-12-07 16:18:23.177815800,3.77681591796875,-1.643306016921997,-0.5324029922485352,0.1016538143157959
2024-12-07 16:18:23.187843000,3.786843017578125,-1.98787260055542,0.1479091644287109,-0.4078691005706787
2024-12-07 16:18:23.197870600,3.79687060546875,-1.9080125093460083,0.176248550415039,-0.6387429237365723
2024-12-07 16:18:23.207898000,3.806898193359375,-1.6412235498428345,-0.2829065322875976,-0.5658459663391113
2024-12-07 16:18:23.217925600,3.816925537109375,-1.0024514198303225,-1.290508270263672,0.9878907203674316
2024-12-07 16:18:23.227953000,3.826952880859375,-0.9417020678520204,-0.7881278991699219,-0.8881072998046875
2024-12-07 16:18:23.237980400,3.83698046875,-0.9875231981277466,-0.2497329711914062,-2.330721616744995
2024-12-07 16:18:23.248008000,3.847008056640625,-0.6904976963996887,-0.1700277328491211,-0.5729334354400635
2024-12-07 16:18:23.258035200,3.85703515625,-0.6970764398574829,-0.3828649520874023,0.4099128246307373
2024-12-07 16:18:23.268062700,3.867062744140625,-0.918990969657898,-0.7455959320068359,0.6768906116485596
2024-12-07 16:18:23.278090200,3.87709033203125,-0.7423853874206543,-1.5139493942260742,2.1105198860168457
2024-12-07 16:18:23.288117800,3.88711767578125,-0.4959331154823303,-1.6053466796875,1.763040542602539
2024-12-07 16:18:23.298145000,3.89714501953125,0.0077106952667236,-0.939112663269043,1.137814998626709
2024-12-07 16:18:23.308172500,3.907172607421875,-0.1883285045623779,0.013045310974121,2.1473371982574463
2024-12-07 16:18:23.318200000,3.917199951171875,1.942679524421692,0.8220844268798828,2.381948471069336
2024-12-07 16:18:23.328227300,3.927227294921875,-1.1701889038085938,0.6053276062011719,-1.1242687702178955
2024-12-07 16:18:23.338254800,3.9372548828125,0.141459047794342,0.4747381210327148,-0.1290853023529052
2024-12-07 16:18:23.348282400,3.947282470703125,0.7400092482566833,0.7593250274658203,0.7845571041107178
2024-12-07 16:18:23.358310000,3.957309814453125,-0.4826275408267975,1.210221290588379,-0.3513684272766113
2024-12-07 16:18:23.368337200,3.967337158203125,-0.3910877704620361,1.380207061767578,-0.1568894386291504
2024-12-07 16:18:23.378364700,3.97736474609375,0.1557828187942505,1.214397430419922,-0.0881838798522949
2024-12-07 16:18:23.388392200,3.98739208984375,0.2268088459968567,0.6039667129516602,-0.5333425998687744
2024-12-07 16:18:23.398419700,3.997419677734375,0.0994778275489807,0.3191261291503906,-0.7656407356262207
2024-12-07 16:18:23.408447000,4.007447021484375,-0.0554316639900207,0.1834926605224609,-0.6452131271362305
2024-12-07 16:18:23.418474500,4.017474609375,-0.0322886109352111,0.1972112655639648,-0.666607141494751
2024-12-07 16:18:23.428502000,4.027501953125,0.0066542029380798,0.0639324188232421,-0.6531474590301514
2024-12-07 16:18:23.438529300,4.037529296875,0.1268746256828308,0.2895946502685547,-0.8991165161132812
2024-12-07 16:18:23.448556800,4.047556884765625,0.2132168412208557,0.853459358215332,-0.5800533294677734
2024-12-07 16:18:23.458584300,4.057584228515625,-0.0256617665290832,0.8570470809936523,0.0150113105773925
2024-12-07 16:18:23.468611800,4.06761181640625,-0.133546233177185,0.5229215621948242,0.2457075119018554
2024-12-07 16:18:23.478639000,4.07763916015625,-0.1354889869689941,0.3058080673217773,-0.0693180561065673
2024-12-07 16:18:23.488666600,4.08766650390625,-0.2080818116664886,0.1663122177124023,-0.2236196994781494
2024-12-07 16:18:23.498694100,4.097694091796875,-0.1762464940547943,-0.1055965423583984,-0.070138931274414
2024-12-07 16:18:23.508721400,4.107721435546875,0.1258687973022461,0.2271928787231445,0.09429931640625
2024-12-07 16:18:23.518749000,4.1177490234375,0.4432850480079651,0.2547531127929687,-0.2484567165374755
2024-12-07 16:18:23.528776400,4.1277763671875,0.578620195388794,0.2873687744140625,-0.2632062435150146
2024-12-07 16:18:23.538804000,4.137803955078125,0.7136929035186768,-0.0483760833740234,-0.4779999256134033
2024-12-07 16:18:23.548831200,4.147831298828125,0.7892141342163086,-0.2360401153564453,-1.1445059776306152
2024-12-07 16:18:23.558858800,4.157858642578125,0.9679034948349,-0.2529916763305664,-1.4317078590393066
2024-12-07 16:18:23.568886300,4.16788623046875,1.1854292154312134,-0.0139904022216796,-1.7787535190582275
2024-12-07 16:18:23.578913500,4.17791357421875,1.0336060523986816,0.7386913299560547,-1.9339447021484373
2024-12-07 16:18:23.588941000,4.187941162109375,0.3539305627346039,0.8912086486816406,-2.094285726547241
2024-12-07 16:18:23.598968600,4.197968505859375,-0.3920158147811889,0.7602176666259766,-1.7139534950256348
2024-12-07 16:18:23.608996000,4.20799609375,-0.772928774356842,0.5429182052612305,-0.9778115749359132
2024-12-07 16:18:23.619023400,4.2180234375,-0.6631001234054565,0.5318927764892578,-0.6364517211914062
2024-12-07 16:18:23.629051000,4.22805078125,-0.4406236112117767,0.4562234878540039,-0.1614301204681396
2024-12-07 16:18:23.639078400,4.238078369140625,0.4452967643737793,0.7114887237548828,-1.403414249420166
2024-12-07 16:18:23.649105700,4.248105712890625,1.4036129713058472,1.0889883041381836,-2.2233057022094727
2024-12-07 16:18:23.659133200,4.25813330078125,1.9728953838348389,0.6710920333862305,-2.2297675609588623
2024-12-07 16:18:23.669160700,4.26816064453125,1.9179054498672483,0.3537817001342773,-1.9055829048156736
2024-12-07 16:18:23.679188200,4.278188232421875,2.1973860263824463,-0.5654783248901367,-1.5657966136932373
2024-12-07 16:18:23.689215500,4.288215576171875,2.767927885055542,-1.7177438735961914,-1.4130489826202393
2024-12-07 16:18:23.699243000,4.298242919921875,2.9694385528564453,-2.663567543029785,-1.3947093486785889
2024-12-07 16:18:23.709270500,4.3082705078125,2.7598717212677,-3.665919303894043,-1.1377224922180176
2024-12-07 16:18:23.719298000,4.318298095703125,2.1379611492156982,-4.040488243103027,-0.600196361541748
2024-12-07 16:18:23.729325300,4.3283251953125,1.7758965492248535,-3.697739601135254,-0.6551382541656494
2024-12-07 16:18:23.739352800,4.338352783203125,1.4934574365615845,-2.6216039657592773,-0.9916508197784424
2024-12-07 16:18:23.749380400,4.34838037109375,1.8728127479553225,-1.9320926666259768,-0.6241176128387451
2024-12-07 16:18:23.759407600,4.35840771484375,2.873729705810547,-1.895244598388672,-1.0667338371276855
2024-12-07 16:18:23.769435100,4.36843505859375,2.898355722427368,-1.192091941833496,-1.1602909564971924
2024-12-07 16:18:23.779462700,4.378462646484375,2.269081354141236,-0.7408485412597656,-0.8006298542022705
2024-12-07 16:18:23.789490200,4.388490234375,1.6479480266571045,-0.3650131225585937,-1.439265251159668
2024-12-07 16:18:23.799517400,4.398517333984375,0.1646913290023803,-0.3914690017700195,-1.7275981903076172
2024-12-07 16:18:23.809545000,4.408544921875,-1.334951639175415,-0.2362165451049804,-1.215860366821289
2024-12-07 16:18:23.819572500,4.418572509765625,-1.7091150283813477,-0.0456495285034179,-0.4368069171905517
2024-12-07 16:18:23.829599700,4.428599853515625,-1.1327310800552368,0.468174934387207,-0.0414156913757324
2024-12-07 16:18:23.839627300,4.438627197265625,-0.4055121541023254,1.0800256729125977,0.2453551292419433
2024-12-07 16:18:23.849654800,4.44865478515625,0.0761929750442504,1.6270008087158203,0.4159393310546875
2024-12-07 16:18:23.859682300,4.458682373046875,0.2258987426757812,1.9132094383239744,0.8925926685333252
2024-12-07 16:18:23.869709600,4.46870947265625,-0.5943750739097595,1.6121206283569336,1.928020000457764
2024-12-07 16:18:23.879737000,4.478737060546875,-2.245468616485596,0.9738883972167968,3.0700838565826416
2024-12-07 16:18:23.889764600,4.4887646484375,-2.7992186546325684,-0.0003204345703125,3.911465167999267
2024-12-07 16:18:23.899792000,4.4987919921875,-2.242288112640381,-0.944091796875,4.004883289337158
2024-12-07 16:18:23.909819400,4.5088193359375,-1.2422399520874023,-1.2368192672729492,2.9797961711883545
2024-12-07 16:18:23.919847000,4.518846923828125,-0.7632259130477905,-1.685354232788086,2.169343948364258
2024-12-07 16:18:23.929874400,4.52887451171875,-0.8673882484436035,-1.7084360122680664,2.052137851715088
2024-12-07 16:18:23.939902000,4.53890185546875,-0.929595947265625,-1.1953458786010742,1.3529177904129028
2024-12-07 16:18:23.949929500,4.548929443359375,-0.7258479595184326,-0.6645269393920898,0.19602632522583
2024-12-07 16:18:23.959957000,4.55895703125,-0.3615665435791015,-0.3279476165771484,-0.9615901708602904
2024-12-07 16:18:23.969984300,4.568984375,-0.206092357635498,-0.2033185958862304,-1.7791532278060913
2024-12-07 16:18:23.980011800,4.57901171875,-0.2569327354431152,-0.2295808792114257,-1.9390888214111328
2024-12-07 16:18:23.990039300,4.589039306640625,-1.2296631336212158,-0.4055080413818359,-1.6899502277374268
2024-12-07 16:18:24.000066800,4.59906689453125,-2.4506101608276367,-0.5740270614624023,-1.1321779489517212
2024-12-07 16:18:24.010094300,4.60909423828125,-3.173236131668091,-0.3599729537963867,-0.3618357181549072
2024-12-07 16:18:24.020121900,4.619121826171875,-3.298785448074341,0.0745420455932617,0.6937198042869568
2024-12-07 16:18:24.030149400,4.6291494140625,-3.069984197616577,0.3470821380615234,1.645219802856445
2024-12-07 16:18:24.040177000,4.639177001953125,-2.660007238388061,0.5202093124389648,2.100226879119873
2024-12-07 16:18:24.050204400,4.649204345703125,-2.424438714981079,0.771580696105957,2.674123287200928
2024-12-07 16:18:24.060232000,4.65923193359375,-2.0940098762512207,1.1319055557250977,2.992201328277588
2024-12-07 16:18:24.070259500,4.669259521484375,-1.472831964492798,1.5003843307495115,2.953136444091797
2024-12-07 16:18:24.080287000,4.679286865234375,-0.9004621505737305,1.8229413032531736,3.256127119064331
2024-12-07 16:18:24.090314500,4.689314453125,-0.462052583694458,1.9748082160949707,3.6366257667541504
2024-12-07 16:18:24.100341800,4.699341796875,-0.2425739765167236,1.9077954292297363,3.702446937561035
2024-12-07 16:18:24.110369300,4.709369384765625,-0.153702974319458,1.7265920639038086,3.099623680114746
2024-12-07 16:18:24.120396800,4.719396728515625,-0.4044253826141357,1.3489971160888672,2.6122806072235107
2024-12-07 16:18:24.130424300,4.72942431640625,-0.6188788414001465,0.8796205520629883,1.6104042530059814
2024-12-07 16:18:24.140451800,4.739451904296875,-0.8216738700866699,0.3464059829711914,0.3136545717716217
2024-12-07 16:18:24.150479400,4.749479248046875,-0.9581971168518066,0.0648374557495117,-0.6615633964538574
2024-12-07 16:18:24.160507000,4.7595068359375,-1.009366750717163,0.1318845748901367,-0.5442350506782532
2024-12-07 16:18:24.170534400,4.769534423828125,-0.8752586841583252,0.1708965301513672,-0.7817190885543823
2024-12-07 16:18:24.180562000,4.77956201171875,-0.5169415473937988,0.5449838638305664,-0.5345364212989807
2024-12-07 16:18:24.190589400,4.78958935546875,-0.0730082988739013,0.8894567489624023,0.0284734666347503
2024-12-07 16:18:24.200617000,4.799616943359375,-0.5803639888763428,1.1896476745605469,0.2600224614143371
2024-12-07 16:18:24.210644500,4.80964453125,0.1193375587463378,1.6564579010009766,1.1332634687423706
2024-12-07 16:18:24.220672000,4.819672119140625,0.1444559097290039,2.1947455406188965,0.2933103144168854
2024-12-07 16:18:24.230699300,4.82969921875,-0.1525371074676513,2.0258755683898926,-0.6577569246292114
2024-12-07 16:18:24.240726800,4.839726806640625,0.2084913253784179,1.143514633178711,-1.0826071500778198
2024-12-07 16:18:24.250754300,4.84975439453125,0.7366588115692139,0.3705339431762695,-1.2423319816589355
2024-12-07 16:18:24.260781800,4.85978173828125,1.3379905223846436,-0.3668022155761719,-1.03497314453125
2024-12-07 16:18:24.270809300,4.869809326171875,2.1607089042663574,-1.0516204833984375,-0.7933374643325806
2024-12-07 16:18:24.280836600,4.879836669921875,3.0353810787200928,-1.6425237655639648,-0.7734395861625671
2024-12-07 16:18:24.290864000,4.889864013671875,3.5985586643218994,-1.7051382064819336,-0.8589907884597778
2024-12-07 16:18:24.300891600,4.8998916015625,3.551884889602661,-1.1782684326171875,-1.3765649795532229
2024-12-07 16:18:24.310919200,4.909919189453125,3.009805679321289,-0.6261501312255859,-2.24605131149292
2024-12-07 16:18:24.320946400,4.919946533203125,2.417566299438477,0.1290521621704101,-3.20577621459961
2024-12-07 16:18:24.330974000,4.929973876953125,2.0954132080078125,0.8155488967895508,-3.4656882286071777
2024-12-07 16:18:24.341001500,4.94000146484375,2.04101037979126,1.1473474502563477,-2.955287456512451
2024-12-07 16:18:24.351028700,4.95002880859375,2.199759006500244,1.20135498046875,-1.952263355255127
2024-12-07 16:18:24.361056300,4.96005615234375,2.2992866039276123,1.187638282775879,-0.8689934015274048
2024-12-07 16:18:24.371083800,4.970083740234375,2.174164056777954,1.2492971420288086,-0.1219544112682342
2024-12-07 16:18:24.381111300,4.980111328125,1.433673620223999,0.8992643356323242,0.5397146940231323
2024-12-07 16:18:24.391138600,4.990138671875,0.0369277000427246,-0.3186607360839844,1.2556908130645752
2024-12-07 16:18:24.401166000,5.000166015625,-1.400648593902588,-1.9563941955566408,2.105891704559326
2024-12-07 16:18:24.411193600,5.010193603515625,-2.905679941177368,-3.414239883422852,2.8701207637786865
2024-12-07 16:18:24.421221000,5.02022119140625,-4.289925575256348,-4.648186683654785,3.4676570892333984
2024-12-07 16:18:24.431248400,5.030248291015625,-4.840176582336426,-5.6205596923828125,3.659308671951294
2024-12-07 16:18:24.441276000,5.04027587890625,-3.771030187606811,-5.889856338500977,3.19355845451355
2024-12-07 16:18:24.451303400,5.050303466796875,0.2983394861221313,-4.679320335388184,2.353365898132324
2024-12-07 16:18:24.461330700,5.06033056640625,5.273053169250488,-3.178119659423828,1.2578904628753662
2024-12-07 16:18:24.471358200,5.070358154296875,7.499817848205566,-1.7993230819702148,0.0657568424940109
2024-12-07 16:18:24.481385700,5.0803857421875,4.950799942016602,0.1522474288940429,-1.094664216041565
2024-12-07 16:18:24.491413200,5.090413330078125,0.8110406398773193,1.8530511856079104,-0.9858742952346802
2024-12-07 16:18:24.501440500,5.1004404296875,-2.32281756401062,3.4793992042541504,-1.533131718635559
2024-12-07 16:18:24.511468000,5.110468017578125,-3.929042339324951,4.660592079162598,-0.9769294261932372
2024-12-07 16:18:24.521495600,5.12049560546875,-4.738100051879883,5.446189403533936,0.3757316172122955
2024-12-07 16:18:24.531522800,5.130522705078125,-4.347899436950684,5.5453033447265625,1.5339640378952026
2024-12-07 16:18:24.541550300,5.14055029296875,-3.238490343093872,4.479231357574463,2.179666042327881
2024-12-07 16:18:24.551577900,5.150577880859375,-2.5979971885681152,2.52101469039917,2.794894456863404
2024-12-07 16:18:24.561605400,5.16060546875,-2.2926182746887207,0.3748111724853515,2.702258348464966
2024-12-07 16:18:24.571632600,5.170632568359375,-2.0432591438293457,-1.508993148803711,2.3622145652771
2024-12-07 16:18:24.581660200,5.18066015625,-1.5262079238891602,-2.9817800521850586,1.91650128364563
2024-12-07 16:18:24.591687700,5.190687744140625,-0.8671441078186035,-3.77108097076416,1.060854434967041
2024-12-07 16:18:24.601715000,5.20071484375,-0.19303560256958,-3.4770240783691406,-0.4167851209640503
2024-12-07 16:18:24.611742500,5.210742431640625,0.7162297964096069,-2.3279476165771484,-1.8769893646240232
2024-12-07 16:18:24.621770000,5.22077001953125,1.240047574043274,-1.22552490234375,-2.836268424987793
2024-12-07 16:18:24.631797500,5.230797607421875,0.749103307723999,-0.3559799194335937,-3.386586427688598
2024-12-07 16:18:24.641824800,5.24082470703125,-0.1565709114074707,0.0386428833007812,-3.046499252319336
2024-12-07 16:18:24.651852300,5.250852294921875,-0.8097740411758423,0.2802038192749023,-1.857905030250549
2024-12-07 16:18:24.661879800,5.2608798828125,-1.09850013256073,0.4643087387084961,-0.8385944366455078
2024-12-07 16:18:24.671907000,5.270906982421875,-1.6732252836227417,0.5143604278564453,-0.1179501712322235
2024-12-07 16:18:24.681934600,5.2809345703125,-2.017630815505981,0.4351873397827148,0.7436550855636597
2024-12-07 16:18:24.691962000,5.290962158203125,-1.7930474281311035,0.3553838729858398,1.2153668403625488
2024-12-07 16:18:24.701989600,5.30098974609375,-1.4109559059143066,0.3128681182861328,1.209338665008545
2024-12-07 16:18:24.712017000,5.311016845703125,-0.972690224647522,0.3219747543334961,1.2445900440216064
2024-12-07 16:18:24.722044400,5.32104443359375,-0.552730917930603,0.2920083999633789,1.313478946685791
2024-12-07 16:18:24.732072000,5.331072021484375,0.0271429419517517,0.31390380859375,0.821986198425293
2024-12-07 16:18:24.742099200,5.34109912109375,0.5733563899993896,0.2394895553588867,-0.0739894211292266
2024-12-07 16:18:24.752126700,5.351126708984375,1.0596362352371216,0.1550931930541992,-0.7932064533233643
2024-12-07 16:18:24.762154200,5.361154296875,1.464443922042847,0.151580810546875,-1.2647467851638794
2024-12-07 16:18:24.772181800,5.371181640625,1.418943166732788,0.2002105712890625,-1.4771769046783447
2024-12-07 16:18:24.782209000,5.381208984375,0.993823230266571,0.1530532836914062,-1.421120285987854
2024-12-07 16:18:24.792236500,5.391236572265625,0.2760294675827026,0.0774669647216796,-1.0183342695236206
2024-12-07 16:18:24.802264000,5.40126416015625,-0.4421765208244324,-0.0168085098266601,-0.45185187458992
2024-12-07 16:18:24.812291600,5.41129150390625,-0.920634150505066,-0.0724687576293945,-0.1126436442136764
2024-12-07 16:18:24.822318800,5.42131884765625,-1.4123296737670898,-0.0896520614624023,0.212518572807312
2024-12-07 16:18:24.832346400,5.431346435546875,-1.6438345909118652,-0.0398273468017578,0.4545995891094208
2024-12-07 16:18:24.842374000,5.441373779296875,-1.4447999000549316,0.0289106369018554,0.6358872652053833
2024-12-07 16:18:24.852401200,5.451401123046875,-1.2384655475616455,0.159372329711914,0.5901749730110168
2024-12-07 16:18:24.862428700,5.4614287109375,-1.119323968887329,0.2750167846679687,0.5531995296478271
2024-12-07 16:18:24.872456200,5.471456298828125,-0.7671605944633484,0.3376693725585937,0.3885194361209869
2024-12-07 16:18:24.882483700,5.481483642578125,-0.4128846824169159,0.2996015548706054,0.6175504326820374
2024-12-07 16:18:24.892511000,5.491510986328125,-0.008432537317276,0.18011474609375,0.4845671355724334
2024-12-07 16:18:24.902538500,5.50153857421875,0.3873342275619507,0.1801061630249023,0.2907684445381164
2024-12-07 16:18:24.912566000,5.51156591796875,0.6379386782646179,0.1607561111450195,0.2001837491989135
2024-12-07 16:18:24.922593300,5.52159326171875,0.7836217284202576,0.1507339477539062,0.0546582341194152
2024-12-07 16:18:24.932620800,5.531620849609375,0.742758572101593,0.1499252319335937,0.1285058259963989
2024-12-07 16:18:24.942648300,5.5416484375,0.4721589088439941,0.0819110870361328,0.0243701338768005
2024-12-07 16:18:24.952675800,5.55167578125,0.0687253475189209,0.0759172439575195,-0.0177902579307556
2024-12-07 16:18:24.962703000,5.561703125,-0.2833298742771148,0.0698347091674804,0.1514238715171814
2024-12-07 16:18:24.972730600,5.571730712890625,-0.3466541171073913,0.0970239639282226,0.3530833125114441
2024-12-07 16:18:24.982758100,5.581758056640625,-0.1066867336630821,0.1047773361206054,0.2851974964141845
2024-12-07 16:18:24.992785400,5.591785400390625,0.1200730204582214,0.1170005798339843,0.0918543934822082
2024-12-07 16:18:25.002813000,5.60181298828125,0.2716816663742065,0.1337337493896484,-0.1443405151367187
2024-12-07 16:18:25.012840400,5.61184033203125,0.3498477041721344,0.2171564102172851,-0.3354047536849975
2024-12-07 16:18:25.022868000,5.621867919921875,0.543420672416687,0.2143306732177734,-0.5081726312637329
2024-12-07 16:18:25.032895200,5.631895263671875,0.9060795903205872,0.0680932998657226,-0.5285905599594116
2024-12-07 16:18:25.042922800,5.6419228515625,1.4397122859954834,-0.1926851272583007,-0.6374956369400024
2024-12-07 16:18:25.052950300,5.6519501953125,1.862038493156433,-0.4529953002929687,-0.7250468730926514
2024-12-07 16:18:25.062977500,5.6619775390625,2.002230167388916,-0.6649188995361328,-0.8583762049674988
2024-12-07 16:18:25.073005000,5.672005126953125,1.978166460990905,-0.8188591003417969,-0.7843080759048462
2024-12-07 16:18:25.083032600,5.682032470703125,1.7763947248458862,-0.8242406845092773,-0.4997959733009338
2024-12-07 16:18:25.093060000,5.69206005859375,1.5042133331298828,-0.5813608169555664,-0.0890735983848571
2024-12-07 16:18:25.103087400,5.70208740234375,1.3814454078674316,-0.2581853866577148,0.402099072933197
2024-12-07 16:18:25.113115000,5.712114990234375,1.1872721910476685,0.1067390441894531,0.7659445405006409
2024-12-07 16:18:25.123142400,5.722142333984375,1.083841323852539,0.2361469268798828,0.9629760384559632
2024-12-07 16:18:25.133170000,5.732169921875,1.201101779937744,0.1829080581665039,0.9157323241233826
2024-12-07 16:18:25.143197200,5.742197265625,1.311200499534607,-0.0002861022949218,0.4616162180900574
2024-12-07 16:18:25.153224700,5.752224609375,1.3106093406677246,-0.3943567276000976,-0.300870418548584
2024-12-07 16:18:25.163252200,5.762252197265625,1.2829171419143677,-0.8889923095703125,-0.9392407536506652
2024-12-07 16:18:25.173279500,5.772279541015625,1.3720147609710691,-1.350179672241211,-1.4713172912597656
2024-12-07 16:18:25.183307000,5.78230712890625,1.4383103847503662,-1.796961784362793,-1.838420867919922
2024-12-07 16:18:25.193334500,5.79233447265625,1.5989007949829102,-2.228959083557129,-2.377713918685913
2024-12-07 16:18:25.203362000,5.802362060546875,1.768629789352417,-2.659700393676758,-2.893627643585205
2024-12-07 16:18:25.213389300,5.812389404296875,1.6709474325180054,-2.868199348449707,-3.6765129566192623
2024-12-07 16:18:25.223416800,5.822416748046875,0.9922077655792236,-2.548027992248535,-4.326308250427246
2024-12-07 16:18:25.233444400,5.8324443359375,0.2596658766269684,-2.039910316467285,-4.240039825439453
2024-12-07 16:18:25.243471600,5.8424716796875,0.5947809815406799,-1.7799949645996094,-3.745288610458374
2024-12-07 16:18:25.253499100,5.8524990234375,1.6607191562652588,-1.657470703125,-3.56204605102539
2024-12-07 16:18:25.263526700,5.862526611328125,2.2263426780700684,-1.4651355743408203,-3.484628677368164
2024-12-07 16:18:25.273554200,5.87255419921875,1.9665122032165527,-1.3601531982421875,-2.634246349334717
2024-12-07 16:18:25.283581400,5.88258154296875,1.5397069454193115,-1.4015130996704102,-0.5525268316268921
2024-12-07 16:18:25.293609000,5.89260888671875,2.178215980529785,-1.1319780349731443,0.984552264213562
2024-12-07 16:18:25.303636500,5.902636474609375,2.8732736110687256,-0.5526189804077148,2.022330522537231
2024-12-07 16:18:25.313663700,5.912663818359375,2.8506298065185547,0.1680479049682617,2.5018458366394043
2024-12-07 16:18:25.323691300,5.922691162109375,2.240708112716675,0.842864990234375,2.296339988708496
2024-12-07 16:18:25.333718800,5.93271875,1.4640371799468994,1.3424224853515625,1.9973348379135127
2024-12-07 16:18:25.343746300,5.942746337890625,0.8736573457717896,1.69049072265625,1.6499837636947632
2024-12-07 16:18:25.353773600,5.952773681640625,0.50467449426651,1.953904151916504,1.328216791152954
2024-12-07 16:18:25.363801000,5.962801025390625,0.2951686084270477,2.032062530517578,1.0715903043746948
2024-12-07 16:18:25.373828600,5.97282861328125,0.1537243723869323,1.9151268005371096,0.8896336555480957
2024-12-07 16:18:25.383855900,5.98285595703125,0.0616440176963806,1.5788459777832031,0.6860575675964355
2024-12-07 16:18:25.393883400,5.99288330078125,-0.151507019996643,1.0659151077270508,0.3164095878601074
2024-12-07 16:18:25.403911000,6.002910888671875,-0.3883414268493652,0.4491291046142578,-0.1509596109390258
2024-12-07 16:18:25.413938400,6.0129384765625,-0.6235830187797546,-0.3704938888549804,-0.1805912852287292
2024-12-07 16:18:25.423966000,6.022966064453125,-1.072175145149231,-1.343745231628418,0.1805263757705688
2024-12-07 16:18:25.433993200,6.0329931640625,-2.211259365081787,-2.187450408935547,0.5864450931549072
2024-12-07 16:18:25.444020700,6.043020751953125,-4.241401672363281,-2.727052688598633,0.4232572913169861
2024-12-07 16:18:25.454048300,6.05304833984375,-5.621872425079346,-2.926645278930664,0.8363237977027893
2024-12-07 16:18:25.464075800,6.06307568359375,-6.617941856384277,-2.9050445556640625,1.6322124004364014
2024-12-07 16:18:25.474103300,6.073103271484375,-5.999776840209961,-2.485069274902344,2.025524616241455
2024-12-07 16:18:25.484130800,6.083130859375,-3.306657552719116,-1.8144311904907229,1.57488751411438
2024-12-07 16:18:25.494158300,6.093158447265625,-1.09731924533844,-1.398662567138672,0.9811252951622008
2024-12-07 16:18:25.504185900,6.103185791015625,1.0802710056304932,-1.0796804428100586,0.0360814332962036
2024-12-07 16:18:25.514213400,6.11321337890625,2.422412395477295,-0.713374137878418,-0.7920295000076294
2024-12-07 16:18:25.524241000,6.123240966796875,3.249279499053955,-0.7071695327758789,-0.5826628804206848
2024-12-07 16:18:25.534268400,6.133268310546875,3.137751817703247,-0.4802265167236328,-0.0093494057655334
2024-12-07 16:18:25.544296000,6.1432958984375,2.087070941925049,-0.2307920455932617,0.8305420279502869
2024-12-07 16:18:25.554323500,6.153323486328125,0.9274120330810548,0.2601814270019531,1.2882986068725586
2024-12-07 16:18:25.564350700,6.163350830078125,-0.4232344627380371,0.8015861511230469,1.585071682929993
2024-12-07 16:18:25.574378200,6.173378173828125,-1.6233779191970823,1.2519874572753906,1.6447480916976929
2024-12-07 16:18:25.584405800,6.18340576171875,-2.5058693885803223,1.567241668701172,1.359973669052124
2024-12-07 16:18:25.594433300,6.193433349609375,-3.042076110839844,1.6894779205322266,1.0270317792892456
2024-12-07 16:18:25.604460800,6.203460693359375,-3.1401796340942383,1.775013446807861,0.6497490406036377
2024-12-07 16:18:25.614488300,6.21348828125,-3.054737329483032,1.8101906776428225,0.5138182640075684
2024-12-07 16:18:25.624515800,6.223515869140625,-2.7046914100646973,1.7317662239074707,0.7663305997848511
2024-12-07 16:18:25.634543400,6.23354345703125,-2.234203815460205,1.6288824081420898,0.9560986757278442
2024-12-07 16:18:25.644571000,6.24357080078125,-2.076207637786865,1.600786209106445,1.2455720901489258
2024-12-07 16:18:25.654598400,6.253598388671875,-2.0347914695739746,1.5944032669067385,1.6119495630264282
2024-12-07 16:18:25.664626000,6.2636259765625,-1.9991594552993777,1.6050329208374023,1.9139142036437988
2024-12-07 16:18:25.674653400,6.2736533203125,-1.9917525053024288,1.6903462409973145,2.0499367713928223
2024-12-07 16:18:25.684681000,6.283680908203125,-2.0308632850646973,1.7501444816589355,1.8424721956253047
2024-12-07 16:18:25.694708200,6.293708251953125,-1.9401262998580933,1.7126479148864746,1.78258216381073
2024-12-07 16:18:25.704735700,6.30373583984375,-1.7068860530853271,1.6826810836791992,1.6339211463928225
2024-12-07 16:18:25.714763300,6.31376318359375,-1.4532692432403564,1.7214436531066897,1.6085188388824463
2024-12-07 16:18:25.724790800,6.323790771484375,-1.3908286094665527,1.7518162727355957,1.568392992019653
2024-12-07 16:18:25.734818300,6.333818359375,-1.361633539199829,1.7020368576049805,1.4374959468841553
2024-12-07 16:18:25.744845600,6.343845458984375,-1.103343844413757,1.5530624389648438,1.1696877479553225
2024-12-07 16:18:25.754873000,6.353873046875,-0.5558791160583496,1.3714923858642578,0.9804284572601318
2024-12-07 16:18:25.764900600,6.363900634765625,0.2584435939788818,0.9749345779418944,0.910561501979828
2024-12-07 16:18:25.774928000,6.373927978515625,1.1406793594360352,0.3342266082763672,0.9133821725845336
2024-12-07 16:18:25.784955400,6.383955322265625,2.1165201663970947,-0.2118825912475586,0.609583854675293
2024-12-07 16:18:25.794983000,6.39398291015625,3.138169765472412,-0.5738649368286133,-0.1309670805931091
2024-12-07 16:18:25.805010400,6.404010498046875,4.190915107727051,-0.800877571105957,-0.9981428384780884
2024-12-07 16:18:25.815037700,6.41403759765625,5.157422065734863,-0.9888935089111328,-2.1452884674072266
2024-12-07 16:18:25.825065200,6.424065185546875,5.713704109191895,-1.2711114883422852,-2.938545227050781
2024-12-07 16:18:25.835092700,6.4340927734375,5.579653739929199,-1.5736675262451172,-3.6527276039123535
2024-12-07 16:18:25.845120000,6.4441201171875,4.843754768371582,-2.005340576171875,-4.271946907043457
2024-12-07 16:18:25.855147500,6.4541474609375,3.029217481613159,-2.3972225189208984,-4.412178039550781
2024-12-07 16:18:25.865175000,6.464175048828125,1.099663019180298,-2.267414093017578,-4.819425582885742
2024-12-07 16:18:25.875202600,6.47420263671875,0.5093252658843994,-1.8218669891357424,-5.012131690979004
2024-12-07 16:18:25.885229800,6.484229736328125,0.9019851684570312,-1.2843599319458008,-4.467970371246338
2024-12-07 16:18:25.895257300,6.49425732421875,1.877833127975464,-0.4827136993408203,-2.9304399490356445
2024-12-07 16:18:25.905284900,6.504284912109375,2.66292953491211,0.6611185073852539,-1.4251503944396973
2024-12-07 16:18:25.915312000,6.51431201171875,2.805670499801636,1.8371028900146484,-0.7402889728546143
2024-12-07 16:18:25.925339600,6.524339599609375,2.700854778289795,2.8895411491394043,-0.3026807606220245
2024-12-07 16:18:25.935367200,6.5343671875,2.3673348426818848,3.7341623306274414,0.0454179644584655
2024-12-07 16:18:25.945394700,6.544394775390625,1.6230957508087158,4.019337177276611,0.3566480875015259
2024-12-07 16:18:25.955422000,6.554421875,0.5013480186462402,3.609151840209961,0.7271934747695923
2024-12-07 16:18:25.965449500,6.564449462890625,-0.7835245132446289,2.558757781982422,1.466219186782837
2024-12-07 16:18:25.975477000,6.57447705078125,-1.8413872718811035,0.4692325592041015,2.6936612129211426
2024-12-07 16:18:25.985504300,6.584504150390625,-2.546303033828736,-2.54201602935791,4.226762771606445
2024-12-07 16:18:25.995531800,6.59453173828125,-2.93450665473938,-5.356236457824707,5.177491188049316
2024-12-07 16:18:26.005559300,6.604559326171875,-3.42830228805542,-7.096903800964356,5.067317962646484
2024-12-07 16:18:26.015586800,6.6145869140625,-2.4788718223571777,-7.702444076538086,3.769685029983521
2024-12-07 16:18:26.025614000,6.624614013671875,-0.4956117868423462,-6.999906539916992,1.6478770971298218
2024-12-07 16:18:26.035641600,6.6346416015625,0.5574884414672852,-4.728653907775879,1.2309362888336182
2024-12-07 16:18:26.045669000,6.644669189453125,0.897150993347168,-2.2214059829711914,1.7749853134155271
2024-12-07 16:18:26.055696600,6.654696533203125,1.7972173690795898,-0.4921026229858398,0.6105815172195435
2024-12-07 16:18:26.065724000,6.664723876953125,2.092465400695801,0.7334804534912109,-0.4276385903358459
2024-12-07 16:18:26.075751400,6.67475146484375,1.1458134651184082,1.9251823425292969,-0.8570913076400757
2024-12-07 16:18:26.085779000,6.684779052734375,-0.5334581136703491,3.1369738578796387,-0.9590020179748536
2024-12-07 16:18:26.095806200,6.69480615234375,-1.803880333900452,3.978375911712648,-0.7721260786056519
2024-12-07 16:18:26.105833700,6.704833740234375,-2.61240816116333,4.508048057556152,-0.3681740760803222
2024-12-07 16:18:26.115861200,6.714861328125,-3.2951011657714844,4.784534454345703,0.2100192308425903
2024-12-07 16:18:26.125888800,6.724888671875,-3.739851713180542,4.593219757080078,0.8496673107147217
2024-12-07 16:18:26.135916000,6.734916015625,-3.2921853065490723,3.5085277557373047,1.1908756494522097
2024-12-07 16:18:26.145943600,6.744943603515625,-2.474388599395752,1.5593633651733398,1.1000107526779177
2024-12-07 16:18:26.155971000,6.75497119140625,-1.9316630363464355,-0.4457836151123047,1.3278374671936035
2024-12-07 16:18:26.165998300,6.764998291015625,-1.7288795709609983,-2.0379085540771484,1.51666259765625
2024-12-07 16:18:26.176025900,6.77502587890625,-1.9484186172485352,-3.081602096557617,1.244621753692627
2024-12-07 16:18:26.186053400,6.785053466796875,-2.103529214859009,-3.580373764038086,0.5368348360061646
2024-12-07 16:18:26.196081000,6.795080810546875,-2.021827459335327,-3.4766855239868164,-0.6651721596717834
2024-12-07 16:18:26.206108200,6.805108154296875,-1.509056568145752,-2.590327262878418,-1.9824879169464111
2024-12-07 16:18:26.216135700,6.8151357421875,-0.7357531189918518,-1.1772985458374023,-2.7908859252929688
2024-12-07 16:18:26.226163200,6.8251630859375,-0.1454348564147949,0.0381050109863281,-2.945462703704834
2024-12-07 16:18:26.236190500,6.8351904296875,-0.0341523885726928,0.8592948913574219,-2.5985183715820312
2024-12-07 16:18:26.246218000,6.845218017578125,-0.2371556758880615,1.2675848007202148,-1.81860613822937
2024-12-07 16:18:26.256245500,6.85524560546875,-0.6355968713760376,1.2299814224243164,-0.882683277130127
2024-12-07 16:18:26.266273000,6.86527294921875,-1.2207088470458984,0.9049816131591796,-0.1176553964614868
2024-12-07 16:18:26.276300300,6.87530029296875,-1.952972412109375,0.5372886657714844,0.6111067533493042
2024-12-07 16:18:26.286327800,6.885327880859375,-2.209785461425781,0.1369848251342773,0.9603555202484132
2024-12-07 16:18:26.296355300,6.895355224609375,-1.8873854875564573,-0.252720832824707,0.9761662483215332
2024-12-07 16:18:26.306382600,6.905382568359375,-1.3063000440597534,-0.4508609771728515,1.0853840112686155
2024-12-07 16:18:26.316410000,6.91541015625,-0.6679137945175171,-0.4872856140136719,1.2870025634765625
2024-12-07 16:18:26.326437600,6.925437744140625,-0.1709574460983276,-0.3530664443969726,1.2517571449279783
2024-12-07 16:18:26.336465200,6.935465087890625,0.3128224611282348,-0.1392154693603515,1.034987211227417
2024-12-07 16:18:26.346492400,6.945492431640625,0.8239668607711792,0.0634136199951171,0.6876195669174194
2024-12-07 16:18:26.356520000,6.95552001953125,1.1913799047470093,0.149728775024414,0.336181640625
2024-12-07 16:18:26.366547500,6.96554736328125,1.288071870803833,0.1868791580200195,-0.0134167671203613
2024-12-07 16:18:26.376575000,6.975574951171875,1.0333433151245115,0.2325525283813476,-0.1354732513427734
2024-12-07 16:18:26.386602200,6.985602294921875,0.5738285779953003,0.2630014419555664,-0.1180235743522644
2024-12-07 16:18:26.396629800,6.995629638671875,0.1470891833305359,0.2737321853637695,-0.2723554372787475
2024-12-07 16:18:26.406657300,7.0056572265625,-0.3535885512828827,0.2794818878173828,-0.3582711219787597
2024-12-07 16:18:26.416684500,7.0156845703125,-0.8622444868087769,0.2900323867797851,-0.2716153264045715
2024-12-07 16:18:26.426712000,7.025712158203125,-1.3039186000823977,0.3342247009277344,-0.2282706499099731
2024-12-07 16:18:26.436739600,7.035739501953125,-1.3852288722991943,0.2830419540405273,-0.0621365904808044
2024-12-07 16:18:26.446767000,7.04576708984375,-1.2551040649414062,0.2369165420532226,0.0536555051803588
2024-12-07 16:18:26.456794400,7.05579443359375,-0.9384601712226868,0.1334438323974609,0.2839142680168152
2024-12-07 16:18:26.466822000,7.06582177734375,-0.5234290361404419,0.1063566207885742,0.1650824546813964
2024-12-07 16:18:26.476849400,7.075849365234375,-0.3115260004997253,0.1172161102294921,0.1282005906105041
2024-12-07 16:18:26.486876700,7.085876708984375,-0.0588046610355377,0.0896120071411132,-0.1451590657234192
2024-12-07 16:18:26.496904200,7.095904296875,-0.0702828168869018,0.033238410949707,-0.0376660823822021
2024-12-07 16:18:26.506931700,7.105931640625,0.0643443465232849,0.0004177093505859,-0.4214949607849121
2024-12-07 16:18:26.516959200,7.115959228515625,0.0361350178718566,0.187225341796875,-0.5883916616439819
2024-12-07 16:18:26.526986500,7.125986572265625,-0.0974681228399276,0.4258890151977539,-0.467719167470932
2024-12-07 16:18:26.537014000,7.136013916015625,-0.0357231795787811,0.5681896209716797,-0.3278272151947021
2024-12-07 16:18:26.547041500,7.14604150390625,-0.0370570570230484,0.5187444686889648,0.0116639137268066
2024-12-07 16:18:26.557068800,7.15606884765625,0.004217654466629,0.316075325012207,0.3048188686370849
2024-12-07 16:18:26.567096300,7.166096435546875,0.1352094858884811,0.1180372238159179,0.4501230716705322
2024-12-07 16:18:26.577123800,7.176123779296875,0.3167129456996918,-0.0945730209350586,0.4568862915039062
2024-12-07 16:18:26.587151400,7.1861513671875,0.4483557641506195,-0.1975240707397461,0.3304165601730346
2024-12-07 16:18:26.597178600,7.1961787109375,0.5784577131271362,-0.1910028457641601,0.1149531602859497
2024-12-07 16:18:26.607206100,7.2062060546875,0.6591253280639648,-0.1563339233398437,-0.1305457353591919
2024-12-07 16:18:26.617233700,7.216233642578125,0.6520980000495911,-0.0217800140380859,-0.3855385184288025
2024-12-07 16:18:26.627261000,7.226260986328125,0.5911826491355896,0.1600551605224609,-0.6246941685676575
2024-12-07 16:18:26.637288400,7.236288330078125,0.4489674568176269,0.2650566101074219,-0.6794503331184387
2024-12-07 16:18:26.647316000,7.24631591796875,0.280610978603363,0.240936279296875,-0.6165542006492615
2024-12-07 16:18:26.657343500,7.256343505859375,0.2313451766967773,0.0975599288940429,-0.5029259324073792
2024-12-07 16:18:26.667370800,7.266370849609375,0.4252262711524963,-0.1362295150756836,-0.3440700769424438
2024-12-07 16:18:26.677398300,7.276398193359375,0.7129392623901367,-0.3268632888793945,-0.2527110576629638
2024-12-07 16:18:26.687425800,7.28642578125,1.1111637353897097,-0.5315256118774414,-0.6283755302429199
2024-12-07 16:18:26.697453000,7.296453125,1.284597873687744,-0.5304899215698242,-0.710763156414032
2024-12-07 16:18:26.707480600,7.30648046875,1.424352526664734,-0.544189453125,-0.9989403486251832
2024-12-07 16:18:26.717508000,7.316508056640625,1.482017993927002,-0.6393623352050781,-1.2770202159881592
2024-12-07 16:18:26.727535600,7.32653564453125,1.481525182723999,-0.7392492294311523,-1.5203782320022583
2024-12-07 16:18:26.737563000,7.33656298828125,1.5573949813842771,-0.8198137283325195,-1.6706626415252686
2024-12-07 16:18:26.747590400,7.34659033203125,1.6013858318328855,-0.8523921966552734,-1.6840624809265137
2024-12-07 16:18:26.757618000,7.356617919921875,1.9353713989257808,-0.956745147705078,-1.4373211860656738
2024-12-07 16:18:26.767645400,7.3666455078125,2.557924032211304,-1.199763298034668,-1.1330558061599731
2024-12-07 16:18:26.777672700,7.376672607421875,3.4073150157928467,-1.8152456283569336,-0.7308123707771301
2024-12-07 16:18:26.787700200,7.3867001953125,4.341461658477783,-2.768765449523926,-0.4737180471420288
2024-12-07 16:18:26.797727700,7.396727783203125,5.0436692237854,-3.8770790100097656,-0.8925942778587341
2024-12-07 16:18:26.807755000,7.406755126953125,4.836758613586426,-4.578786849975586,-2.082918643951416
2024-12-07 16:18:26.817782500,7.416782470703125,3.515601634979248,-4.669004440307617,-3.182979822158813
2024-12-07 16:18:26.827810000,7.42681005859375,2.068579196929932,-4.040097236633301,-3.985249519348145
2024-12-07 16:18:26.837837600,7.436837646484375,1.1530985832214355,-2.947595596313477,-4.398909091949463
2024-12-07 16:18:26.847864800,7.44686474609375,0.667877197265625,-1.879863739013672,-4.261765480041504
2024-12-07 16:18:26.857892400,7.456892333984375,0.4194198846817016,-1.3381195068359375,-3.291415214538574
2024-12-07 16:18:26.867920000,7.466919921875,0.2618001401424408,-1.0739116668701172,-1.118108153343201
2024-12-07 16:18:26.877947100,7.476947021484375,1.0249738693237305,-0.5958242416381836,0.8528432846069336
2024-12-07 16:18:26.887974700,7.486974609375,1.8484958410263064,-0.0339317321777343,2.330360412597656
2024-12-07 16:18:26.898002200,7.497002197265625,1.931997537612915,0.4724035263061523,3.1405913829803467
2024-12-07 16:18:26.908029700,7.50702978515625,1.4472514390945437,1.013350486755371,3.261106014251709
2024-12-07 16:18:26.918057000,7.517056884765625,0.6889223456382751,1.5356521606445312,2.9250757694244385
2024-12-07 16:18:26.928084500,7.52708447265625,0.0810787677764892,1.8717050552368164,2.447281837463379
2024-12-07 16:18:26.938112000,7.537112060546875,-0.3587238192558288,1.9879636764526367,2.03033447265625
2024-12-07 16:18:26.948139300,7.54713916015625,-0.5087063908576965,2.027665138244629,1.502694845199585
2024-12-07 16:18:26.958166800,7.557166748046875,-0.5537384748458862,1.7806634902954102,0.9245519638061525
2024-12-07 16:18:26.968194300,7.5671943359375,-0.5906732678413391,1.266618728637695,0.5212340354919434
2024-12-07 16:18:26.978221800,7.577221923828125,-0.8256348371505737,0.5961380004882812,0.1442763805389404
2024-12-07 16:18:26.988249000,7.5872490234375,-1.3421106338500977,-0.1242904663085937,-0.2244346141815185
2024-12-07 16:18:26.998276600,7.597276611328125,-1.6606601476669312,-0.8550043106079102,-0.5131654739379883
2024-12-07 16:18:27.008304000,7.60730419921875,-1.839141607284546,-1.404008865356445,-0.6918657422065735
2024-12-07 16:18:27.018331400,7.617331298828125,-2.019598960876465,-1.6088247299194336,-0.5280406475067139
2024-12-07 16:18:27.028359000,7.62735888671875,-2.332183837890625,-1.5943107604980469,-0.1320030689239502
2024-12-07 16:18:27.038386400,7.637386474609375,-3.023200511932373,-1.4116954803466797,-0.0253083705902099
2024-12-07 16:18:27.048414000,7.6474140625,-3.008307933807373,-1.1407966613769531,1.1262329816818235
2024-12-07 16:18:27.058441200,7.657441162109375,-3.227926254272461,-0.8530635833740234,2.115289211273194
2024-12-07 16:18:27.068468700,7.66746875,-2.4245290756225586,-0.5429658889770508,2.440432071685791
2024-12-07 16:18:27.078496300,7.677496337890625,-1.3979405164718628,-0.1977748870849609,2.473763465881348
2024-12-07 16:18:27.088523800,7.687523681640625,-0.5477612018585205,0.213571548461914,1.9687544107437136
2024-12-07 16:18:27.098551000,7.697551025390625,-0.3709912300109863,0.6849689483642578,1.2536215782165527
2024-12-07 16:18:27.108578600,7.70757861328125,-0.3429939746856689,0.9727821350097656,0.4535456895828247
2024-12-07 16:18:27.118606000,7.717606201171875,-0.2796676158905029,0.9822101593017578,-0.2623187303543091
2024-12-07 16:18:27.128633300,7.72763330078125,-0.2926678657531738,0.8671722412109375,-0.8887674808502197
2024-12-07 16:18:27.138660900,7.737660888671875,-0.3951551914215088,0.6814460754394531,-1.3417528867721558
2024-12-07 16:18:27.148688400,7.7476884765625,-0.6325945854187012,0.5553789138793945,-1.5717792510986328
2024-12-07 16:18:27.158716000,7.7577158203125,-0.911029577255249,0.5426712036132812,-1.616796374320984
2024-12-07 16:18:27.168743200,7.7677431640625,-1.3955097198486328,0.5961618423461914,-1.190723180770874
2024-12-07 16:18:27.178770700,7.777770751953125,-1.6935038566589355,0.7398414611816406,-0.7007699012756348
2024-12-07 16:18:27.188798200,7.787798095703125,-1.912043094635009,0.8681163787841797,-0.1605869531631469
2024-12-07 16:18:27.198825500,7.797825439453125,-2.0673975944519043,0.9134578704833984,0.2954553365707397
2024-12-07 16:18:27.208853000,7.80785302734375,-2.241830825805664,0.9568939208984376,0.5909155607223511
2024-12-07 16:18:27.218880500,7.817880615234375,-2.139500617980957,0.998509407043457,0.6511244773864746
2024-12-07 16:18:27.228908000,7.827907958984375,-1.9139416217803955,0.8564205169677734,0.8236137628555298
2024-12-07 16:18:27.238935300,7.837935302734375,-1.880015730857849,0.6310606002807617,1.0860168933868408
2024-12-07 16:18:27.248962800,7.847962890625,-1.7012057304382324,0.5667171478271484,1.064997315406799
2024-12-07 16:18:27.258990300,7.857990234375,-1.9451744556427,0.2142467498779297,1.615706443786621
2024-12-07 16:18:27.269017600,7.868017578125,-1.654494047164917,0.0378551483154296,1.5655828714370728
2024-12-07 16:18:27.279045000,7.878045166015625,-0.9710423946380616,-0.0832014083862304,1.24544358253479
2024-12-07 16:18:27.289072600,7.88807275390625,-0.1349372863769531,-0.1701183319091797,0.7992209196090698
2024-12-07 16:18:27.299100200,7.89810009765625,0.6240365505218506,-0.1722774505615234,0.4753861427307129
2024-12-07 16:18:27.309127400,7.90812744140625,1.1920506954193115,-0.1346101760864257,0.4675056934356689
2024-12-07 16:18:27.319155000,7.918155029296875,1.4113965034484863,-0.0627880096435546,0.6595492362976074
2024-12-07 16:18:27.329182500,7.928182373046875,1.3892066478729248,0.0574522018432617,0.9270758628845216
2024-12-07 16:18:27.339209700,7.938209716796875,1.2076504230499268,0.2691307067871094,1.1875813007354736
2024-12-07 16:18:27.349237200,7.9482373046875,0.8436548709869385,0.5818719863891602,1.3555974960327148
2024-12-07 16:18:27.359264800,7.9582646484375,0.342195987701416,0.9485387802124025,1.376618504524231
2024-12-07 16:18:27.369292300,7.968292236328125,-0.1970932483673095,1.2797441482543943,1.352563738822937
2024-12-07 16:18:27.379319600,7.978319580078125,-0.7931644916534424,1.4102163314819336,1.3603883981704712
2024-12-07 16:18:27.389347000,7.98834716796875,-1.2075824737548828,1.409017562866211,1.248263955116272
2024-12-07 16:18:27.399374600,7.99837451171875,-1.258164882659912,1.3582286834716797,0.9412795305252076
2024-12-07 16:18:27.409401900,8.00840185546875,-1.1518304347991943,1.3199472427368164,0.5844149589538574
2024-12-07 16:18:27.419429400,8.018429443359375,-0.9945201873779296,1.298809051513672,0.3077116012573242
2024-12-07 16:18:27.429457000,8.028456787109375,-0.7441587448120117,1.2945470809936523,-0.0503420829772949
2024-12-07 16:18:27.439484400,8.038484375,-0.4641458988189697,1.2542963027954102,-0.3925251364707947
2024-12-07 16:18:27.449511700,8.04851171875,-0.1313257217407226,1.1826982498168943,-0.6418071985244751
2024-12-07 16:18:27.459539200,8.058539306640625,0.2195274829864502,1.0029754638671875,-0.8791699409484863
2024-12-07 16:18:27.469566700,8.068566650390625,0.5726132392883301,0.7054195404052734,-1.1084400415420532
2024-12-07 16:18:27.479594200,8.07859423828125,0.8693084716796875,0.3855190277099609,-1.3857954740524292
2024-12-07 16:18:27.489621500,8.08862158203125,1.2279245853424072,0.1003446578979492,-1.6670384407043457
2024-12-07 16:18:27.499649000,8.09864892578125,1.82259464263916,-0.1031093597412109,-1.9273223876953125
2024-12-07 16:18:27.509676500,8.108676513671876,2.391377687454224,-0.2738819122314453,-2.0091614723205566
2024-12-07 16:18:27.519703800,8.118703857421876,2.697291851043701,-0.4511270523071289,-1.9462242126464844
2024-12-07 16:18:27.529731300,8.1287314453125,2.735248565673828,-0.6111087799072266,-1.843139886856079
2024-12-07 16:18:27.539758800,8.1387587890625,2.626035451889038,-0.7918548583984375,-1.6187715530395508
2024-12-07 16:18:27.549786400,8.148786376953124,2.6278064250946045,-0.9026622772216796,-1.3930341005325315
2024-12-07 16:18:27.559813600,8.158813720703124,2.678353786468506,-0.915283203125,-0.8911694884300232
2024-12-07 16:18:27.569841200,8.168841064453124,2.8023667335510254,-0.8015069961547852,-0.2523690462112427
2024-12-07 16:18:27.579868700,8.17886865234375,2.944108009338379,-0.6427087783813477,0.3750780820846557
2024-12-07 16:18:27.589896000,8.18889599609375,3.097254514694214,-0.3281517028808594,0.4792746901512146
2024-12-07 16:18:27.599923500,8.19892333984375,2.555166959762573,-0.2911815643310547,1.050914287567139
2024-12-07 16:18:27.609951000,8.208950927734374,2.2514591217041016,0.1583938598632812,0.7747999429702759
2024-12-07 16:18:27.619978500,8.218978515625,2.1680822372436523,0.6715641021728516,0.4379630088806152
2024-12-07 16:18:27.630005800,8.229005859375,2.144012689590454,0.5737686157226562,0.5032223463058472
2024-12-07 16:18:27.640033300,8.239033203125,1.851280212402344,-0.5453386306762695,1.125111103057861
2024-12-07 16:18:27.650060800,8.249060791015625,1.266831874847412,-1.9191274642944336,1.9030393362045288
2024-12-07 16:18:27.660088000,8.259088134765625,0.668705940246582,-3.122039794921875,2.833534479141236
2024-12-07 16:18:27.670115600,8.269115478515625,-0.1352331638336181,-3.8015260696411137,3.634119749069214
2024-12-07 16:18:27.680143000,8.27914306640625,-0.9972046613693236,-3.858539581298828,4.1005859375
2024-12-07 16:18:27.690170600,8.289170654296875,-1.5296388864517212,-3.336888313293457,3.87866735458374
2024-12-07 16:18:27.700198000,8.299197998046875,-1.870025396347046,-2.2849884033203125,3.3694419860839844
2024-12-07 16:18:27.710225400,8.309225341796875,-2.236607789993286,-0.9379148483276368,2.647282600402832
2024-12-07 16:18:27.720253000,8.3192529296875,-2.208959579467773,0.4027328491210937,1.4512622356414795
2024-12-07 16:18:27.730280200,8.3292802734375,-2.214205265045166,1.4792346954345703,0.2465250492095947
2024-12-07 16:18:27.740307700,8.3393076171875,-2.3261451721191406,2.2358860969543457,-0.691763162612915
2024-12-07 16:18:27.750335200,8.349335205078125,-2.355836868286133,2.5973901748657227,-1.0603208541870115
2024-12-07 16:18:27.760362800,8.35936279296875,-2.63828182220459,2.807658195495605,-0.8063033223152161
2024-12-07 16:18:27.770390000,8.36939013671875,-2.6447913646698,2.975749492645264,-0.4269078373908996
2024-12-07 16:18:27.780417500,8.37941748046875,-2.2831530570983887,2.9284963607788086,-0.0895676016807556
2024-12-07 16:18:27.790445000,8.389445068359375,-1.8596513271331787,2.449817180633545,0.11448335647583
2024-12-07 16:18:27.800472600,8.39947265625,-1.413659691810608,1.4676427841186523,0.1497350931167602
2024-12-07 16:18:27.810499800,8.409499755859375,-0.7704992294311523,0.2302894592285156,0.0688062906265258
2024-12-07 16:18:27.820527400,8.41952734375,-0.102028489112854,-0.8129434585571289,-0.3689928650856018
2024-12-07 16:18:27.830555000,8.429554931640626,0.3429081439971924,-1.7093019485473633,-0.8735076189041138
2024-12-07 16:18:27.840582100,8.43958203125,0.3270052671432495,-2.1466732025146484,-1.1807429790496826
2024-12-07 16:18:27.850609700,8.449609619140626,0.108061671257019,-2.10525894165039,-1.3092145919799805
2024-12-07 16:18:27.860637200,8.45963720703125,0.0194785594940185,-1.786128044128418,-1.6982967853546145
2024-12-07 16:18:27.870664700,8.469664794921876,0.0936839580535888,-1.2995901107788086,-2.0961790084838867
2024-12-07 16:18:27.880692000,8.47969189453125,0.0607367753982543,-0.8516216278076172,-2.348541259765625
2024-12-07 16:18:27.890719500,8.489719482421876,-0.113309621810913,-0.5665006637573242,-2.384565830230713
2024-12-07 16:18:27.900747000,8.4997470703125,-0.3949538469314575,-0.3438301086425781,-2.1973142623901367
2024-12-07 16:18:27.910774300,8.509774169921876,-0.7687603235244751,-0.0880670547485351,-1.842040777206421
2024-12-07 16:18:27.920801800,8.5198017578125,-1.2178088426589966,0.200815200805664,-1.388328194618225
2024-12-07 16:18:27.930829300,8.529829345703124,-1.7191675901412964,0.4131727218627929,-0.8484415411949158
2024-12-07 16:18:27.940856800,8.53985693359375,-2.144098281860352,0.5639419555664062,-0.2440508008003235
2024-12-07 16:18:27.950884000,8.549884033203124,-2.188365936279297,0.4910697937011719,0.2835246324539184
2024-12-07 16:18:27.960911600,8.55991162109375,-1.762860894203186,0.3046951293945312,0.504952073097229
2024-12-07 16:18:27.970939100,8.569939208984374,-1.3392233848571775,0.1528224945068359,0.5946421027183533
2024-12-07 16:18:27.980966400,8.57996630859375,-0.8781085014343262,0.0682945251464843,0.7741789817810059
2024-12-07 16:18:27.990994000,8.589993896484375,-0.1651479005813598,0.1122655868530273,1.0909219980239868
2024-12-07 16:18:28.001021400,8.600021484375,0.2839143276214599,0.1406202316284179,1.257352590560913
2024-12-07 16:18:28.011049000,8.610049072265625,0.5075458288192749,0.1105127334594726,1.0689477920532229
2024-12-07 16:18:28.021076200,8.620076171875,0.7117180824279785,0.0557146072387695,0.8142434358596802
2024-12-07 16:18:28.031103700,8.630103759765625,0.8235552906990051,-0.0045690536499023,0.4991353750228882
2024-12-07 16:18:28.041131300,8.64013134765625,0.8698486089706421,0.0108718872070312,0.2827340364456177
2024-12-07 16:18:28.051158500,8.650158447265625,0.7739098072052002,0.0826597213745117,0.2443342208862304
2024-12-07 16:18:28.061186000,8.66018603515625,0.6037487983703613,0.1199588775634765,0.1243855953216552
2024-12-07 16:18:28.071213600,8.670213623046875,0.5279975533485413,0.170785903930664,0.0471603870391845
2024-12-07 16:18:28.081241000,8.680240966796875,0.3571708798408508,0.1969871520996093,-0.0127273797988891
2024-12-07 16:18:28.091268400,8.690268310546875,0.0123839974403381,0.3038539886474609,0.0824100971221923
2024-12-07 16:18:28.101295900,8.7002958984375,-0.2650508284568786,0.4054040908813476,0.0647202134132385
2024-12-07 16:18:28.111323400,8.710323486328125,-0.4683104455471039,0.5066070556640625,0.1588276028633117
2024-12-07 16:18:28.121351000,8.720350830078125,-0.5863778591156006,0.4785499572753906,0.1866850852966308
2024-12-07 16:18:28.131378200,8.730378173828125,-0.5093600153923035,0.3597917556762695,0.1439511179924011
2024-12-07 16:18:28.141405700,8.74040576171875,-0.3722467422485351,0.1982603073120117,0.0883835554122924
2024-12-07 16:18:28.151433200,8.75043310546875,-0.1945745348930359,0.1374406814575195,-0.0020663142204284
2024-12-07 16:18:28.161460500,8.76046044921875,-0.1905753910541534,-0.0761709213256836,0.2386924624443054
2024-12-07 16:18:28.171488000,8.770488037109375,0.0346974730491638,-0.0267524719238281,-0.1685507297515869
2024-12-07 16:18:28.181515500,8.780515625,-0.0439291596412658,0.1562614440917968,-0.1358164548873901
2024-12-07 16:18:28.191543000,8.79054296875,0.0815025568008422,0.2146139144897461,-0.2137664556503296
2024-12-07 16:18:28.201570300,8.8005703125,0.1892443299293518,0.196232795715332,-0.2257232666015625
2024-12-07 16:18:28.211597800,8.810597900390626,0.1342494487762451,0.1537065505981445,-0.2057271003723144
2024-12-07 16:18:28.221625300,8.820625244140626,-0.0593451261520385,0.1301069259643554,-0.1820655465126037
2024-12-07 16:18:28.231652600,8.830652587890626,-0.237389475107193,0.1541194915771484,-0.1399415135383606
2024-12-07 16:18:28.241680100,8.84068017578125,-0.2415181547403335,0.1826601028442382,-0.1031592488288879
2024-12-07 16:18:28.251707600,8.850707763671876,-0.2294889390468597,0.2443056106567382,-0.0293735861778259
2024-12-07 16:18:28.261735200,8.860735107421876,-0.1862768232822418,0.2672328948974609,0.0517235398292541
2024-12-07 16:18:28.271762400,8.870762451171874,-0.1067391484975814,0.2180185317993164,0.2494835257530212
2024-12-07 16:18:28.281790000,8.8807900390625,0.0848032981157302,0.1253118515014648,0.4429556131362915
2024-12-07 16:18:28.291817500,8.8908173828125,0.4344142377376556,0.0989885330200195,0.4553356170654297
2024-12-07 16:18:28.301844700,8.9008447265625,0.7680022120475769,0.0672597885131836,0.3881669640541076
2024-12-07 16:18:28.311872300,8.910872314453124,0.9933661222457886,-0.0367040634155273,0.2276899814605713
2024-12-07 16:18:28.321899800,8.920899658203124,1.0727699995040894,-0.1554174423217773,0.1172538995742797
2024-12-07 16:18:28.331927300,8.93092724609375,1.0865668058395386,-0.1834373474121093,-0.2652355432510376
2024-12-07 16:18:28.341954600,8.94095458984375,0.8446500301361084,-0.0491771697998046,-0.3925659656524658
2024-12-07 16:18:28.351982000,8.950982177734375,0.6886066198348999,0.1227712631225586,-0.5759062767028809
2024-12-07 16:18:28.362009600,8.961009521484375,0.5720205307006836,0.2082052230834961,-0.709286093711853
2024-12-07 16:18:28.372036900,8.971036865234375,0.5718309879302979,0.1834125518798828,-0.864761233329773
2024-12-07 16:18:28.382064400,8.981064453125,0.6062499284744263,0.034346580505371,-0.975383758544922
2024-12-07 16:18:28.392092000,8.991091796875,0.5984311103820801,-0.0859346389770507,-1.0038820505142212
2024-12-07 16:18:28.402119400,9.001119384765625,0.8490911722183228,-0.3827276229858398,-1.479509711265564
2024-12-07 16:18:28.412146700,9.011146728515625,0.8997076749801636,-0.4634609222412109,-1.7241618633270264
2024-12-07 16:18:28.422174200,9.02117431640625,1.0053075551986694,-0.5531883239746094,-1.8862895965576167
2024-12-07 16:18:28.432201700,9.03120166015625,1.1715419292449951,-0.6040115356445312,-2.00783634185791
2024-12-07 16:18:28.442229000,9.04122900390625,1.3846712112426758,-0.4870948791503906,-1.9834407567977903
2024-12-07 16:18:28.452256500,9.051256591796877,1.6920536756515503,-0.427433967590332,-1.789818286895752
2024-12-07 16:18:28.462284000,9.061283935546877,2.1067423820495605,-0.3584423065185547,-1.287183165550232
2024-12-07 16:18:28.472311600,9.0713115234375,2.803696155548096,-0.2662992477416992,-0.7334691286087036
2024-12-07 16:18:28.482338800,9.0813388671875,3.40128231048584,-0.2420635223388672,-0.0372353792190551
2024-12-07 16:18:28.492366300,9.091366455078123,3.8709828853607178,-0.4528274536132812,0.577172040939331
2024-12-07 16:18:28.502393900,9.101393798828123,4.301950931549072,-1.1747198104858398,0.911139965057373
2024-12-07 16:18:28.512421400,9.11142138671875,4.381762504577637,-2.41519546508789,0.5264230966567993
2024-12-07 16:18:28.522448600,9.12144873046875,3.7962160110473633,-3.645898818969727,-0.7292941212654114
2024-12-07 16:18:28.532476200,9.13147607421875,2.3265905380249023,-4.508151054382324,-1.9926743507385256
2024-12-07 16:18:28.542503700,9.141503662109375,0.779160737991333,-4.764621734619141,-2.916231393814087
2024-12-07 16:18:28.552531000,9.151531005859376,0.2214583754539489,-4.32688045501709,-3.363464832305908
2024-12-07 16:18:28.562558500,9.161558349609376,0.4912275373935699,-3.3445959091186523,-3.655754566192627
2024-12-07 16:18:28.572586000,9.1715859375,0.5372094511985779,-2.2622671127319336,-3.89729905128479
2024-12-07 16:18:28.582613500,9.181613525390626,-0.1474514603614807,-1.543095588684082,-2.54971694946289
2024-12-07 16:18:28.592640800,9.191640869140626,-0.192922830581665,-1.3507080078125,-0.0528441667556762
2024-12-07 16:18:28.602668300,9.201668212890626,1.1056060791015625,-0.9823808670043944,1.863556981086731
2024-12-07 16:18:28.612695800,9.21169580078125,2.200148582458496,-0.4817304611206054,3.420222282409668
2024-12-07 16:18:28.622723000,9.22172314453125,2.462301731109619,0.1359806060791015,4.307765960693359
2024-12-07 16:18:28.632750600,9.23175048828125,1.96370816230774,0.8029909133911133,4.179106712341309
2024-12-07 16:18:28.642778000,9.241778076171874,1.0399936437606812,1.4087820053100586,3.4505867958068848
2024-12-07 16:18:28.652805600,9.2518056640625,0.5183742046356201,1.8957624435424805,2.6616244316101074
2024-12-07 16:18:28.662833000,9.2618330078125,0.2993829250335693,2.326050281524658,1.84882390499115
2024-12-07 16:18:28.672860400,9.2718603515625,0.1293468475341797,2.527473926544189,1.2724794149398804
2024-12-07 16:18:28.682888000,9.281887939453124,-0.0819392800331115,2.600270748138428,0.8035359382629395
2024-12-07 16:18:28.692915200,9.291915283203124,-0.346041738986969,2.4869847297668457,0.4137322902679443
2024-12-07 16:18:28.702942700,9.301942626953124,-0.386885404586792,2.1449837684631348,0.008431077003479
2024-12-07 16:18:28.712970200,9.31197021484375,-0.407170832157135,1.4461936950683594,-0.3430800437927246
2024-12-07 16:18:28.722997800,9.321997802734376,-0.6976092457771301,0.4400510787963867,-0.4961696863174438
2024-12-07 16:18:28.733025000,9.33202490234375,-1.0794804096221924,-0.7379617691040039,-0.3424985408782959
2024-12-07 16:18:28.743052500,9.342052490234376,-1.4728364944458008,-1.6849994659423828,-0.2979352474212646
2024-12-07 16:18:28.753080000,9.352080078125,-1.849468469619751,-2.2760467529296875,-0.2899714708328247
2024-12-07 16:18:28.763107300,9.362107421875,-2.58078670501709,-2.5488080978393555,-0.6633918881416321
2024-12-07 16:18:28.773134800,9.372134765625,-3.252760410308838,-2.4868288040161133,-0.6862257122993469
2024-12-07 16:18:28.783162400,9.382162353515625,-3.9011905193328857,-2.1998720169067383,0.1927293539047241
2024-12-07 16:18:28.793190000,9.39218994140625,-3.918933868408203,-1.7914981842041016,0.3965951204299927
2024-12-07 16:18:28.803217200,9.402217041015623,-2.6080830097198486,-1.3296804428100586,0.3985012769699096
2024-12-07 16:18:28.813244700,9.41224462890625,-1.4373294115066528,-1.0138778686523438,0.4968256950378418
2024-12-07 16:18:28.823272200,9.422272216796877,-0.9755464792251588,-0.745265007019043,0.1847531199455261
2024-12-07 16:18:28.833299700,9.4322998046875,-0.5783178806304932,-0.4572486877441406,-0.3123395442962646
2024-12-07 16:18:28.843327000,9.442326904296875,-0.1060235500335693,-0.346506118774414,-0.4005104601383209
2024-12-07 16:18:28.853354500,9.4523544921875,0.5798666477203369,-0.2085208892822265,-0.6270550489425659
2024-12-07 16:18:28.863382000,9.462382080078124,1.347124099731445,-0.002394676208496,-0.9675639867782592
2024-12-07 16:18:28.873409300,9.4724091796875,1.644716501235962,0.0836400985717773,-1.096069574356079
2024-12-07 16:18:28.883436800,9.482436767578124,1.5628979206085205,0.1304054260253906,-1.0133702754974363
2024-12-07 16:18:28.893464300,9.49246435546875,0.9192404747009276,0.1481122970581054,-0.4824276864528656
2024-12-07 16:18:28.903491800,9.502491943359376,-0.2731602191925049,0.2867298126220703,0.0435639917850494
2024-12-07 16:18:28.913519000,9.51251904296875,-1.6049814224243164,0.6533050537109375,0.5954322814941406
2024-12-07 16:18:28.923546600,9.522546630859376,-2.8789141178131104,1.0583581924438477,1.0165232419967651
2024-12-07 16:18:28.933574100,9.53257421875,-3.549586296081543,1.5504026412963867,1.0519962310791016
2024-12-07 16:18:28.943601400,9.542601318359376,-3.719468116760254,1.8426308631896973,1.4792109727859497
2024-12-07 16:18:28.953629000,9.55262890625,-3.383962631225586,2.1222376823425293,2.2619669437408447
2024-12-07 16:18:28.963656400,9.562656494140626,-2.8595292568206787,2.269803047180176,2.718229293823242
2024-12-07 16:18:28.973684000,9.57268408203125,-2.6645493507385254,1.7517447471618652,3.9033203125
2024-12-07 16:18:28.983711200,9.582711181640626,-1.9509308338165283,1.5735969543457031,4.163973808288574
2024-12-07 16:18:28.993738800,9.59273876953125,-1.027693748474121,1.533285140991211,3.8943099975585938
2024-12-07 16:18:29.003766300,9.602766357421874,-0.5252997875213623,1.495295524597168,3.057690143585205
2024-12-07 16:18:29.013793500,9.61279345703125,-0.3733601570129394,1.3155241012573242,2.5181784629821777
2024-12-07 16:18:29.023821000,9.622821044921874,-0.3047022819519043,1.0989875793457031,1.846916675567627
2024-12-07 16:18:29.033848600,9.6328486328125,-0.3587234020233154,0.9742889404296876,1.4580676555633545
2024-12-07 16:18:29.043876000,9.6428759765625,-0.5204882621765137,0.9604082107543944,1.3033666610717771
2024-12-07 16:18:29.053903400,9.6529033203125,-0.3886685371398926,0.951894760131836,1.2477883100509644
2024-12-07 16:18:29.063931000,9.662930908203125,-0.2365224361419677,0.9437885284423828,1.1651901006698608
2024-12-07 16:18:29.073958400,9.67295849609375,-0.0959765911102294,0.907878875732422,1.0631651878356934
2024-12-07 16:18:29.083985700,9.682985595703125,0.229945421218872,0.8062629699707031,0.99685138463974
2024-12-07 16:18:29.094013200,9.69301318359375,0.5201377868652344,0.7484683990478516,0.8169506788253784
2024-12-07 16:18:29.104040700,9.703040771484376,0.6015655994415283,0.7243671417236328,0.4586633443832397
2024-12-07 16:18:29.114068200,9.713068115234377,0.5842585563659668,0.6859445571899414,0.2104180455207824
2024-12-07 16:18:29.124095500,9.723095458984377,0.6165933609008789,0.6952991485595703,-0.0417705178260803
2024-12-07 16:18:29.134123000,9.733123046875,0.7699382305145264,0.6329174041748047,-0.3002498149871826
2024-12-07 16:18:29.144150500,9.743150634765623,0.9996037483215332,0.4939479827880859,-0.4468970596790313
2024-12-07 16:18:29.154178000,9.753177978515623,1.5483512878417969,0.3023824691772461,-0.7052441239356995
2024-12-07 16:18:29.164205300,9.763205322265623,2.403623104095459,0.0768156051635742,-0.993510901927948
2024-12-07 16:18:29.174232800,9.77323291015625,3.3176791667938232,-0.1503124237060547,-1.4364038705825806
2024-12-07 16:18:29.184260400,9.78326025390625,3.977548122406006,-0.4992074966430664,-1.9248039722442627
2024-12-07 16:18:29.194287600,9.79328759765625,4.221651077270508,-0.8594865798950195,-2.92085075378418
2024-12-07 16:18:29.204315100,9.803315185546875,3.852962017059326,-1.1005859375,-4.25453519821167
2024-12-07 16:18:29.214342700,9.8133427734375,2.834894895553589,-1.139019012451172,-5.21502685546875
2024-12-07 16:18:29.224370200,9.8233701171875,1.8611273765563965,-0.9207258224487304,-5.583592414855957
2024-12-07 16:18:29.234397400,9.8333974609375,1.4144515991210938,-0.7566337585449219,-4.98382043838501
2024-12-07 16:18:29.244425000,9.843425048828124,1.4677948951721191,-0.5476217269897461,-3.896056890487671
2024-12-07 16:18:29.254452500,9.853452392578124,1.5119366645812988,-0.1757364273071289,-2.7001638412475586
2024-12-07 16:18:29.264479700,9.863479736328124,1.63318133354187,0.2815761566162109,-1.316723108291626
2024-12-07 16:18:29.274507300,9.87350732421875,1.874298095703125,0.7041149139404297,0.0422459840774536
2024-12-07 16:18:29.284534800,9.88353466796875,2.259181022644043,0.9960536956787108,1.1503721475601196
2024-12-07 16:18:29.294562300,9.893562255859376,2.825448036193848,1.1907691955566406,1.663588285446167
2024-12-07 16:18:29.304589600,9.903589599609376,3.0884017944335938,1.311873435974121,1.6165392398834229
2024-12-07 16:18:29.314617000,9.9136171875,2.8814938068389893,1.2451057434082031,1.251941204071045
2024-12-07 16:18:29.324644600,9.92364453125,2.187749147415161,0.6187524795532227,1.292945146560669
2024-12-07 16:18:29.334672000,9.933671875,1.0792500972747805,-0.841557502746582,2.0540966987609863
2024-12-07 16:18:29.344699400,9.943699462890624,-0.1660363674163818,-2.6214733123779297,3.125382423400879
2024-12-07 16:18:29.354727000,9.953726806640624,-1.644640326499939,-4.270442962646484,4.008583545684815
2024-12-07 16:18:29.364754400,9.96375439453125,-3.1544761657714844,-5.377425193786621,4.453649520874023
2024-12-07 16:18:29.374781700,9.97378173828125,-3.595005989074707,-5.661943435668945,4.320839405059815
2024-12-07 16:18:29.384809200,9.983809326171874,-2.17414665222168,-4.659489631652832,3.2323660850524902
2024-12-07 16:18:29.394836700,9.993836669921874,-0.4194505214691162,-2.041593551635742,2.014092445373535
2024-12-07 16:18:29.404864000,10.003864013671874,0.2591145038604736,0.1469411849975586,1.0500868558883667
2024-12-07 16:18:29.414891500,10.0138916015625,-0.2452733516693115,1.2544517517089844,0.130478024482727
2024-12-07 16:18:29.424919000,10.0239189453125,-1.0832321643829346,2.045322895050049,-0.5102724432945251
2024-12-07 16:18:29.434946600,10.033946533203125,-1.849308729171753,2.7649049758911133,-0.7860186100006104
2024-12-07 16:18:29.444973800,10.043973876953125,-2.506770372390747,3.259875774383545,-0.6132147908210754
2024-12-07 16:18:29.455001300,10.05400146484375,-3.0017199516296387,3.515296936035156,-0.2290419340133667
2024-12-07 16:18:29.465028900,10.06402880859375,-3.306836605072021,3.608023643493652,0.0374554395675659
2024-12-07 16:18:29.475056000,10.07405615234375,-3.524864673614502,3.323896884918213,0.5812592506408691
2024-12-07 16:18:29.485083600,10.084083740234377,-2.864717483520508,2.35695219039917,1.2097904682159424
2024-12-07 16:18:29.495111200,10.094111083984377,-1.562973976135254,0.9354724884033204,1.3460553884506226
2024-12-07 16:18:29.505138700,10.104138671875,-0.2309398651123047,-0.5349140167236328,0.871912956237793
2024-12-07 16:18:29.515166000,10.114166015625,0.6571688652038574,-1.7050418853759766,-0.0027848482131958
2024-12-07 16:18:29.525193500,10.124193359375,0.6691370010375977,-2.2966747283935547,-0.8384451270103455
2024-12-07 16:18:29.535221000,10.134220947265623,0.23196542263031,-2.3420944213867188,-1.7211947441101074
2024-12-07 16:18:29.545248500,10.14424853515625,-0.2124041318893432,-2.0699357986450195,-2.636191368103028
2024-12-07 16:18:29.555275800,10.15427587890625,-0.4053322076797485,-1.6474037170410156,-3.354524850845337
2024-12-07 16:18:29.565303300,10.16430322265625,-0.4990694522857666,-1.214097023010254,-3.518411159515381
2024-12-07 16:18:29.575330800,10.174330810546875,-0.4876050949096679,-0.7665185928344727,-3.4962973594665527
2024-12-07 16:18:29.585358000,10.184358154296875,-0.4310781955718994,-0.3104200363159179,-3.4972569942474365
2024-12-07 16:18:29.595385600,10.194385498046875,-0.6020021438598633,0.0583295822143554,-3.231972932815552
2024-12-07 16:18:29.605413000,10.2044130859375,-0.9303922653198242,0.3495473861694336,-2.67996597290039
2024-12-07 16:18:29.615440600,10.214440673828124,-1.217925786972046,0.5299959182739258,-2.064021587371826
2024-12-07 16:18:29.625468000,10.224468017578126,-1.3060904741287231,0.5663747787475586,-1.3529280424118042
2024-12-07 16:18:29.635495400,10.234495361328126,-1.4767415523529053,0.5211105346679688,-0.7050767540931702
2024-12-07 16:18:29.645523000,10.24452294921875,-1.466052532196045,0.284916877746582,-0.1898176670074463
2024-12-07 16:18:29.655550200,10.25455029296875,-1.183855056762695,0.020827293395996,0.1520342826843261
2024-12-07 16:18:29.665577700,10.26457763671875,-0.8651891946792603,-0.2137184143066406,0.4415923357009887
2024-12-07 16:18:29.675605200,10.274605224609376,-0.5200434923171997,-0.3997888565063476,0.6504336595535278
2024-12-07 16:18:29.685632800,10.2846328125,-0.0790472030639648,-0.4182767868041992,0.8657532930374146
2024-12-07 16:18:29.695660000,10.294659912109376,0.3678269386291504,-0.2939567565917969,1.029746174812317
2024-12-07 16:18:29.705687600,10.3046875,0.8460308313369751,-0.1612997055053711,0.8741517066955566
2024-12-07 16:18:29.715715000,10.314715087890624,1.222208023071289,-0.0492181777954101,0.653395414352417
2024-12-07 16:18:29.725742300,10.324742431640624,1.2455716133117676,0.0566034317016601,0.5016052722930908
2024-12-07 16:18:29.735769900,10.334769775390624,0.9557982683181764,0.1802864074707031,0.3855503797531128
2024-12-07 16:18:29.745797400,10.34479736328125,0.4869933128356933,0.3698806762695312,0.3519027233123779
2024-12-07 16:18:29.755825000,10.354824951171874,0.2154267430305481,0.5346736907958984,0.1941934823989868
2024-12-07 16:18:29.765852200,10.36485205078125,-0.0346409678459167,0.6127147674560547,0.0985124111175537
2024-12-07 16:18:29.775879700,10.374879638671874,-0.4338924884796142,0.6423435211181641,-0.0040245056152343
2024-12-07 16:18:29.785907200,10.3849072265625,-1.0557479858398438,0.5856246948242188,-0.1188921928405761
2024-12-07 16:18:29.795934500,10.3949345703125,-1.5711371898651123,0.4956912994384765,-0.2550163865089416
2024-12-07 16:18:29.805962000,10.4049619140625,-1.919316530227661,0.4158935546875,-0.3215807676315307
2024-12-07 16:18:29.815989500,10.414989501953125,-2.032376766204834,0.3224048614501953,-0.299417495727539
2024-12-07 16:18:29.826017000,10.42501708984375,-1.9395368099212649,0.2438468933105468,-0.2362870573997497
2024-12-07 16:18:29.836044300,10.435044189453125,-1.575796365737915,0.1847381591796875,-0.1037185788154602
2024-12-07 16:18:29.846071800,10.44507177734375,-1.0730210542678833,0.1066122055053711,0.0269744396209716
2024-12-07 16:18:29.856099300,10.455099365234377,-0.6200092434883118,0.0139837265014648,0.1310353279113769
2024-12-07 16:18:29.866126800,10.465126953125,-0.252379834651947,0.0167465209960937,0.028633713722229
2024-12-07 16:18:29.876154000,10.475154052734377,-0.0134997963905334,0.0525760650634765,-0.0546754598617553
2024-12-07 16:18:29.886181600,10.485181640625,0.2729209661483764,0.0258998870849609,-0.2089232206344604
2024-12-07 16:18:29.896209200,10.495209228515623,0.5135639905929565,0.018101692199707,-0.2945035696029663
2024-12-07 16:18:29.906236400,10.505236328125,0.5348111391067505,0.0482139587402343,-0.2641071677207947
2024-12-07 16:18:29.916264000,10.515263916015623,0.4232311844825744,0.1018104553222656,-0.0852121114730835
2024-12-07 16:18:29.926291500,10.52529150390625,0.2950567603111267,0.1739692687988281,0.2116401195526123
2024-12-07 16:18:29.936319000,10.535319091796875,0.1900010704994201,0.2263011932373047,0.5480848550796509
2024-12-07 16:18:29.946346200,10.54534619140625,0.1616830974817276,0.2204771041870117,0.850661039352417
2024-12-07 16:18:29.956373800,10.555373779296875,0.2294753342866897,0.17083740234375,1.1183587312698364
2024-12-07 16:18:29.966401300,10.5654013671875,0.3122414946556091,0.1299257278442382,1.3458369970321655
2024-12-07 16:18:29.976428500,10.575428466796875,0.4627062678337097,0.0785636901855468,1.2752947807312012
2024-12-07 16:18:29.986456000,10.5854560546875,0.8034993410110474,-0.0978851318359375,1.2467026710510254
2024-12-07 16:18:29.996483600,10.595483642578126,0.97422057390213,-0.1601753234863281,0.9122587442398072
2024-12-07 16:18:30.006511000,10.605510986328126,0.8561583161354065,-0.0988607406616211,0.6039766073226929
2024-12-07 16:18:30.016538400,10.615538330078126,0.6531072854995728,0.0618963241577148,0.2415409088134765
2024-12-07 16:18:30.026566000,10.62556591796875,0.5208131670951843,0.2884731292724609,-0.0970001220703125
2024-12-07 16:18:30.036593400,10.635593505859376,0.6046783924102783,0.4229660034179687,-0.3922728300094604
2024-12-07 16:18:30.046620700,10.64562060546875,0.8237554430961609,0.3555173873901367,-0.6068112254142761
2024-12-07 16:18:30.056648200,10.655648193359376,1.3749566078186035,0.0249462127685546,-1.0966347455978394
2024-12-07 16:18:30.066675700,10.66567578125,1.7413067817687988,-0.2712173461914062,-1.4377925395965576
2024-12-07 16:18:30.076703200,10.675703125,1.9669443368911743,-0.5420103073120117,-1.7868051528930664
2024-12-07 16:18:30.086730500,10.68573046875,2.021733283996582,-0.6341381072998047,-2.0563018321990967
2024-12-07 16:18:30.096758000,10.695758056640624,1.9270774126052856,-0.5143985748291016,-2.259643077850342
2024-12-07 16:18:30.106785500,10.70578564453125,1.864323616027832,-0.2740373611450195,-2.261568069458008
2024-12-07 16:18:30.116812800,10.715812744140624,1.8910472393035889,-0.1382675170898437,-1.9051011800765991
2024-12-07 16:18:30.126840300,10.72584033203125,2.188474655151367,-0.2750492095947265,-1.2902578115463257
2024-12-07 16:18:30.136867800,10.735867919921876,2.855668783187866,-0.7037010192871094,-0.5852575898170471
2024-12-07 16:18:30.146895400,10.745895263671876,3.8994932174682617,-1.6622180938720703,-0.2739763259887695
2024-12-07 16:18:30.156922600,10.755922607421876,4.5125412940979,-2.659849166870117,-0.6548889875411987
2024-12-07 16:18:30.166950100,10.7659501953125,3.754016876220703,-3.718581199645996,-1.2452945709228516
2024-12-07 16:18:30.176977700,10.775977783203125,2.0019781589508057,-4.3230180740356445,-2.058277606964112
2024-12-07 16:18:30.187005000,10.7860048828125,0.1998628973960876,-4.447478294372559,-2.8819174766540527
2024-12-07 16:18:30.197032400,10.796032470703125,-0.1641619205474853,-4.132281303405762,-3.819502830505371
2024-12-07 16:18:30.207060000,10.80606005859375,0.6468702554702759,-3.482698440551758,-4.44835090637207
2024-12-07 16:18:30.217087500,10.81608740234375,1.282791256904602,-2.9235239028930664,-4.614072799682617
2024-12-07 16:18:30.227114800,10.82611474609375,0.9455887079238892,-2.521134376525879,-3.3835628032684326
2024-12-07 16:18:30.237142300,10.836142333984377,0.8756037950515747,-2.118870735168457,-1.405129313468933
2024-12-07 16:18:30.247169800,10.846169677734377,1.41982102394104,-1.5837020874023438,0.5742917060852051
2024-12-07 16:18:30.257197300,10.856197265625,1.95087480545044,-0.8973579406738281,2.210381507873535
2024-12-07 16:18:30.267224600,10.866224609375,2.215653896331787,-0.0798368453979492,3.33740496635437
2024-12-07 16:18:30.277252000,10.876252197265623,2.19402813911438,0.7913646697998047,3.743300914764404
2024-12-07 16:18:30.287279600,10.886279541015623,1.8907883167266848,1.615077018737793,3.5384342670440674
2024-12-07 16:18:30.297307000,10.896306884765623,1.508817195892334,2.295339107513428,2.807279109954834
2024-12-07 16:18:30.307334400,10.90633447265625,0.9934169054031372,2.6123852729797363,2.041332483291626
2024-12-07 16:18:30.317362000,10.91636181640625,0.3928356468677521,2.5906529426574707,1.1951563358306885
2024-12-07 16:18:30.327389400,10.926389404296875,-0.1016027629375457,2.422032833099365,0.3908118009567261
2024-12-07 16:18:30.337416700,10.936416748046875,-0.3398659229278564,2.1452226638793945,-0.1739925146102905
2024-12-07 16:18:30.347444200,10.9464443359375,-0.6981896758079529,1.4979581832885742,-0.4554344415664673
2024-12-07 16:18:30.357471700,10.9564716796875,-0.7562873363494873,0.5102787017822266,-0.7258062362670898
2024-12-07 16:18:30.367499000,10.9664990234375,-0.8280645608901978,-0.5583963394165039,-0.7351982593536377
2024-12-07 16:18:30.377526500,10.976526611328126,-1.0700273513793943,-1.4780664443969729,-0.3546373844146728
2024-12-07 16:18:30.387554000,10.986553955078126,-1.3183834552764893,-2.372860908508301,0.0658992528915405
2024-12-07 16:18:30.397581600,10.99658154296875,-1.7189234495162964,-3.0509986877441406,0.3737759590148926
2024-12-07 16:18:30.407608800,11.00660888671875,-1.973398208618164,-3.2255544662475586,0.9855728149414062
2024-12-07 16:18:30.417636400,11.01663623046875,-1.8811776638031008,-2.840158462524414,1.64104163646698
2024-12-07 16:18:30.427664000,11.026663818359374,-1.3342716693878174,-2.04446029663086,1.8072725534439087
2024-12-07 16:18:30.437691100,11.036691162109374,-0.9637714624404908,-1.289616584777832,1.8448370695114136
2024-12-07 16:18:30.447718700,11.04671875,-0.938966989517212,-0.6337156295776367,1.54584002494812
2024-12-07 16:18:30.457746200,11.05674609375,-1.1298855543136597,-0.0145473480224609,1.215547800064087
2024-12-07 16:18:30.467773700,11.066773681640624,-1.443576693534851,0.5732030868530273,0.6917238235473633
2024-12-07 16:18:30.477801000,11.076801025390624,-1.7921502590179443,1.073099136352539,0.0818208456039428
2024-12-07 16:18:30.487828500,11.086828369140624,-1.9499518871307373,1.4291858673095703,-0.4857783317565918
2024-12-07 16:18:30.497856000,11.09685595703125,-1.8751493692398071,1.6332874298095703,-0.8148616552352905
2024-12-07 16:18:30.507883300,11.10688330078125,-1.6933974027633667,1.6243410110473633,-0.945627987384796
2024-12-07 16:18:30.517910800,11.116910888671876,-1.4953540563583374,1.3648433685302734,-1.2184345722198486
2024-12-07 16:18:30.527938300,11.126938232421876,-1.5801631212234497,1.028010368347168,-1.49953293800354
2024-12-07 16:18:30.537965800,11.1369658203125,-1.782930850982666,0.7295589447021484,-1.4775663614273071
2024-12-07 16:18:30.547993000,11.1469931640625,-1.7830626964569092,0.5459938049316406,-1.2634944915771484
2024-12-07 16:18:30.558020600,11.1570205078125,-1.7834272384643557,0.4524555206298828,-0.8400791883468628
2024-12-07 16:18:30.568048000,11.167048095703125,-1.8830446004867551,0.4953784942626953,-0.3947813510894775
2024-12-07 16:18:30.578075600,11.17707568359375,-2.075101852416992,0.5781898498535156,-0.1084264516830444
2024-12-07 16:18:30.588103000,11.18710302734375,-2.2745471000671387,0.7340087890625,0.0151704549789428
2024-12-07 16:18:30.598130400,11.19713037109375,-2.452897071838379,0.9245691299438475,0.130168080329895
2024-12-07 16:18:30.608158000,11.207157958984377,-2.5140128135681152,1.0544929504394531,0.2894299030303955
2024-12-07 16:18:30.618185200,11.217185302734377,-2.37151312828064,1.1334896087646484,0.472953200340271
2024-12-07 16:18:30.628212700,11.227212646484375,-2.164444923400879,1.142473220825195,0.4893263578414917
2024-12-07 16:18:30.638240300,11.237240234375,-2.0396275520324707,1.0532112121582031,0.4626610279083252
2024-12-07 16:18:30.648267800,11.247267822265623,-1.9094996452331543,0.9284706115722656,0.336287260055542
2024-12-07 16:18:30.658295000,11.257294921875,-1.5782829523086548,0.7206497192382812,0.3120653629302978
2024-12-07 16:18:30.668322600,11.267322509765624,-1.0568801164627075,0.4484586715698242,0.335961103439331
2024-12-07 16:18:30.678350000,11.27735009765625,-0.5002944469451904,0.1588945388793945,0.4871548414230346
2024-12-07 16:18:30.688377300,11.28737744140625,-0.0490527153015136,-0.0629501342773437,0.6488089561462402
2024-12-07 16:18:30.698404900,11.29740478515625,0.5326893329620361,-0.1801137924194336,0.8818656206130981
2024-12-07 16:18:30.708432400,11.307432373046876,1.2885785102844238,-0.218332290649414,1.139320731163025
2024-12-07 16:18:30.718460000,11.3174599609375,1.537519931793213,-0.1406726837158203,1.3172396421432495
2024-12-07 16:18:30.728487200,11.327487060546876,1.3896713256835938,0.1383695602416992,1.2816591262817385
2024-12-07 16:18:30.738514700,11.3375146484375,1.191713809967041,0.5472536087036133,1.0859637260437012
2024-12-07 16:18:30.748542200,11.347542236328126,0.9226596355438232,0.85235595703125,0.9547874927520752
2024-12-07 16:18:30.758569500,11.357569580078126,0.6428012847900391,0.9641265869140624,1.003748893737793
2024-12-07 16:18:30.768597000,11.367596923828126,0.4922349452972412,1.0461797714233398,1.0959011316299438
2024-12-07 16:18:30.778624500,11.37762451171875,0.4285371303558349,1.0704278945922852,1.2137356996536257
2024-12-07 16:18:30.788652000,11.387652099609374,0.3621037006378174,0.984980583190918,1.3389787673950195
2024-12-07 16:18:30.798679300,11.39767919921875,0.3134803771972656,0.7428274154663086,1.4196302890777588
2024-12-07 16:18:30.808706800,11.407706787109374,0.3424475193023681,0.4168558120727539,1.294524073600769
2024-12-07 16:18:30.818734300,11.417734375,0.6888597011566162,0.1033430099487304,0.946478009223938
2024-12-07 16:18:30.828761600,11.42776171875,1.3313555717468262,-0.1071987152099609,0.4060935974121094
2024-12-07 16:18:30.838789000,11.4377890625,2.050274610519409,-0.1634492874145507,-0.1198909282684326
2024-12-07 16:18:30.848816600,11.447816650390624,2.667964458465576,-0.1435375213623047,-0.5013763904571533
2024-12-07 16:18:30.858844200,11.45784423828125,3.1318604946136475,-0.1395721435546875,-0.9666366577148438
2024-12-07 16:18:30.868871400,11.467871337890625,3.248593807220459,-0.1617012023925781,-1.2374153137207031
2024-12-07 16:18:30.878899000,11.47789892578125,3.110350608825684,-0.1191949844360351,-1.1622552871704102
2024-12-07 16:18:30.888926500,11.487926513671876,2.9542834758758545,0.0550613403320312,-0.9865102767944336
2024-12-07 16:18:30.898954000,11.4979541015625,2.808333158493042,0.3662261962890625,-0.5739619731903076
2024-12-07 16:18:30.908981200,11.507981201171877,2.657688856124878,0.8527431488037109,-0.0922368764877319
2024-12-07 16:18:30.919008800,11.5180087890625,2.268051147460937,1.366826057434082,0.1332838535308838
2024-12-07 16:18:30.929036300,11.528036376953125,1.7114126682281494,1.8379292488098145,0.0960798263549804
2024-12-07 16:18:30.939063600,11.5380634765625,1.1104929447174072,2.1620688438415527,-0.1411283612251281
2024-12-07 16:18:30.949091000,11.548091064453123,0.753279447555542,2.2733969688415527,-0.5953085422515869
2024-12-07 16:18:30.959118600,11.55811865234375,0.5339658260345459,2.2251839637756348,-1.1589059829711914
2024-12-07 16:18:30.969146000,11.56814599609375,0.2188940048217773,2.018120288848877,-1.7539576292037964
2024-12-07 16:18:30.979173400,11.57817333984375,0.0662605762481689,1.4907379150390625,-2.1833691596984863
2024-12-07 16:18:30.989201000,11.588200927734375,0.2135429382324218,0.1567745208740234,-1.802799940109253
2024-12-07 16:18:30.999228400,11.598228515625,0.9462332725524902,-2.240449905395508,-0.3982969522476196
2024-12-07 16:18:31.009255700,11.608255615234375,2.339449405670166,-5.533743858337402,1.0711324214935305
2024-12-07 16:18:31.019283200,11.618283203125,3.746170282363891,-8.849793434143066,1.02166748046875
2024-12-07 16:18:31.029310700,11.628310791015624,3.194380044937134,-12.062009811401367,1.5667781829833984
2024-12-07 16:18:31.039338200,11.638338134765624,2.4588418006896973,-11.73677921295166,-0.7378513216972351
2024-12-07 16:18:31.049365500,11.648365478515624,2.553706407546997,-6.983654022216797,-3.361366510391236
2024-12-07 16:18:31.059393000,11.65839306640625,1.449204683303833,-2.2811050415039062,-1.1401286125183103
