time,seconds_elapsed,z,y,x
2024-12-07 15:59:52.277661200,0.2156611328125,-0.3776310682296753,0.2457084655761718,0.1553812026977539
2024-12-07 15:59:52.287544000,0.2255439453125,-0.2720903158187866,0.1629066467285156,0.1969223022460937
2024-12-07 15:59:52.297462300,0.235462158203125,-0.2148710489273071,0.2089548110961914,1.7437255382537842
2024-12-07 15:59:52.307418400,0.24541845703125,-0.392147421836853,0.8302063941955566,2.7272305488586426
2024-12-07 15:59:52.317414100,0.2554140625,-0.0275824069976806,0.4877853393554687,1.510521650314331
2024-12-07 15:59:52.327448800,0.26544873046875,0.4695830345153808,-0.1192693710327148,0.4711101055145263
2024-12-07 15:59:52.337521000,0.27552099609375,0.2670165300369262,-0.8596067428588867,0.1269941329956054
2024-12-07 15:59:52.347627000,0.285626953125,0.4384450912475586,-0.6396417617797852,-0.5035595893859863
2024-12-07 15:59:52.357762600,0.295762451171875,0.150719404220581,-0.3385095596313476,-1.291651964187622
2024-12-07 15:59:52.367922000,0.305921875,-0.2894517183303833,-0.2297325134277343,-1.5003550052642822
2024-12-07 15:59:52.378099000,0.316098876953125,-0.5427982807159424,-0.3447933197021484,-1.1287918090820312
2024-12-07 15:59:52.388287200,0.326287353515625,-0.6417782306671143,-0.3611402511596679,-0.777662992477417
2024-12-07 15:59:52.398479400,0.336479248046875,-0.7534290552139282,-0.1313114166259765,-0.6164004802703857
2024-12-07 15:59:52.408606000,0.34660595703125,-0.8181366920471191,-0.0670957565307617,-0.5770580768585205
2024-12-07 15:59:52.418633200,0.35663330078125,-0.7843831181526184,-0.0687751770019531,-0.4498541355133056
2024-12-07 15:59:52.428660500,0.366660400390625,-0.5827970504760742,-0.1286039352416992,-0.4453804492950439
2024-12-07 15:59:52.438687500,0.3766875,-0.308058500289917,-0.283121109008789,-0.5039923191070557
2024-12-07 15:59:52.448714800,0.38671484375,-0.2742282152175903,-0.5799379348754883,-0.6042826175689697
2024-12-07 15:59:52.458742000,0.396741943359375,-0.2471600770950317,-0.6671524047851562,-0.0806965827941894
2024-12-07 15:59:52.468769300,0.406769287109375,-0.191680908203125,-0.3680076599121094,0.4531459808349609
2024-12-07 15:59:52.478796300,0.41679638671875,-0.211685299873352,-0.2260293960571289,0.3953218460083008
2024-12-07 15:59:52.488823600,0.426823486328125,-0.21632981300354,0.0888013839721679,0.991206169128418
2024-12-07 15:59:52.498850800,0.436850830078125,-0.3843607306480407,-0.1618146896362304,1.240525245666504
2024-12-07 15:59:52.508877800,0.4468779296875,-0.5014690160751343,0.1971540451049804,0.6485092639923096
2024-12-07 15:59:52.518905000,0.456905029296875,-0.7323435544967651,0.5292243957519531,1.1681478023529053
2024-12-07 15:59:52.528932400,0.466932373046875,-0.9000145196914673,0.8063030242919922,1.388221263885498
2024-12-07 15:59:52.538959400,0.47695947265625,-0.7109270691871643,0.7790336608886719,1.273021936416626
2024-12-07 15:59:52.548986600,0.486986572265625,-0.7922860980033875,0.3230400085449219,1.0434143543243408
2024-12-07 15:59:52.559014000,0.497013916015625,-0.7132852077484131,0.0746631622314453,0.955524206161499
2024-12-07 15:59:52.569041200,0.507041259765625,-0.7064085602760315,-0.1000070571899414,0.8413119316101074
2024-12-07 15:59:52.579068200,0.517068115234375,-0.5456506013870239,0.0877542495727539,-0.0840582847595214
2024-12-07 15:59:52.589095400,0.527095458984375,-0.5896583795547485,0.0926904678344726,-0.7863752841949463
2024-12-07 15:59:52.599122700,0.537122802734375,-0.4384357631206512,-0.2909955978393554,-1.1695568561553955
2024-12-07 15:59:52.609149700,0.547149658203125,-0.1028856635093689,-0.237060546875,-1.569014310836792
2024-12-07 15:59:52.619177000,0.557177001953125,-0.0483779907226562,-0.2421474456787109,-1.706139087677002
2024-12-07 15:59:52.629204200,0.567204345703125,-0.3198950886726379,-0.3276891708374023,-1.7554726600646973
2024-12-07 15:59:52.639231200,0.577231201171875,-0.5010509490966797,-0.4117622375488281,-1.8970232009887693
2024-12-07 15:59:52.649258500,0.587258544921875,-0.5334919691085815,-0.4753885269165039,-1.675025463104248
2024-12-07 15:59:52.659285800,0.59728564453125,-0.5135511159896851,-0.5321340560913086,-1.274038553237915
2024-12-07 15:59:52.669313000,0.60731298828125,-0.2735562026500702,-0.482487678527832,-0.7168960571289062
2024-12-07 15:59:52.679340000,0.617340087890625,-0.1288623213768005,-0.4213113784790039,-0.1287424564361572
2024-12-07 15:59:52.689367300,0.6273671875,-0.1749500930309295,-0.2677345275878906,0.3535835742950439
2024-12-07 15:59:52.699394600,0.63739453125,-0.0168230533599853,0.1418495178222656,0.9209805727005004
2024-12-07 15:59:52.709421600,0.647421630859375,0.0629556775093078,2.904877185821533,1.8496676683425903
2024-12-07 15:59:52.719448800,0.65744873046875,-0.0043689608573913,6.512436866760254,2.34358286857605
2024-12-07 15:59:52.729476000,0.66747607421875,0.8829754590988159,5.746795177459717,2.080770492553711
2024-12-07 15:59:52.739503000,0.677503173828125,0.9909913539886476,3.0228543281555176,1.4092378616333008
2024-12-07 15:59:52.749530400,0.6875302734375,-0.1791921854019165,1.140024185180664,0.8008968234062195
2024-12-07 15:59:52.759557600,0.6975576171875,-0.2034701108932495,0.5654220581054688,0.1991934776306152
2024-12-07 15:59:52.769585000,0.7075849609375,0.0223686695098876,0.8993692398071289,-0.3623743057250976
2024-12-07 15:59:52.779612000,0.71761181640625,0.3566808104515075,1.2003870010375977,-0.4709433317184448
2024-12-07 15:59:52.789639200,0.72763916015625,0.3840128481388092,1.0944585800170898,-0.4240647554397583
2024-12-07 15:59:52.799666400,0.73766650390625,0.2556315660476684,0.3027076721191406,-0.1977248191833496
2024-12-07 15:59:52.809693400,0.747693359375,0.1066927313804626,-0.3482580184936523,-0.2191393375396728
2024-12-07 15:59:52.819720700,0.757720703125,0.0675878822803497,-0.6822071075439453,-0.4363551139831543
2024-12-07 15:59:52.829748000,0.767748046875,0.1381532847881317,-0.7796440124511719,-0.6201903820037842
2024-12-07 15:59:52.839775000,0.77777490234375,0.0235121250152587,-1.2052793502807615,-0.6448947191238403
2024-12-07 15:59:52.849802200,0.78780224609375,-0.0964573621749877,-1.7845029830932615,-0.5793086290359497
2024-12-07 15:59:52.859829500,0.79782958984375,-0.084262415766716,-2.9491071701049805,-0.3434367179870605
2024-12-07 15:59:52.869856800,0.807856689453125,0.108900636434555,-4.289459228515625,-0.604557991027832
2024-12-07 15:59:52.879883800,0.8178837890625,-0.2080837935209274,-6.167852401733398,-1.549210786819458
2024-12-07 15:59:52.889911000,0.8279111328125,0.3654667437076568,-7.9886474609375,-1.7536325454711914
2024-12-07 15:59:52.899938300,0.837938232421875,1.0993285179138184,-7.497884750366211,-2.047540187835694
2024-12-07 15:59:52.909965300,0.84796533203125,0.3439005017280578,-0.1663293838500976,-2.112706661224365
2024-12-07 15:59:52.919992600,0.85799267578125,-1.0685139894485474,4.053991317749023,0.971649706363678
2024-12-07 15:59:52.930019800,0.868019775390625,-0.3209187090396881,0.8419790267944336,0.3672927320003509
2024-12-07 15:59:52.940047000,0.878047119140625,0.7279558181762695,-1.6905860900878906,0.0063092112541198
2024-12-07 15:59:52.950074000,0.88807421875,0.5671311616897583,-1.408919334411621,0.4960110783576965
2024-12-07 15:59:52.960101400,0.898101318359375,0.2781640887260437,0.058791160583496,1.3245840072631836
2024-12-07 15:59:52.970128600,0.908128662109375,0.5764163136482239,0.2357912063598632,1.1766583919525146
2024-12-07 15:59:52.980156000,0.918156005859375,0.7372007369995117,-0.1430330276489257,0.6776951551437378
2024-12-07 15:59:52.990183200,0.92818310546875,0.572520911693573,-0.4136772155761719,0.1581418514251709
2024-12-07 15:59:53.000210400,0.93821044921875,0.334985077381134,-0.5067129135131836,-0.6539456248283386
2024-12-07 15:59:53.010237700,0.94823779296875,0.2101464122533798,-0.2967157363891601,-1.1560876369476318
2024-12-07 15:59:53.020265000,0.958264892578125,-0.0383472628891468,-0.2835454940795898,-0.0922764241695404
2024-12-07 15:59:53.030292000,0.9682919921875,-0.0651385486125946,-0.384225845336914,0.01511150598526
2024-12-07 15:59:53.040319200,0.9783193359375,0.4829575419425964,-0.4128532409667969,0.4257068336009979
2024-12-07 15:59:53.050346500,0.988346435546875,0.6657894849777222,-0.3181514739990234,0.5092378258705139
2024-12-07 15:59:53.060373800,0.998373779296875,0.3462000489234924,-0.1440515518188476,0.3954474031925201
2024-12-07 15:59:53.070401000,1.008401123046875,-0.3688820898532867,-0.0239229202270507,0.1760172396898269
2024-12-07 15:59:53.080428300,1.01842822265625,-0.9229873418807985,0.0760831832885742,0.4000197947025299
2024-12-07 15:59:53.090455600,1.02845556640625,-0.937720775604248,0.0994577407836914,0.5906007289886475
2024-12-07 15:59:53.100482800,1.03848291015625,-0.6219898462295532,0.2506265640258789,0.3671403229236603
2024-12-07 15:59:53.110510000,1.048510009765625,-0.543748140335083,0.0828733444213867,0.0112501829862594
2024-12-07 15:59:53.120537300,1.058537353515625,-0.335833877325058,-0.0878858566284179,-0.350345104932785
2024-12-07 15:59:53.130564400,1.068564453125,-0.1854641139507293,-0.313852310180664,-0.7243267893791199
2024-12-07 15:59:53.140591600,1.078591552734375,-0.2062880843877792,-0.4808073043823242,-1.3506475687026978
2024-12-07 15:59:53.150619000,1.088618896484375,-0.3437578678131103,-0.518310546875,-2.0885281562805176
2024-12-07 15:59:53.160646100,1.098646240234375,-0.3253385126590729,-0.5035257339477539,-2.6019127368927
2024-12-07 15:59:53.170673400,1.10867333984375,-0.0861610546708107,-0.4938430786132812,-2.283613681793213
2024-12-07 15:59:53.180700700,1.11870068359375,0.2478098422288894,-0.4702358245849609,-1.438135266304016
2024-12-07 15:59:53.190728000,1.12872802734375,0.5835826992988586,-0.3759241104125976,-0.7714522480964661
2024-12-07 15:59:53.200755200,1.138755126953125,0.8858646154403687,-0.2637090682983398,-0.4122809469699859
2024-12-07 15:59:53.210782500,1.148782470703125,0.9546083211898804,-0.2664813995361328,-0.4345453977584839
2024-12-07 15:59:53.220809700,1.158809814453125,0.9682811498641968,-0.3641834259033203,-0.5640659928321838
2024-12-07 15:59:53.230837000,1.1688369140625,1.0280808210372925,-0.4705953598022461,-0.7662694454193115
2024-12-07 15:59:53.240864000,1.178864013671875,1.1107029914855957,-0.4197111129760742,-0.7435235977172852
2024-12-07 15:59:53.250891300,1.188891357421875,1.663892149925232,-0.6019134521484375,-1.3128107786178589
2024-12-07 15:59:53.260918500,1.19891845703125,1.9724187850952148,-0.6496038436889648,-1.8056936264038088
2024-12-07 15:59:53.270945800,1.20894580078125,2.155073642730713,-0.8532838821411133,-2.3484623432159424
2024-12-07 15:59:53.280973000,1.21897314453125,2.220329999923706,-1.1923933029174805,-2.973809242248535
2024-12-07 15:59:53.291000300,1.229000244140625,2.097332239151001,-1.575490951538086,-3.5812296867370605
2024-12-07 15:59:53.301027600,1.239027587890625,1.7609779834747314,-1.6938352584838867,-3.877328872680664
2024-12-07 15:59:53.311054800,1.249054931640625,1.479309320449829,-1.398240089416504,-3.369093656539917
2024-12-07 15:59:53.321082000,1.25908203125,2.0252392292022705,-1.181447982788086,-2.7592554092407227
2024-12-07 15:59:53.331109400,1.269109375,2.6575281620025635,-1.0240001678466797,-2.465368270874023
2024-12-07 15:59:53.341136400,1.279136474609375,2.6216790676116943,-0.8972692489624023,-2.268141031265259
2024-12-07 15:59:53.351163600,1.28916357421875,2.3537614345550537,-0.9011030197143556,-1.799574851989746
2024-12-07 15:59:53.361191000,1.29919091796875,2.181898832321167,-1.011016845703125,-1.1519633531570437
2024-12-07 15:59:53.371218200,1.30921826171875,2.3478479385375977,-1.2027873992919922,-0.441902220249176
2024-12-07 15:59:53.381245400,1.319245361328125,2.612697124481201,-1.3719797134399414,0.1586314141750335
2024-12-07 15:59:53.391272700,1.329272705078125,2.677415370941162,-1.3868131637573242,0.6734594106674194
2024-12-07 15:59:53.401300000,1.339300048828125,2.300550937652588,-1.1403074264526367,0.8317480087280273
2024-12-07 15:59:53.411327200,1.3493271484375,1.2979423999786377,-0.8537235260009766,1.0485681295394895
2024-12-07 15:59:53.421354500,1.3593544921875,-0.0815033912658691,-0.2279090881347656,1.2250415086746216
2024-12-07 15:59:53.431381500,1.369381591796875,-1.4227161407470703,0.2748785018920898,1.1162744760513306
2024-12-07 15:59:53.441408800,1.37940869140625,-2.3362135887146,0.8379669189453125,0.8226296901702881
2024-12-07 15:59:53.451436000,1.38943603515625,-2.656756401062012,1.1775598526000977,0.3321619927883148
2024-12-07 15:59:53.461463300,1.39946337890625,-2.2348291873931885,1.1298131942749023,-0.2939212322235107
2024-12-07 15:59:53.471490300,1.409490234375,-1.247724533081055,0.6965303421020508,-0.8257731795310974
2024-12-07 15:59:53.481517600,1.419517578125,-0.6156816482543945,-0.0640211105346679,-0.2058346271514892
2024-12-07 15:59:53.491544800,1.429544921875,-0.6594271659851074,-0.8122425079345703,0.7163138389587402
2024-12-07 15:59:53.501571800,1.43957177734375,-1.9767842292785645,-1.3271942138671875,1.1825095415115356
2024-12-07 15:59:53.511599000,1.44959912109375,-3.6613383293151855,-1.5635194778442385,1.227894306182861
2024-12-07 15:59:53.521626400,1.45962646484375,-4.583481788635254,-1.5449151992797852,0.8633017539978027
2024-12-07 15:59:53.531653400,1.4696533203125,-4.315366268157959,-1.421544075012207,0.3774294853210449
2024-12-07 15:59:53.541680600,1.4796806640625,-2.973688125610352,-1.425210952758789,0.3723108172416687
2024-12-07 15:59:53.551708000,1.4897080078125,-1.2100852727890017,-1.3296546936035156,0.3419253826141357
2024-12-07 15:59:53.561735200,1.499735107421875,0.2343535423278808,-1.0289373397827148,0.0769751071929931
2024-12-07 15:59:53.571762200,1.50976220703125,0.939276933670044,-0.9921655654907228,0.2872408628463745
2024-12-07 15:59:53.581789400,1.51978955078125,1.0979909896850586,-0.8086147308349609,0.7529265880584717
2024-12-07 15:59:53.591816700,1.529816650390625,0.6186368465423584,-0.4879589080810547,1.316760540008545
2024-12-07 15:59:53.601843700,1.53984375,-0.0709807872772216,0.0033330917358398,1.8431127071380613
2024-12-07 15:59:53.611871000,1.54987109375,-0.8642120361328125,0.3656988143920898,2.351558446884156
2024-12-07 15:59:53.621898200,1.559898193359375,-2.124585151672364,0.7737922668457031,2.8039093017578125
2024-12-07 15:59:53.631925200,1.56992529296875,-4.256422996520996,0.9881067276000975,3.4991378784179688
2024-12-07 15:59:53.641952500,1.579952392578125,-4.271767139434815,1.270421028137207,3.51468276977539
2024-12-07 15:59:53.651979800,1.589979736328125,-2.116488218307495,1.2917718887329102,3.260852813720703
2024-12-07 15:59:53.662007000,1.600007080078125,-1.7138371467590332,1.2037935256958008,3.1085686683654785
2024-12-07 15:59:53.672034000,1.610033935546875,-2.33370590209961,1.1060419082641602,2.763284683227539
2024-12-07 15:59:53.682061300,1.620061279296875,-2.15158748626709,1.0360374450683594,2.0785961151123047
2024-12-07 15:59:53.692088600,1.630088623046875,-1.908217549324036,0.8169851303100586,1.4827978610992432
2024-12-07 15:59:53.702115600,1.640115478515625,-2.0541422367095947,0.6545133590698242,1.1108875274658203
2024-12-07 15:59:53.712142800,1.650142822265625,-2.244366407394409,0.5919828414916992,1.3126401901245115
2024-12-07 15:59:53.722170000,1.660170166015625,-2.313847541809082,0.7154045104980469,1.961289525032044
2024-12-07 15:59:53.732197000,1.670197021484375,-2.2779126167297363,0.9854183197021484,2.487755298614502
2024-12-07 15:59:53.742224400,1.680224365234375,-2.1622982025146484,1.1961402893066406,2.9729719161987305
2024-12-07 15:59:53.752251600,1.690251708984375,-2.028444766998291,1.3767032623291016,3.3888907432556152
2024-12-07 15:59:53.762279000,1.70027880859375,-1.709842085838318,1.517747402191162,3.4691781997680664
2024-12-07 15:59:53.772306000,1.710305908203125,-1.5934078693389893,1.5336947441101074,3.4103498458862305
2024-12-07 15:59:53.782333200,1.720333251953125,-1.5779619216918943,1.344013214111328,3.1666131019592285
2024-12-07 15:59:53.792360400,1.7303603515625,-1.5015850067138672,1.0300064086914062,2.6414599418640137
2024-12-07 15:59:53.802387500,1.740387451171875,-1.1381111145019531,0.5770425796508789,1.9092507362365725
2024-12-07 15:59:53.812414700,1.750414794921875,-0.6261003017425537,0.1128692626953125,0.8963353037834167
2024-12-07 15:59:53.822442000,1.76044189453125,-0.1548261642456054,-0.1541452407836914,0.00483238697052
2024-12-07 15:59:53.832469000,1.770468994140625,0.5061712265014648,-0.2118749618530273,-0.3280432224273681
2024-12-07 15:59:53.842496300,1.780496337890625,0.9246704578399658,-0.0002164840698242,-0.3023799657821655
2024-12-07 15:59:53.852523500,1.7905234375,1.141141653060913,0.3275899887084961,-0.198154330253601
2024-12-07 15:59:53.862550800,1.80055078125,1.3063344955444336,0.5666542053222656,-0.0525332689285278
2024-12-07 15:59:53.872577800,1.810577880859375,1.4451515674591064,0.5701932907104492,0.4867469072341919
2024-12-07 15:59:53.882605000,1.82060498046875,1.7037997245788574,0.3584461212158203,0.8397876620292664
2024-12-07 15:59:53.892632300,1.83063232421875,2.005945205688477,-0.1397409439086914,0.830167293548584
2024-12-07 15:59:53.902659300,1.840659423828125,2.364915609359741,-0.7862234115600586,0.279499351978302
2024-12-07 15:59:53.912686600,1.8506865234375,2.352657556533813,-1.5296382904052734,-0.712394118309021
2024-12-07 15:59:53.922713900,1.8607138671875,1.9862136840820312,-2.19439697265625,-2.0600318908691406
2024-12-07 15:59:53.932740900,1.870740966796875,1.4115452766418457,-2.475536346435547,-3.371814489364624
2024-12-07 15:59:53.942768000,1.88076806640625,1.2698066234588623,-2.239882469177246,-3.9353857040405273
2024-12-07 15:59:53.952795400,1.89079541015625,1.7702996730804443,-1.832463264465332,-4.504517555236816
2024-12-07 15:59:53.962822700,1.90082275390625,2.617567300796509,-1.5070323944091797,-4.8862504959106445
2024-12-07 15:59:53.972850000,1.910849853515625,3.1597931385040283,-0.930166244506836,-4.120548725128174
2024-12-07 15:59:53.982877200,1.920877197265625,2.839332342147827,0.0750665664672851,-2.225004196166992
2024-12-07 15:59:53.992904400,1.930904541015625,2.005967855453491,1.1197500228881836,-0.4354898929595947
2024-12-07 15:59:54.002931700,1.940931640625,0.90580153465271,1.4827280044555664,1.1339341402053833
2024-12-07 15:59:54.012959000,1.950958984375,-0.0867586135864257,1.149923324584961,2.3584721088409424
2024-12-07 15:59:54.022986200,1.960986328125,-1.2532548904418943,0.6206550598144531,3.2871627807617188
2024-12-07 15:59:54.033013500,1.971013427734375,-2.546475887298584,-0.0601625442504882,4.312224864959717
2024-12-07 15:59:54.043040500,1.98104052734375,-3.323595762252808,-1.0239858627319336,5.303277969360352
2024-12-07 15:59:54.053067800,1.99106787109375,-3.496243476867676,-2.098109245300293,5.858615398406982
2024-12-07 15:59:54.063095000,2.001094970703125,-3.233515501022339,-2.8279285430908203,5.425846576690674
2024-12-07 15:59:54.073122300,2.011122314453125,-2.572275400161743,-3.1858062744140625,4.378271579742432
2024-12-07 15:59:54.083149600,2.021149658203125,-1.4091492891311646,-3.424654960632324,3.2675230503082275
2024-12-07 15:59:54.093176800,2.0311767578125,0.0349500179290771,-3.4232959747314453,1.888971328735352
2024-12-07 15:59:54.103204000,2.0412041015625,1.1870412826538086,-3.3936595916748047,0.3951141238212585
2024-12-07 15:59:54.113231400,2.0512314453125,1.6918578147888184,-3.250150680541992,-0.7400885820388794
2024-12-07 15:59:54.123258600,2.061258544921875,1.887739896774292,-2.678361892700196,-1.239928126335144
2024-12-07 15:59:54.133286000,2.071285888671875,1.9088163375854488,-1.513410568237305,-1.167598843574524
2024-12-07 15:59:54.143313000,2.08131298828125,1.5095174312591553,-0.2338628768920898,-0.4634240865707397
2024-12-07 15:59:54.153340200,2.091340087890625,0.8458826541900635,0.9701557159423828,0.6057132482528687
2024-12-07 15:59:54.163367400,2.101367431640625,-0.5028235912322998,2.190645694732666,1.35945463180542
2024-12-07 15:59:54.173394700,2.111394775390625,-2.382789373397827,3.26762056350708,1.724149465560913
2024-12-07 15:59:54.183422000,2.121421875,-3.578097343444824,3.889309883117676,1.742863655090332
2024-12-07 15:59:54.193449200,2.13144921875,-3.862206935882568,3.8533859252929688,1.6444300413131714
2024-12-07 15:59:54.203476500,2.1414765625,-3.3582592010498047,3.109595775604248,1.3369255065917969
2024-12-07 15:59:54.213503700,2.151503662109375,-2.5290687084198,2.2028517723083496,0.4975194633007049
2024-12-07 15:59:54.223531000,2.161531005859375,-2.2998225688934326,1.2860441207885742,-0.180504709482193
2024-12-07 15:59:54.233558300,2.171558349609375,-2.2514748573303223,0.2800874710083008,-0.6348972320556641
2024-12-07 15:59:54.243585500,2.18158544921875,-1.588854432106018,-0.5000009536743164,-1.1268545389175415
2024-12-07 15:59:54.253612500,2.191612548828125,-0.930840253829956,-1.2806777954101562,-1.6108615398406982
2024-12-07 15:59:54.263639800,2.201639892578125,-0.5592280626296997,-1.843732833862305,-2.2972307205200195
2024-12-07 15:59:54.273667000,2.2116669921875,-0.0773589611053466,-2.038488388061523,-3.116666078567505
2024-12-07 15:59:54.283694300,2.2216943359375,0.3286595344543457,-1.9245061874389648,-3.4841461181640625
2024-12-07 15:59:54.293721600,2.2317216796875,0.3578310012817383,-1.3888940811157229,-3.311032772064209
2024-12-07 15:59:54.303748900,2.241748779296875,0.2422007322311401,-0.6238985061645508,-2.979702949523926
2024-12-07 15:59:54.313776000,2.251776123046875,-0.053312063217163,0.0315780639648437,-2.376976728439331
2024-12-07 15:59:54.323803400,2.261803466796875,-0.6622520685195923,0.5502662658691406,-1.733392596244812
2024-12-07 15:59:54.333830700,2.27183056640625,-1.1259547472000122,0.7954750061035156,-1.0817773342132568
2024-12-07 15:59:54.343858000,2.28185791015625,-1.4372751712799072,0.7976131439208984,-0.4905537366867065
2024-12-07 15:59:54.353885000,2.291885009765625,-1.4433568716049194,0.6198434829711914,0.0838116109371185
2024-12-07 15:59:54.363912200,2.301912109375,-1.119746446609497,0.4340734481811523,0.688851535320282
2024-12-07 15:59:54.373939500,2.311939453125,-0.6285800933837891,0.1683273315429687,1.1138370037078855
2024-12-07 15:59:54.383966700,2.321966796875,-0.1933211088180542,-0.0918159484863281,1.1330204010009766
2024-12-07 15:59:54.393994000,2.331993896484375,-0.0339553356170654,-0.2798709869384765,1.2469632625579834
2024-12-07 15:59:54.404021200,2.342021240234375,-0.0109608173370361,-0.3150978088378906,1.4077023267745972
2024-12-07 15:59:54.414048500,2.352048583984375,0.1096245050430297,-0.2029657363891601,1.3105406761169434
2024-12-07 15:59:54.424075800,2.36207568359375,0.107438325881958,-0.0920190811157226,1.1447629928588867
2024-12-07 15:59:54.434103000,2.37210302734375,0.0827076435089111,0.0177249908447265,0.9208592176437378
2024-12-07 15:59:54.444130000,2.382130126953125,-0.0507657527923584,0.1929903030395507,0.8016735315322876
2024-12-07 15:59:54.454157300,2.3921572265625,-0.2355819940567016,0.3619937896728515,0.6151525974273682
2024-12-07 15:59:54.464184600,2.4021845703125,-0.4789963662624359,0.4773759841918945,0.689278244972229
2024-12-07 15:59:54.474211800,2.4122119140625,-0.5069108009338379,0.4681835174560547,0.8867479562759399
2024-12-07 15:59:54.484238800,2.42223876953125,-0.3107501864433288,0.4256010055541992,1.0435577630996704
2024-12-07 15:59:54.494266000,2.43226611328125,-0.0727881789207458,0.3593692779541015,1.2155537605285645
2024-12-07 15:59:54.504293400,2.44229345703125,0.1585506796836853,0.3125467300415039,1.329221487045288
2024-12-07 15:59:54.514320400,2.4523203125,0.274026095867157,0.1897859573364257,1.354968786239624
2024-12-07 15:59:54.524347600,2.46234765625,0.3748189806938171,0.1344785690307617,1.1072570085525513
2024-12-07 15:59:54.534375000,2.472375,0.3845599889755249,0.1081056594848632,0.7984343767166138
2024-12-07 15:59:54.544402000,2.48240185546875,0.3654379248619079,0.2058134078979492,0.3015330135822296
2024-12-07 15:59:54.554429200,2.49242919921875,0.3403260111808777,0.3649158477783203,-0.4181916713714599
2024-12-07 15:59:54.564456400,2.50245654296875,0.1323809623718261,0.2275094985961914,-0.8585973978042603
2024-12-07 15:59:54.574483700,2.512483642578125,-0.3072935938835144,-0.2478542327880859,-1.2127113342285156
2024-12-07 15:59:54.584510700,2.5225107421875,-0.6422470211982727,-0.7307748794555664,-1.5778554677963257
2024-12-07 15:59:54.594538000,2.5325380859375,-0.9761675000190736,-0.8921384811401367,-1.1101481914520264
2024-12-07 15:59:54.604565200,2.542565185546875,-0.9393935203552246,-0.6520767211914062,-0.7310669422149658
2024-12-07 15:59:54.614592300,2.55259228515625,-0.5241348743438721,-0.3604669570922851,-0.1776846647262573
2024-12-07 15:59:54.624619500,2.56261962890625,-0.0773951709270477,-0.0891475677490234,0.5554754734039307
2024-12-07 15:59:54.634646800,2.572646728515625,0.4837356805801391,0.1093807220458984,1.0216889381408691
2024-12-07 15:59:54.644673800,2.582673828125,0.968880295753479,0.3163070678710937,1.293122410774231
2024-12-07 15:59:54.654701000,2.592701171875,1.1628875732421875,0.3551168441772461,1.33528733253479
2024-12-07 15:59:54.664728300,2.602728271484375,1.3921445608139038,0.3026056289672851,0.7256900072097778
2024-12-07 15:59:54.674755600,2.612755615234375,1.1044692993164062,0.1592111587524414,0.4926582276821136
2024-12-07 15:59:54.684782600,2.622782470703125,0.8069787621498108,0.058908462524414,-0.037767369300127
2024-12-07 15:59:54.694809900,2.632809814453125,0.8150779604911804,-0.0604743957519531,-0.6289365291595459
2024-12-07 15:59:54.704837000,2.642837158203125,0.7739949822425842,-0.2227182388305664,-0.9329206347465516
2024-12-07 15:59:54.714864000,2.652864013671875,0.8995295763015747,-0.1748981475830078,-1.6807918548583984
2024-12-07 15:59:54.724891400,2.662891357421875,0.6738385558128357,-0.2658681869506836,-2.188145399093628
2024-12-07 15:59:54.734918700,2.672918701171875,0.0361032411456108,-0.2564716339111328,-2.460521459579468
2024-12-07 15:59:54.744945700,2.682945556640625,-0.6748396158218384,-0.0276861190795898,-2.4484496116638184
2024-12-07 15:59:54.754973000,2.692972900390625,-1.167918682098389,0.3290367126464844,-2.211555004119873
2024-12-07 15:59:54.765000200,2.703000244140625,-1.3670841455459597,0.7845172882080078,-2.1728806495666504
2024-12-07 15:59:54.775027500,2.71302734375,-1.244706630706787,0.9901084899902344,-2.132797241210937
2024-12-07 15:59:54.785054500,2.723054443359375,-0.7747317552566528,0.8179969787597656,-1.9999189376831057
2024-12-07 15:59:54.795081700,2.733081787109375,-0.3896774649620056,0.3078012466430664,-1.6678022146224976
2024-12-07 15:59:54.805109000,2.74310888671875,0.0147938281297683,-0.219757080078125,-0.8942975401878357
2024-12-07 15:59:54.815136000,2.753135986328125,1.039892554283142,-0.9462032318115234,-0.2091125398874282
2024-12-07 15:59:54.825163300,2.763163330078125,2.4803175926208496,-1.7513856887817385,0.268155574798584
2024-12-07 15:59:54.835190500,2.7731904296875,3.172208786010742,-2.38153076171875,0.4383912086486816
2024-12-07 15:59:54.845217500,2.783217529296875,2.247422933578491,-2.712554931640625,-0.0117777585983276
2024-12-07 15:59:54.855244800,2.793244873046875,0.1298169791698455,-2.559457778930664,-0.2564069628715515
2024-12-07 15:59:54.865272000,2.80327197265625,-1.3028099536895752,-2.182512283325196,0.4905266463756561
2024-12-07 15:59:54.875299300,2.81329931640625,-1.142640471458435,-1.607036590576172,1.1152950525283811
2024-12-07 15:59:54.885326300,2.823326416015625,-0.3017362654209137,-0.9626407623291016,0.8085999488830566
2024-12-07 15:59:54.895353600,2.833353515625,0.0460747182369232,-0.6880588531494141,0.1923189759254455
2024-12-07 15:59:54.905380900,2.843380859375,-0.4971001744270324,-0.7963342666625977,-0.328252375125885
2024-12-07 15:59:54.915408000,2.853407958984375,-0.8702620267868042,-1.157268524169922,-0.5474027395248413
2024-12-07 15:59:54.925435100,2.86343505859375,-0.4127793908119201,-1.2066764831542969,-0.409844696521759
2024-12-07 15:59:54.935462400,2.87346240234375,0.2410305887460708,-0.7640094757080078,0.1382262706756591
2024-12-07 15:59:54.945489700,2.88348974609375,0.2055887579917907,-0.2367143630981445,1.1736915111541748
2024-12-07 15:59:54.955517000,2.893516845703125,0.044907733798027,0.1407451629638672,1.823164820671081
2024-12-07 15:59:54.965544000,2.9035439453125,0.0001309961080551,0.5214309692382812,2.082606077194214
2024-12-07 15:59:54.975571200,2.9135712890625,-0.0431724488735199,0.9003963470458984,1.8660978078842163
2024-12-07 15:59:54.985598500,2.923598388671875,-0.3270723521709442,1.2298927307128906,1.2855122089385986
2024-12-07 15:59:54.995625700,2.933625732421875,-0.4655227065086365,1.4625091552734375,0.6163448691368103
2024-12-07 15:59:55.005653000,2.943653076171875,-0.3190900981426239,1.579729080200195,0.0521321296691894
2024-12-07 15:59:55.015680300,2.95368017578125,0.0099938455969095,1.50567626953125,-0.3120511770248413
2024-12-07 15:59:55.025707500,2.96370751953125,0.3283206820487976,1.336441993713379,-0.5824017524719238
2024-12-07 15:59:55.035734800,2.97373486328125,0.4904972612857818,1.1152982711791992,-0.7495830059051514
2024-12-07 15:59:55.045762000,2.983761962890625,0.6055456399917603,0.8233699798583984,-0.8274483680725098
2024-12-07 15:59:55.055789300,2.993789306640625,0.7997736930847168,0.4420242309570312,-1.0992374420166016
2024-12-07 15:59:55.065816600,3.003816650390625,0.5850921273231506,0.0766363143920898,-0.7029717564582825
2024-12-07 15:59:55.075843600,3.013843505859375,0.3077209293842315,-0.2062835693359375,-0.2627177238464355
2024-12-07 15:59:55.085870800,3.023870849609375,0.2632301151752472,-0.2592668533325195,0.1544827222824096
2024-12-07 15:59:55.095898000,3.033898193359375,0.3449351489543915,-0.1741285324096679,0.4898873567581177
2024-12-07 15:59:55.105925400,3.04392529296875,0.3460202813148498,0.0291090011596679,0.7178347706794739
2024-12-07 15:59:55.115952600,3.05395263671875,0.4797858595848083,0.2446403503417968,0.7618188261985779
2024-12-07 15:59:55.125980000,3.06397998046875,0.6008968949317932,0.4337606430053711,0.6319046020507812
2024-12-07 15:59:55.136007200,3.074007080078125,0.6094452738761902,0.5007925033569336,0.3777568936347961
2024-12-07 15:59:55.146034400,3.084034423828125,0.5974539518356323,0.3265342712402344,0.211124300956726
2024-12-07 15:59:55.156061700,3.094061767578125,0.352334976196289,-0.059880256652832,0.3077694177627563
2024-12-07 15:59:55.166089000,3.1040888671875,0.1543412208557129,-0.4622659683227539,0.3599385023117065
2024-12-07 15:59:55.176116000,3.114115966796875,0.019622802734375,-0.756657600402832,0.3847129940986633
2024-12-07 15:59:55.186143200,3.124143310546875,0.0776005983352661,-1.1583194732666016,0.2047179937362671
2024-12-07 15:59:55.196170500,3.13417041015625,0.2262434959411621,-1.323542594909668,-0.0899809896945953
2024-12-07 15:59:55.206197800,3.14419775390625,-0.019675850868225,-1.2862539291381836,-0.522019624710083
2024-12-07 15:59:55.216225000,3.15422509765625,-0.3513875007629394,-0.9647045135498048,-0.6283774375915527
2024-12-07 15:59:55.226252300,3.164252197265625,-0.5839376449584961,-0.8352069854736328,-0.8201341032981873
2024-12-07 15:59:55.236279600,3.174279541015625,-0.4067327976226806,-0.8146486282348633,-0.886397659778595
2024-12-07 15:59:55.246306800,3.184306884765625,-0.4365272521972656,-0.7880735397338867,-0.9438952207565308
2024-12-07 15:59:55.256334000,3.194333984375,-1.0655003786087036,-0.9565467834472656,-1.4682166576385498
2024-12-07 15:59:55.266361300,3.204361328125,-1.347793459892273,-1.2438135147094729,-1.7530901432037354
2024-12-07 15:59:55.276388600,3.214388671875,-1.9487206935882568,-1.4206428527832031,-1.6662088632583618
2024-12-07 15:59:55.286415600,3.22441552734375,-2.541003465652466,-1.4053220748901367,-1.5168781280517578
2024-12-07 15:59:55.296443000,3.23444287109375,-2.756208896636963,-1.182870864868164,-1.165085792541504
2024-12-07 15:59:55.306470100,3.24447021484375,-2.075485944747925,-1.408249855041504,-1.150323748588562
2024-12-07 15:59:55.316497400,3.254497314453125,-0.6104228496551514,-1.5198345184326172,-0.6575531959533691
2024-12-07 15:59:55.326524700,3.264524658203125,0.8927457332611084,-1.5258359909057615,-0.2349971532821655
2024-12-07 15:59:55.336552000,3.274552001953125,1.8043067455291748,-1.7768173217773438,1.192764163017273
2024-12-07 15:59:55.346579200,3.2845791015625,1.9020802974700928,-1.336176872253418,1.3649890422821045
2024-12-07 15:59:55.356606500,3.2946064453125,1.0123789310455322,-0.8627157211303711,1.809625744819641
2024-12-07 15:59:55.366633700,3.3046337890625,0.0634453296661377,-0.2044830322265625,2.132399082183838
2024-12-07 15:59:55.376661000,3.314660888671875,-0.5985321998596191,0.377995491027832,2.382758855819702
2024-12-07 15:59:55.386688000,3.32468798828125,-1.08809494972229,0.8524198532104492,2.593940258026123
2024-12-07 15:59:55.396715300,3.33471533203125,-1.5258262157440186,1.2047739028930664,2.6572206020355225
2024-12-07 15:59:55.406742500,3.344742431640625,-1.97828471660614,1.402205467224121,2.622368335723877
2024-12-07 15:59:55.416769800,3.354769775390625,-2.2012314796447754,1.450066089630127,2.4919707775115967
2024-12-07 15:59:55.426797000,3.364797119140625,-2.280834674835205,1.2729501724243164,2.466428518295288
2024-12-07 15:59:55.436824000,3.374823974609375,-2.1505918502807617,1.0293912887573242,2.602440595626831
2024-12-07 15:59:55.446851300,3.384851318359375,-1.8354023694992063,1.0106687545776367,2.427482843399048
2024-12-07 15:59:55.456878600,3.394878662109375,-2.015028238296509,0.795536994934082,2.8735287189483643
2024-12-07 15:59:55.466905600,3.404905517578125,-2.035539388656616,0.8493318557739258,2.691427707672119
2024-12-07 15:59:55.476932900,3.414932861328125,-1.9806468486785889,0.9364461898803712,2.613729953765869
2024-12-07 15:59:55.486960000,3.424960205078125,-1.918794870376587,1.0943756103515625,2.654494285583496
2024-12-07 15:59:55.496987400,3.4349873046875,-1.8653594255447388,1.2173395156860352,2.699126720428467
2024-12-07 15:59:55.507014400,3.445014404296875,-1.7862151861190796,1.2960529327392578,2.7574172019958496
2024-12-07 15:59:55.517041700,3.455041748046875,-1.5042221546173096,1.254465103149414,2.7669501304626465
2024-12-07 15:59:55.527069000,3.46506884765625,-1.1351203918457031,1.0306377410888672,2.660416841506958
2024-12-07 15:59:55.537096000,3.475095947265625,-0.8371984958648682,0.7582426071166992,2.3961081504821777
2024-12-07 15:59:55.547123200,3.485123291015625,-0.5918409824371338,0.5368318557739258,2.0481855869293213
2024-12-07 15:59:55.557150500,3.495150390625,-0.3621165752410888,0.3889951705932617,1.6288186311721802
2024-12-07 15:59:55.567177700,3.505177734375,-0.1545276641845703,0.2609291076660156,1.2831958532333374
2024-12-07 15:59:55.577204700,3.515204833984375,-0.0474495887756347,0.180307388305664,0.9115676283836364
2024-12-07 15:59:55.587232000,3.52523193359375,0.1587390899658203,0.1992549896240234,0.5656046867370605
2024-12-07 15:59:55.597259300,3.53525927734375,0.3563330173492431,0.212066650390625,0.2234994173049926
2024-12-07 15:59:55.607286300,3.545286376953125,0.4829514026641845,0.2233552932739257,-0.0664119720458984
2024-12-07 15:59:55.617313500,3.5553134765625,0.6482675075531006,0.1375513076782226,-0.2946654558181762
2024-12-07 15:59:55.627340800,3.5653408203125,0.7523729801177979,-0.0115203857421875,-0.4752300977706909
2024-12-07 15:59:55.637367800,3.575367919921875,0.9250922203063964,-0.2521314620971679,-0.5980561971664429
2024-12-07 15:59:55.647395000,3.58539501953125,1.2233092784881592,-0.5409679412841797,-0.7787333726882935
2024-12-07 15:59:55.657422300,3.59542236328125,1.632000207901001,-0.8494195938110352,-1.1311159133911133
2024-12-07 15:59:55.667449600,3.60544970703125,2.0110435485839844,-1.111191749572754,-1.4479584693908691
2024-12-07 15:59:55.677476600,3.6154765625,2.0322165489196777,-1.111492156982422,-1.802950739860535
2024-12-07 15:59:55.687504000,3.62550390625,2.003983736038208,-0.8315925598144531,-2.260398626327514
2024-12-07 15:59:55.697531100,3.63553125,1.892913579940796,-0.4925556182861328,-2.800358533859253
2024-12-07 15:59:55.707558100,3.64555810546875,1.6175923347473145,-0.2144861221313476,-3.213220596313477
2024-12-07 15:59:55.717585400,3.65558544921875,1.188722848892212,-0.049239158630371,-3.4298038482666016
2024-12-07 15:59:55.727612700,3.66561279296875,0.8178853988647461,0.0230865478515625,-3.7386841773986816
2024-12-07 15:59:55.737639700,3.6756396484375,0.2714104652404785,-0.0067615509033203,-3.8817124366760254
2024-12-07 15:59:55.747667000,3.6856669921875,-0.0808780193328857,-0.0280256271362304,-3.808775186538696
2024-12-07 15:59:55.757694200,3.695694091796875,0.1270084381103515,-0.1218528747558593,-3.204598903656006
2024-12-07 15:59:55.767721500,3.705721435546875,0.5268282890319824,-0.0069818496704101,-2.437809705734253
2024-12-07 15:59:55.777748500,3.71574853515625,0.6546211242675781,0.4454383850097656,-1.5079084634780884
2024-12-07 15:59:55.787775700,3.725775634765625,0.8051540851593018,1.0688276290893557,-0.6050139665603638
2024-12-07 15:59:55.797803000,3.735802978515625,0.9190325736999512,1.7543511390686035,0.0674899816513061
2024-12-07 15:59:55.807830000,3.745830078125,0.8460874557495117,2.345536231994629,0.5702229738235474
2024-12-07 15:59:55.817857300,3.755857177734375,0.744492769241333,2.8238654136657715,0.9740656614303588
2024-12-07 15:59:55.827884500,3.765884521484375,0.4220838546752929,3.113145351409912,1.330348014831543
2024-12-07 15:59:55.837911600,3.77591162109375,-0.1677114963531494,3.1139016151428223,1.6098161935806274
2024-12-07 15:59:55.847938800,3.785938720703125,-0.8401150703430176,2.8658318519592285,1.869928836822509
2024-12-07 15:59:55.857966000,3.795966064453125,-1.299985408782959,2.1793365478515625,2.183328866958618
2024-12-07 15:59:55.867993300,3.805993408203125,-1.4838300943374634,0.9269161224365234,2.645343780517578
2024-12-07 15:59:55.878020400,3.816020263671875,-1.6393824815750122,-0.6652965545654297,3.0817370414733887
2024-12-07 15:59:55.888047600,3.826047607421875,-1.7985386848449707,-2.3437929153442383,3.312747001647949
2024-12-07 15:59:55.898075000,3.836074951171875,-1.6411322355270386,-3.828200340270996,3.488584041595459
2024-12-07 15:59:55.908102000,3.846101806640625,-1.0001229047775269,-4.90669059753418,3.630404472351074
2024-12-07 15:59:55.918129200,3.856129150390625,0.1432356834411621,-5.721620559692383,3.573860645294189
2024-12-07 15:59:55.928156400,3.866156494140625,1.1076955795288086,-6.11906623840332,2.397213935852051
2024-12-07 15:59:55.938183400,3.876183349609375,1.6719341278076172,-6.761000633239746,1.2739191055297852
2024-12-07 15:59:55.948210700,3.886210693359375,2.5318968296051025,-6.650088310241699,-0.1405361294746399
2024-12-07 15:59:55.958238000,3.896238037109375,4.224977970123291,-5.37907600402832,-0.7333720326423645
2024-12-07 15:59:55.968265200,3.90626513671875,5.132441520690918,-3.996091842651367,-2.323395252227783
2024-12-07 15:59:55.978292500,3.91629248046875,3.601806640625,-2.446850776672364,-3.417587757110596
2024-12-07 15:59:55.988319700,3.92631982421875,0.7822220325469971,-0.22027587890625,-2.638237476348877
2024-12-07 15:59:55.998346800,3.9363466796875,-0.5341733694076538,2.217926502227783,-1.2056995630264282
2024-12-07 15:59:56.008374000,3.9463740234375,-0.2217271327972412,4.271348476409912,0.3232656717300415
2024-12-07 15:59:56.018401300,3.9564013671875,-0.0247671604156494,5.4052510261535645,1.2794268131256104
2024-12-07 15:59:56.028428500,3.966428466796875,-1.117862105369568,5.521625518798828,1.8663806915283203
2024-12-07 15:59:56.038455800,3.976455810546875,-2.209285259246826,5.025721073150635,2.4746036529541016
2024-12-07 15:59:56.048483000,3.986483154296875,-2.60400652885437,3.890399932861328,2.3134498596191406
2024-12-07 15:59:56.058510300,3.99651025390625,-2.6154046058654785,2.31188440322876,1.8294246196746824
2024-12-07 15:59:56.068537600,4.00653759765625,-2.536613702774048,0.7870635986328125,1.3651185035705566
2024-12-07 15:59:56.078564900,4.01656494140625,-2.627740383148194,-0.3071985244750976,0.5439062118530273
2024-12-07 15:59:56.088592100,4.026592041015625,-2.3505005836486816,-1.0534849166870115,-0.5564966797828674
2024-12-07 15:59:56.098619400,4.036619384765625,-1.6990163326263428,-1.4107666015625,-1.6992312669754028
2024-12-07 15:59:56.108646400,4.046646484375,-0.6443233489990234,-1.5009498596191406,-2.5857696533203125
2024-12-07 15:59:56.118673700,4.056673583984375,0.6397354602813721,-1.5220003128051758,-3.3309473991394043
2024-12-07 15:59:56.128701000,4.066700927734375,1.290048360824585,-1.450953483581543,-3.4713473320007324
2024-12-07 15:59:56.138728200,4.076728271484375,1.6001865863800049,-1.4116601943969729,-2.868398904800415
2024-12-07 15:59:56.148755500,4.08675537109375,1.560630202293396,-1.1404781341552734,-1.6755248308181765
2024-12-07 15:59:56.158782700,4.09678271484375,1.154841661453247,-0.8812122344970703,-0.4310593605041504
2024-12-07 15:59:56.168810000,4.10681005859375,0.4430139064788818,-0.4471549987792969,0.4088256955146789
2024-12-07 15:59:56.178837200,4.116837158203125,-0.0471388101577758,-0.0628442764282226,1.144602656364441
2024-12-07 15:59:56.188864500,4.126864501953125,-0.5618163347244263,0.2199478149414062,1.8282415866851809
2024-12-07 15:59:56.198891800,4.136891845703125,-0.8262742161750793,0.4784765243530273,2.2937045097351074
2024-12-07 15:59:56.208918800,4.146918701171875,-0.9386325478553772,0.5168428421020508,2.761955499649048
2024-12-07 15:59:56.218946000,4.156946044921875,-1.1917428970336914,0.6220779418945312,2.815500497817993
2024-12-07 15:59:56.228973300,4.166973388671875,-1.4416216611862185,0.7940454483032227,2.639478921890259
2024-12-07 15:59:56.239000600,4.17700048828125,-1.7247366905212402,0.7269020080566406,1.936239004135132
2024-12-07 15:59:56.249027800,4.18702783203125,-1.851938843727112,0.5694065093994141,0.9956676959991456
2024-12-07 15:59:56.259055000,4.19705517578125,-1.9506679773330688,0.3123025894165039,0.0737513527274131
2024-12-07 15:59:56.269082400,4.207082275390625,-2.0855984687805176,0.0038862228393554,-0.6839340925216675
2024-12-07 15:59:56.279109600,4.217109619140625,-2.163963079452514,-0.1213207244873046,-1.4563558101654053
2024-12-07 15:59:56.289137000,4.227136962890625,-2.0224149227142334,-0.3023309707641601,-1.7419816255569458
2024-12-07 15:59:56.299164200,4.2371640625,-1.640350580215454,-0.3865108489990234,-1.8226141929626465
2024-12-07 15:59:56.309191400,4.24719140625,-1.2228566408157349,-0.4988613128662109,-1.537157416343689
2024-12-07 15:59:56.319218400,4.257218505859375,-0.9345358610153198,-0.5202741622924805,-1.0580326318740845
2024-12-07 15:59:56.329245700,4.26724560546875,-0.7223410606384277,-0.4462718963623047,-0.4663802683353424
2024-12-07 15:59:56.339273000,4.27727294921875,-0.3440834879875183,-0.3872175216674804,0.2111957967281341
2024-12-07 15:59:56.349300200,4.28730029296875,0.0866791009902954,-0.2479190826416015,0.6695141196250916
2024-12-07 15:59:56.359327500,4.297327392578125,0.2582058906555176,-0.0954961776733398,1.1688076257705688
2024-12-07 15:59:56.369354800,4.307354736328125,0.3108530044555664,0.0368614196777343,1.5699279308319092
2024-12-07 15:59:56.379382000,4.317382080078125,0.5241339206695557,0.2875289916992187,1.4069058895111084
2024-12-07 15:59:56.389409300,4.3274091796875,0.4524495005607605,0.4078340530395508,1.5118614435195925
2024-12-07 15:59:56.399436300,4.337436279296875,0.1985712051391601,0.4891300201416015,1.5195815563201904
2024-12-07 15:59:56.409463600,4.347463623046875,0.0953544974327087,0.3742694854736328,1.489594578742981
2024-12-07 15:59:56.419490800,4.35749072265625,-0.0433350205421447,0.3360834121704101,0.9773334860801696
2024-12-07 15:59:56.429518000,4.36751806640625,-0.3507992029190063,0.2453575134277343,0.442158967256546
2024-12-07 15:59:56.439545000,4.377545166015625,-0.7130309343338013,0.2028560638427734,0.0902063027024269
2024-12-07 15:59:56.449572400,4.387572265625,-0.8736719489097595,0.2326030731201172,-0.2321773767471313
2024-12-07 15:59:56.459599600,4.397599609375,-0.9373746514320374,0.4442787170410156,-0.833145022392273
2024-12-07 15:59:56.469626600,4.407626708984375,-0.872041642665863,0.4551210403442383,-1.1157692670822144
2024-12-07 15:59:56.479654000,4.41765380859375,-0.6642415523529053,0.4566154479980469,-1.3581823110580444
2024-12-07 15:59:56.489681200,4.42768115234375,-0.3397624492645263,0.515498161315918,-1.512014865875244
2024-12-07 15:59:56.499708200,4.437708251953125,-0.0822041630744934,0.5025005340576172,-1.4098079204559326
2024-12-07 15:59:56.509735400,4.4477353515625,0.1655635237693786,0.4273405075073242,-1.310803771018982
2024-12-07 15:59:56.519762700,4.4577626953125,0.4235196709632873,0.2567873001098633,-1.5578598976135254
2024-12-07 15:59:56.529790000,4.4677900390625,0.5711721181869507,-0.0185604095458984,-1.3461074829101562
2024-12-07 15:59:56.539817000,4.47781689453125,0.5002976059913635,-0.2693586349487304,-0.9385944604873656
2024-12-07 15:59:56.549844200,4.48784423828125,0.5647107362747192,-0.5339078903198242,-0.6606847643852234
2024-12-07 15:59:56.559871500,4.49787158203125,0.5334466099739075,-0.6164207458496094,-0.3170499801635742
2024-12-07 15:59:56.569898500,4.5078984375,0.4111043810844421,-0.464818000793457,0.0663636028766632
2024-12-07 15:59:56.579925800,4.51792578125,0.1844168603420257,-0.1226186752319336,0.2059961557388305
2024-12-07 15:59:56.589953000,4.527953125,0.0665464699268341,0.1420879364013672,0.4213142096996307
2024-12-07 15:59:56.599980000,4.53797998046875,-0.1515024006366729,0.3678035736083984,0.980218231678009
2024-12-07 15:59:56.610007300,4.54800732421875,-0.1916198879480362,0.4877710342407226,1.21141517162323
2024-12-07 15:59:56.620034600,4.55803466796875,-0.192437544465065,0.5117692947387695,1.4980262517929075
2024-12-07 15:59:56.630061800,4.568061767578125,-0.1002255976200103,0.4734430313110351,1.676993489265442
2024-12-07 15:59:56.640088800,4.5780888671875,0.1510411649942398,0.3537311553955078,1.6055028438568115
2024-12-07 15:59:56.650116000,4.5881162109375,0.5204191207885742,0.2052364349365234,1.3227851390838623
2024-12-07 15:59:56.660143400,4.598143310546875,0.7477030754089355,0.0231666564941406,0.7396934628486633
2024-12-07 15:59:56.670170400,4.60817041015625,0.6560500264167786,-0.2640151977539062,0.0604663044214248
2024-12-07 15:59:56.680197600,4.61819775390625,0.4709853529930115,-0.3980560302734375,-0.3975216150283813
2024-12-07 15:59:56.690225000,4.628224853515625,0.4515837132930755,-0.1929521560668945,-1.1772446632385254
2024-12-07 15:59:56.700252000,4.638251953125,0.2357409000396728,0.1262741088867187,-1.7068746089935305
2024-12-07 15:59:56.710279200,4.648279052734375,-0.3009274005889892,0.3684263229370117,-1.8442773818969729
2024-12-07 15:59:56.720306400,4.658306396484375,-0.6650840640068054,0.4860401153564453,-1.838401198387146
2024-12-07 15:59:56.730333700,4.668333740234375,-0.458041101694107,0.508021354675293,-1.5193603038787842
2024-12-07 15:59:56.740360700,4.678360595703125,0.1872620433568954,0.4010295867919922,-1.0865428447723389
2024-12-07 15:59:56.750388000,4.688387939453125,0.6038881540298462,0.2130041122436523,-0.8012577295303345
2024-12-07 15:59:56.760415200,4.698415283203125,0.7938346266746521,0.0301198959350585,-0.5922603607177734
2024-12-07 15:59:56.770442200,4.708442138671875,0.786746621131897,-0.0665559768676757,-0.5528905987739563
2024-12-07 15:59:56.780469500,4.718469482421875,0.6276873350143433,-0.0343141555786132,-0.5257500410079956
2024-12-07 15:59:56.790496800,4.728496826171875,0.6714693903923035,0.1455278396606445,-0.4785061478614807
2024-12-07 15:59:56.800524000,4.73852392578125,0.9643669128417968,0.1763467788696289,-0.5518006682395935
2024-12-07 15:59:56.810551000,4.748551025390625,1.1511293649673462,0.0824108123779296,-0.5682404041290283
2024-12-07 15:59:56.820578300,4.758578369140625,1.2350014448165894,0.0599737167358398,-0.6842231154441833
2024-12-07 15:59:56.830605600,4.76860546875,1.0087486505508425,-0.062997817993164,-0.5026865005493164
2024-12-07 15:59:56.840632600,4.778632568359375,0.7768992185592651,-0.1765861511230468,-0.3693320155143738
2024-12-07 15:59:56.850659800,4.788659912109375,0.7537012100219727,-0.3762407302856445,-0.4495024979114532
2024-12-07 15:59:56.860687000,4.79868701171875,0.647685170173645,-0.5132369995117188,-0.6151318550109863
2024-12-07 15:59:56.870714000,4.808714111328125,0.3638571500778198,-0.7355966567993164,-0.687113344669342
2024-12-07 15:59:56.880741400,4.818741455078125,0.1861458122730255,-1.009688377380371,-0.808844804763794
2024-12-07 15:59:56.890768600,4.8287685546875,0.0173933506011962,-1.2348508834838867,-1.122225999832153
2024-12-07 15:59:56.900796000,4.8387958984375,-0.2331150770187378,-1.4825315475463867,-1.628440499305725
2024-12-07 15:59:56.910823000,4.848822998046875,-0.63231360912323,-1.7765531539916992,-1.861599922180176
2024-12-07 15:59:56.920850200,4.85885009765625,-0.6987093091011047,-2.355905532836914,-1.995879888534546
2024-12-07 15:59:56.930877400,4.86887744140625,-0.232741117477417,-2.923896789550781,-1.895123839378357
2024-12-07 15:59:56.940904400,4.878904541015625,0.4842020273208618,-3.2036848068237305,-1.75
2024-12-07 15:59:56.950931700,4.888931640625,1.1412837505340576,-3.0382518768310547,-1.4714117050170898
2024-12-07 15:59:56.960959000,4.898958984375,1.65850567817688,-2.6531686782836914,-1.0615944862365725
2024-12-07 15:59:56.970986000,4.908986083984375,2.109011173248291,-2.230287551879883,-0.6922076940536499
2024-12-07 15:59:56.981013200,4.91901318359375,2.162444829940796,-1.7794218063354492,0.0321387648582458
2024-12-07 15:59:56.991040500,4.92904052734375,2.011546850204468,-1.329777717590332,0.5343270897865295
2024-12-07 15:59:57.001067800,4.93906787109375,1.6829439401626587,-0.7335662841796875,0.6528659462928772
2024-12-07 15:59:57.011095000,4.949094970703125,1.537527084350586,-0.0867271423339843,0.3292922973632812
2024-12-07 15:59:57.021122300,4.959122314453125,1.3704787492752075,0.5675973892211914,-0.0511178374290466
2024-12-07 15:59:57.031149600,4.969149658203125,1.2728219032287598,1.2005910873413086,-0.4161110520362854
2024-12-07 15:59:57.041176800,4.9791767578125,1.2589963674545288,1.6307001113891602,-0.9033620953559875
2024-12-07 15:59:57.051203800,4.989203857421875,1.128892421722412,1.882237434387207,-1.3728902339935305
2024-12-07 15:59:57.061231000,4.999231201171875,0.9235789775848388,2.099040031433105,-1.8177814483642576
2024-12-07 15:59:57.071258400,5.00925830078125,0.9273248314857484,2.219331741333008,-2.135260581970215
2024-12-07 15:59:57.081285600,5.01928564453125,1.1254551410675049,2.1193065643310547,-2.366896390914917
2024-12-07 15:59:57.091313000,5.02931298828125,1.1808050870895386,1.899864196777344,-2.395923614501953
2024-12-07 15:59:57.101340200,5.039340087890625,1.053805589675903,1.561232566833496,-2.163167953491211
2024-12-07 15:59:57.111367400,5.049367431640625,0.967831552028656,1.151106834411621,-1.6446528434753418
2024-12-07 15:59:57.121394700,5.059394775390625,0.929954707622528,0.7787618637084961,-0.9950299859046936
2024-12-07 15:59:57.131422000,5.069421875,0.8565735816955566,0.4384040832519531,-0.2156179547309875
2024-12-07 15:59:57.141449200,5.07944921875,0.498440146446228,0.0620298385620117,0.6430555582046509
2024-12-07 15:59:57.151476500,5.0894765625,0.0200510025024414,-0.2985105514526367,1.2630119323730469
2024-12-07 15:59:57.161503500,5.09950341796875,-0.6567298769950867,-0.562474250793457,1.6523388624191284
2024-12-07 15:59:57.171530800,5.10953076171875,-1.1647520065307615,-1.0500555038452148,1.7112507820129397
2024-12-07 15:59:57.181558000,5.11955810546875,-1.546310305595398,-1.6930465698242188,2.028794288635254
2024-12-07 15:59:57.191585300,5.129585205078125,-1.632676601409912,-2.155447006225586,2.1674630641937256
2024-12-07 15:59:57.201612500,5.139612548828125,-1.4101712703704834,-2.450619697570801,2.2663261890411377
2024-12-07 15:59:57.211639800,5.149639892578125,-1.3045765161514282,-2.720595359802246,2.209265947341919
2024-12-07 15:59:57.221667000,5.1596669921875,-1.6567714214324951,-2.9388914108276367,2.036565065383911
2024-12-07 15:59:57.231694300,5.1696943359375,-1.437710165977478,-2.9945363998413086,1.221758246421814
2024-12-07 15:59:57.241721600,5.1797216796875,-1.0972779989242554,-3.123849868774414,0.1031722277402877
2024-12-07 15:59:57.251748900,5.189748779296875,-1.0459455251693726,-3.203509330749512,-0.8961950540542603
2024-12-07 15:59:57.261776000,5.19977587890625,-1.2556190490722656,-2.8185300827026367,-1.694453239440918
2024-12-07 15:59:57.271803100,5.20980322265625,-1.5519630908966064,-2.232602119445801,-2.0741958618164062
2024-12-07 15:59:57.281830400,5.219830322265625,-1.2867109775543213,-1.857796669006348,-1.873776197433472
2024-12-07 15:59:57.291857700,5.229857666015625,-0.4507133960723877,-1.1325912475585938,-1.4276070594787598
2024-12-07 15:59:57.301885000,5.239885009765625,0.5215802192687988,-0.9641046524047852,-1.129100322723389
2024-12-07 15:59:57.311912200,5.249912109375,0.9136896133422852,-0.6171493530273438,-0.5005766153335571
2024-12-07 15:59:57.321939500,5.259939453125,1.1089301109313965,-0.2450284957885742,0.3601745367050171
2024-12-07 15:59:57.331966700,5.269966796875,0.8254776000976562,0.2007923126220703,1.0646851062774658
2024-12-07 15:59:57.341994000,5.279993896484375,-0.5957300662994385,0.5323619842529297,2.2410075664520264
2024-12-07 15:59:57.352021200,5.290021240234375,-1.5796787738800049,1.2089872360229492,2.9289982318878174
2024-12-07 15:59:57.362048500,5.300048583984375,-2.039173126220703,1.597522258758545,3.751019239425659
2024-12-07 15:59:57.372075500,5.310075439453125,-1.879694581031799,1.9804587364196773,3.855091094970703
2024-12-07 15:59:57.382102800,5.320102783203125,-1.5730266571044922,2.13674259185791,3.681790351867676
2024-12-07 15:59:57.392130000,5.330130126953125,-1.602055311203003,2.21877384185791,3.39056658744812
2024-12-07 15:59:57.402157300,5.3401572265625,-1.873839855194092,2.1184473037719727,3.140827178955078
2024-12-07 15:59:57.412184300,5.350184326171875,-1.7776684761047363,2.042320251464844,2.662130117416382
2024-12-07 15:59:57.422211600,5.360211669921875,-1.8248794078826904,1.7992653846740725,2.49452543258667
2024-12-07 15:59:57.432238800,5.37023876953125,-1.8391811847686768,1.3750929832458496,2.6632111072540283
2024-12-07 15:59:57.442266000,5.38026611328125,-1.8482098579406736,0.8361387252807617,3.083575963973999
2024-12-07 15:59:57.452293000,5.390293212890625,-2.002708911895752,0.4830894470214844,3.368959426879883
2024-12-07 15:59:57.462320400,5.4003203125,-2.3310201168060303,0.4256706237792969,3.4314446449279785
2024-12-07 15:59:57.472347600,5.41034765625,-2.616635322570801,0.5731267929077148,3.2793304920196533
2024-12-07 15:59:57.482374700,5.420374755859375,-2.9393420219421387,0.8827247619628906,2.993239402770996
2024-12-07 15:59:57.492402000,5.43040185546875,-3.11080265045166,1.2592191696166992,2.5503125190734863
2024-12-07 15:59:57.502429200,5.44042919921875,-3.1440141201019287,1.559459209442139,2.154294013977051
2024-12-07 15:59:57.512456200,5.450456298828125,-3.047080039978028,1.740977764129639,1.9652576446533203
2024-12-07 15:59:57.522483500,5.4604833984375,-2.6858530044555664,1.7897334098815918,1.9928646087646484
2024-12-07 15:59:57.532510700,5.4705107421875,-2.247335910797119,1.581550121307373,2.116371393203736
2024-12-07 15:59:57.542538000,5.4805380859375,-1.5933470726013184,1.179035186767578,2.058206796646118
2024-12-07 15:59:57.552565000,5.49056494140625,-0.8709604740142822,0.604487419128418,1.6254457235336304
2024-12-07 15:59:57.562592300,5.50059228515625,-0.0935173034667968,-0.1293783187866211,1.1036972999572754
2024-12-07 15:59:57.572619500,5.51061962890625,0.5724537372589111,-0.8330564498901367,0.2910265326499939
2024-12-07 15:59:57.582646500,5.520646484375,1.02555251121521,-1.470942497253418,-0.6341021060943604
2024-12-07 15:59:57.592673800,5.530673828125,1.586679220199585,-1.9648666381835933,-1.5945677757263184
2024-12-07 15:59:57.602701000,5.540701171875,2.146437644958496,-2.164584159851074,-2.534811019897461
2024-12-07 15:59:57.612728000,5.55072802734375,2.6887400150299072,-2.11530876159668,-3.195240020751953
2024-12-07 15:59:57.622755300,5.56075537109375,2.627114534378052,-1.6831035614013672,-3.408089637756348
2024-12-07 15:59:57.632782600,5.570782470703125,2.2738332748413086,-0.8557977676391602,-3.1027655601501465
2024-12-07 15:59:57.642809900,5.580809814453125,1.7544395923614502,-0.4190244674682617,-2.6099352836608887
2024-12-07 15:59:57.652836900,5.5908369140625,1.7045021057128906,-0.4467897415161133,-2.794297456741333
2024-12-07 15:59:57.662864100,5.600864013671875,1.828584909439087,-0.6333675384521484,-2.694732666015625
2024-12-07 15:59:57.672891400,5.610891357421875,1.8888468742370603,-0.7784042358398438,-1.8319133520126345
2024-12-07 15:59:57.682918400,5.62091845703125,2.1014938354492188,-0.6583185195922852,-1.8321616649627688
2024-12-07 15:59:57.692945700,5.630945556640625,1.9739158153533936,-0.4555320739746094,-1.2620961666107178
2024-12-07 15:59:57.702973000,5.640972900390625,1.8445780277252195,-0.0690555572509765,-0.4083322882652282
2024-12-07 15:59:57.713000000,5.651,1.70432448387146,0.4877357482910156,-0.2431512475013733
2024-12-07 15:59:57.723027200,5.661027099609375,1.8193254470825195,0.9051828384399414,-0.0174908638000488
2024-12-07 15:59:57.733054500,5.671054443359375,1.930018186569214,1.1645393371582031,0.2061105966567993
2024-12-07 15:59:57.743081700,5.681081787109375,1.982243537902832,1.318380355834961,0.3580853641033172
2024-12-07 15:59:57.753108700,5.691108642578125,1.709059238433838,1.3861579895019531,0.3002534508705139
2024-12-07 15:59:57.763136000,5.701135986328125,1.2109196186065674,1.3071784973144531,0.4029994606971741
2024-12-07 15:59:57.773163300,5.711163330078125,0.6930961608886719,1.1165790557861328,0.8567962646484375
2024-12-07 15:59:57.783190300,5.721190185546875,0.1241827011108398,0.891693115234375,1.4978255033493042
2024-12-07 15:59:57.793217500,5.731217529296875,-0.4616296291351318,0.5324039459228516,2.1201345920562744
2024-12-07 15:59:57.803244800,5.741244873046875,-0.94478178024292,0.1009988784790039,2.55177640914917
2024-12-07 15:59:57.813271800,5.751271728515625,-1.3160529136657717,-0.3453264236450195,2.732332229614258
2024-12-07 15:59:57.823299000,5.761299072265625,-1.6557875871658323,-0.897216796875,3.0408992767333984
2024-12-07 15:59:57.833326300,5.771326416015625,-1.876206636428833,-1.468186378479004,3.277738332748413
2024-12-07 15:59:57.843353600,5.781353515625,-1.7998762130737305,-2.058277130126953,3.4296715259552
2024-12-07 15:59:57.853380600,5.791380615234375,-1.2482929229736328,-2.5921125411987305,2.964134693145752
2024-12-07 15:59:57.863407900,5.801407958984375,-0.2182433605194091,-3.0859413146972656,2.1419570446014404
2024-12-07 15:59:57.873435100,5.81143505859375,1.2132301330566406,-3.4420652389526367,0.8140888214111328
2024-12-07 15:59:57.883462100,5.821462158203125,2.385003089904785,-3.734799385070801,-0.8437015414237976
2024-12-07 15:59:57.893489400,5.831489501953125,2.999685287475586,-3.955632209777832,-2.0685839653015137
2024-12-07 15:59:57.903516700,5.8415166015625,3.4664576053619385,-3.412266731262207,-2.7694170475006104
2024-12-07 15:59:57.913543700,5.851543701171875,3.363589286804199,-1.6088371276855469,-2.921187400817871
2024-12-07 15:59:57.923571000,5.861571044921875,2.810915231704712,0.5555076599121094,-2.456691265106201
2024-12-07 15:59:57.933598200,5.87159814453125,1.6806726455688477,2.31663465499878,-2.00006103515625
2024-12-07 15:59:57.943625500,5.88162548828125,-0.4208712577819824,3.250739574432373,-1.6233248710632324
2024-12-07 15:59:57.953652500,5.891652587890625,-2.9951963424682617,3.672578811645508,-0.9734468460083008
2024-12-07 15:59:57.963679700,5.9016796875,-4.279692649841309,3.672557830810547,0.1717892587184906
2024-12-07 15:59:57.973707000,5.91170703125,-4.006654739379883,3.3143057823181152,1.2292377948760986
2024-12-07 15:59:57.983734000,5.921734130859375,-2.716299772262573,2.6588611602783203,2.008053779602051
2024-12-07 15:59:57.993761300,5.93176123046875,-1.5858577489852903,1.8619461059570312,2.205836296081543
2024-12-07 15:59:58.003788500,5.94178857421875,-1.138364553451538,1.075847625732422,1.7027411460876465
2024-12-07 15:59:58.013815600,5.951815673828125,-0.8308916091918945,0.1956300735473632,1.0450408458709717
2024-12-07 15:59:58.023842800,5.9618427734375,-0.0866360664367675,-0.668910026550293,0.0533251762390136
2024-12-07 15:59:58.033870000,5.9718701171875,0.8997993469238281,-1.4901361465454102,-1.2715743780136108
2024-12-07 15:59:58.043897300,5.9818974609375,1.830031156539917,-2.1585750579833984,-2.842214345932007
2024-12-07 15:59:58.053924400,5.99192431640625,2.088184356689453,-2.3157787322998047,-4.243941307067871
2024-12-07 15:59:58.063951600,6.00195166015625,2.136298656463623,-1.94818115234375,-4.427823066711426
2024-12-07 15:59:58.073979000,6.011978759765625,1.4715642929077148,-1.3340587615966797,-3.30419397354126
2024-12-07 15:59:58.084006100,6.022006103515625,0.4107412099838257,-0.602452278137207,-1.8415647745132449
2024-12-07 15:59:58.094033400,6.032033447265625,-0.5578899383544922,-0.0445423126220703,-0.8386965990066528
2024-12-07 15:59:58.104060700,6.042060791015625,-1.239518165588379,0.2783966064453125,0.1878149509429931
2024-12-07 15:59:58.114088000,6.052087890625,-1.8831901550292969,0.6634502410888672,1.2042279243469238
2024-12-07 15:59:58.124115200,6.062115234375,-2.257806301116944,0.8335180282592773,1.697767972946167
2024-12-07 15:59:58.134142500,6.072142578125,-2.152399063110352,0.7025079727172852,1.8546282052993777
2024-12-07 15:59:58.144169500,6.08216943359375,-2.148921728134156,0.5380945205688477,1.6752866506576538
2024-12-07 15:59:58.154196700,6.09219677734375,-2.0596303939819336,0.3788433074951172,1.3875315189361572
2024-12-07 15:59:58.164224000,6.10222412109375,-1.763903021812439,0.2727861404418945,0.7461075186729431
2024-12-07 15:59:58.174251300,6.112251220703125,-1.2918015718460083,0.0861473083496093,-0.1269253492355346
2024-12-07 15:59:58.184278500,6.122278564453125,-0.8900400996208191,0.034001350402832,-0.9325929880142212
2024-12-07 15:59:58.194305800,6.132305908203125,-0.6710206270217896,0.0157222747802734,-1.473686456680298
2024-12-07 15:59:58.204333000,6.1423330078125,-0.6548398733139038,0.0026369094848632,-1.7142341136932373
2024-12-07 15:59:58.214360300,6.1523603515625,-0.654365599155426,0.0235881805419921,-1.663222074508667
2024-12-07 15:59:58.224387600,6.1623876953125,-0.6015132069587708,0.0402650833129882,-1.2379683256149292
2024-12-07 15:59:58.234414800,6.172414794921875,-0.5862073302268982,0.1097078323364257,-0.9561282396316528
2024-12-07 15:59:58.244441900,6.18244189453125,-0.7802820801734924,0.0930309295654296,-0.8634222149848938
2024-12-07 15:59:58.254469000,6.19246923828125,-0.939144730567932,0.062082290649414,-1.0699234008789062
2024-12-07 15:59:58.264496400,6.202496337890625,-1.2071669101715088,-0.1025905609130859,-0.9906442165374756
2024-12-07 15:59:58.274523600,6.212523681640625,-1.3574519157409668,-0.2428922653198242,-0.7281380891799927
2024-12-07 15:59:58.284551000,6.222551025390625,-1.2745389938354492,-0.2871389389038086,-0.392190009355545
2024-12-07 15:59:58.294578200,6.232578125,-0.9683113098144532,-0.2356624603271484,0.2740548253059387
2024-12-07 15:59:58.304605400,6.24260546875,-0.414589524269104,-0.1081123352050781,1.1952810287475586
2024-12-07 15:59:58.314632700,6.2526328125,0.448197603225708,0.09002685546875,1.209003210067749
2024-12-07 15:59:58.324660000,6.262659912109375,0.9529603719711304,0.2338581085205078,1.4415531158447266
2024-12-07 15:59:58.334687200,6.272687255859375,1.046003818511963,0.3712224960327148,1.3232786655426023
2024-12-07 15:59:58.344714500,6.282714599609375,1.0941040515899658,0.3063879013061523,0.8774104118347168
2024-12-07 15:59:58.354741500,6.292741455078125,0.417555034160614,0.1835060119628906,0.7012909650802612
2024-12-07 15:59:58.364768800,6.302768798828125,-0.1970914006233215,0.1512889862060547,0.5206671953201294
2024-12-07 15:59:58.374796000,6.312796142578125,-0.507754921913147,0.1238203048706054,0.0637217462062835
2024-12-07 15:59:58.384823300,6.3228232421875,-0.7509270906448364,0.0248117446899414,-0.2603211104869842
2024-12-07 15:59:58.394850600,6.3328505859375,-1.0202958583831787,0.0217294692993164,-0.0084786713123321
2024-12-07 15:59:58.404877800,6.3428779296875,-1.0213717222213743,0.1048622131347656,0.1605912148952484
2024-12-07 15:59:58.414905000,6.352905029296875,-0.9463376998901368,0.2547826766967773,0.489961713552475
2024-12-07 15:59:58.424932400,6.362932373046875,-0.8434901833534241,0.3708658218383789,0.8531270027160645
2024-12-07 15:59:58.434959600,6.372959716796875,-0.4463749527931213,0.3957052230834961,1.124399185180664
2024-12-07 15:59:58.444986600,6.382986572265625,0.03115975856781,0.3531646728515625,1.1982464790344238
2024-12-07 15:59:58.455014000,6.393013916015625,0.3001722395420074,0.3053874969482422,0.927501380443573
2024-12-07 15:59:58.465041200,6.403041259765625,0.2793394029140472,0.2715435028076172,0.4724484086036682
2024-12-07 15:59:58.475068200,6.413068115234375,0.0899878442287445,0.2278690338134765,0.002623975276947
2024-12-07 15:59:58.485095400,6.423095458984375,-0.0755935907363891,0.1984148025512695,-0.3701493740081787
2024-12-07 15:59:58.495122700,6.433122802734375,-0.3215401470661163,0.1641178131103515,-0.5356703996658325
2024-12-07 15:59:58.505150000,6.44314990234375,-0.536219596862793,0.1775197982788086,-0.4906433820724487
2024-12-07 15:59:58.515177000,6.453177001953125,-0.422763466835022,0.0140142440795898,-0.5220387578010559
2024-12-07 15:59:58.525204200,6.463204345703125,-0.3171563744544983,-0.1828079223632812,-0.2537019252777099
2024-12-07 15:59:58.535231500,6.4732314453125,-0.1389092206954956,-0.2840681076049804,-0.0988074541091919
2024-12-07 15:59:58.545258500,6.483258544921875,-0.0177219733595848,-0.2950410842895508,0.1598911881446838
2024-12-07 15:59:58.555285800,6.49328564453125,0.2982096970081329,-0.1824913024902343,-0.417422890663147
2024-12-07 15:59:58.565313000,6.50331298828125,0.260481059551239,-0.065835952758789,-0.6829131841659546
2024-12-07 15:59:58.575340000,6.513340087890625,-0.1970352679491043,0.2075567245483398,-0.6163837313652039
2024-12-07 15:59:58.585367300,6.5233671875,-0.1178536266088485,0.1070966720581054,-1.225820779800415
2024-12-07 15:59:58.595394600,6.53339453125,0.0940585955977439,-0.0548171997070312,-1.825417637825012
2024-12-07 15:59:58.605421800,6.543421875,-0.0748305022716522,-0.1200952529907226,-1.6062543392181396
2024-12-07 15:59:58.615448800,6.55344873046875,-0.0556645095348358,-0.0750741958618164,-1.5206952095031738
2024-12-07 15:59:58.625476000,6.56347607421875,0.2319067567586898,-0.0155582427978515,-1.5208977460861206
2024-12-07 15:59:58.635503400,6.57350341796875,0.4276770949363708,0.0153255462646484,-1.4218391180038452
2024-12-07 15:59:58.645530400,6.5835302734375,0.5176634192466736,0.0651798248291015,-1.2309317588806152
2024-12-07 15:59:58.655557600,6.5935576171875,0.5564886927604675,0.1956405639648437,-0.9374006986618042
2024-12-07 15:59:58.665585000,6.6035849609375,0.7832893133163452,0.1529369354248047,-0.8984658718109131
2024-12-07 15:59:58.675612000,6.61361181640625,1.1078938245773315,-0.0333776473999023,-1.1007909774780271
2024-12-07 15:59:58.685639200,6.62363916015625,1.0092315673828125,-0.2149934768676757,-0.876320481300354
2024-12-07 15:59:58.695666400,6.63366650390625,0.7507612109184265,-0.2491064071655273,-0.7392358779907227
2024-12-07 15:59:58.705693700,6.643693603515625,0.917494297027588,-0.2746114730834961,-0.7259462475776672
2024-12-07 15:59:58.715720700,6.653720703125,1.2821059226989746,-0.2866649627685547,-0.5297620892524719
2024-12-07 15:59:58.725748000,6.663748046875,1.621675968170166,-0.3282394409179687,-0.2901285886764526
2024-12-07 15:59:58.735775200,6.673775146484375,1.833412170410156,-0.5854692459106445,-0.1127492189407348
2024-12-07 15:59:58.745802200,6.68380224609375,1.990575075149536,-1.1484060287475586,-0.1938966512680053
2024-12-07 15:59:58.755829500,6.69382958984375,2.054648399353028,-1.939114570617676,-0.6595891714096069
2024-12-07 15:59:58.765856800,6.703856689453125,1.574645757675171,-2.659914016723633,-1.5469911098480225
2024-12-07 15:59:58.775884000,6.713884033203125,0.7885193824768066,-3.0900697708129883,-2.732046127319336
2024-12-07 15:59:58.785911000,6.7239111328125,-0.0940500497817993,-3.168149948120117,-3.3361783027648926
2024-12-07 15:59:58.795938300,6.733938232421875,-0.3734859228134155,-3.058992385864258,-3.372742176055908
2024-12-07 15:59:58.805965600,6.743965576171875,0.0273879170417785,-2.782900810241699,-3.608709335327149
2024-12-07 15:59:58.815992600,6.75399267578125,0.5990246534347534,-2.3248586654663086,-3.767739772796631
2024-12-07 15:59:58.826019800,6.764019775390625,0.8981554508209229,-1.9658126831054688,-3.590428352355957
2024-12-07 15:59:58.836047000,6.774047119140625,0.833435595035553,-1.9053621292114256,-2.6146883964538574
2024-12-07 15:59:58.846074000,6.78407421875,0.3784793615341186,-1.8383197784423828,-0.4766058921813965
2024-12-07 15:59:58.856101400,6.794101318359375,0.6291396021842957,-1.5417728424072266,1.125735640525818
2024-12-07 15:59:58.866128600,6.804128662109375,1.1374417543411257,-1.068889617919922,2.541452407836914
2024-12-07 15:59:58.876156000,6.814156005859375,1.7003211975097656,-0.5925827026367188,3.7292211055755615
2024-12-07 15:59:58.886183000,6.824182861328125,2.161860466003418,-0.0130252838134765,4.256524085998535
2024-12-07 15:59:58.896210200,6.834210205078125,2.196390390396118,0.5638656616210938,4.008121490478516
2024-12-07 15:59:58.906237400,6.844237548828125,1.910794019699097,1.0708675384521484,3.0199553966522217
2024-12-07 15:59:58.916264400,6.854264404296875,1.6285362243652344,1.4985723495483398,1.8035086393356323
2024-12-07 15:59:58.926291700,6.864291748046875,1.4242446422576904,1.7518072128295898,0.6164975166320801
2024-12-07 15:59:58.936319000,6.874319091796875,1.2431621551513672,1.926687240600586,-0.4474340677261352
2024-12-07 15:59:58.946346000,6.884345947265625,1.0339703559875488,2.104886054992676,-1.3665359020233154
2024-12-07 15:59:58.956373200,6.894373291015625,0.8534041047096252,2.1913180351257324,-2.080033302307129
2024-12-07 15:59:58.966400500,6.904400390625,0.5805491209030151,2.110166549682617,-2.446063041687012
2024-12-07 15:59:58.976427800,6.914427734375,-22.516599655151367,3.166530132293701,2.921606063842773
2024-12-07 15:59:58.986454800,6.924454833984375,9.396697998046877,1.7798385620117188,-5.254854202270508
2024-12-07 15:59:58.996482000,6.93448193359375,14.021369934082031,0.0022716522216796,-3.750016689300537
2024-12-07 15:59:59.006509300,6.94450927734375,8.673836708068848,-0.3031930923461914,-1.4838650226593018
2024-12-07 15:59:59.016536300,6.954536376953125,0.1045446395874023,-0.9905967712402344,0.2711728811264038
2024-12-07 15:59:59.026563600,6.9645634765625,-5.241584777832031,-1.2607288360595703,1.168563961982727
2024-12-07 15:59:59.036590800,6.9745908203125,-5.685910701751709,-1.4254646301269531,1.347465991973877
2024-12-07 15:59:59.046617900,6.984617919921875,-4.594482421875,-1.3927345275878906,0.7876968383789062
2024-12-07 15:59:59.056645000,6.99464501953125,-3.171770095825196,-1.3301076889038086,0.2965627908706665
2024-12-07 15:59:59.066672400,7.00467236328125,-2.263613224029541,-1.4675474166870115,0.421854555606842
2024-12-07 15:59:59.076699600,7.01469970703125,-2.093125343322754,-1.795414924621582,1.293326735496521
2024-12-07 15:59:59.086726700,7.0247265625,-2.3601059913635254,-1.963547706604004,1.9056107997894287
2024-12-07 15:59:59.096754000,7.03475390625,-1.3556574583053589,-1.9339628219604488,1.814625024795532
2024-12-07 15:59:59.106781200,7.04478125,-1.103813409805298,-1.6071596145629885,1.4347174167633057
2024-12-07 15:59:59.116808200,7.05480810546875,-1.234524846076965,-1.3255033493041992,0.7372770309448242
2024-12-07 15:59:59.126835500,7.06483544921875,-0.8856756687164307,-1.3169689178466797,0.3056612908840179
2024-12-07 15:59:59.136862700,7.07486279296875,-0.5996859073638916,-1.424361228942871,-0.1071104705333709
2024-12-07 15:59:59.146890000,7.084889892578125,-0.3537781238555908,-1.453019142150879,-0.2042136639356613
2024-12-07 15:59:59.156917200,7.094917236328125,0.1338341236114502,-1.3139238357543943,-0.3818567991256714
2024-12-07 15:59:59.166944500,7.104944580078125,0.9230730533599854,-0.8567466735839844,-0.4264203906059265
2024-12-07 15:59:59.176971800,7.1149716796875,1.2326815128326416,-0.64337158203125,0.3351598680019378
2024-12-07 15:59:59.186999000,7.1249990234375,1.3664686679840088,-0.1679506301879882,0.4374230802059173
2024-12-07 15:59:59.197026300,7.1350263671875,0.9475157260894777,0.2583379745483398,0.5425297617912292
2024-12-07 15:59:59.207053300,7.14505322265625,0.1047425270080566,0.6270523071289062,0.6209691166877747
2024-12-07 15:59:59.217080600,7.15508056640625,-0.6918976306915283,0.944849967956543,0.8024352788925171
2024-12-07 15:59:59.227107800,7.16510791015625,-1.332075119018555,1.1372108459472656,0.8444157838821411
2024-12-07 15:59:59.237135000,7.175135009765625,-2.187975645065308,1.020186424255371,1.4493151903152466
2024-12-07 15:59:59.247162400,7.185162353515625,-2.4567742347717285,0.9211874008178712,1.7753864526748655
2024-12-07 15:59:59.257189600,7.195189697265625,-2.2539665699005127,0.8073225021362305,2.089571714401245
2024-12-07 15:59:59.267217000,7.205216796875,-1.7839598655700684,0.8357715606689453,2.28439998626709
2024-12-07 15:59:59.277244200,7.215244140625,-1.4570542573928833,0.9957199096679688,2.281624317169189
2024-12-07 15:59:59.287271400,7.225271484375,-1.6041626930236816,0.9999151229858398,2.5962159633636475
2024-12-07 15:59:59.297298700,7.235298583984375,-1.566240310668945,1.220993995666504,2.496185541152954
2024-12-07 15:59:59.307326000,7.245325927734375,-1.7020186185836792,1.3622922897338867,2.269376039505005
2024-12-07 15:59:59.317353000,7.25535302734375,-1.775803565979004,1.4286155700683594,1.9484467506408687
2024-12-07 15:59:59.327380200,7.265380126953125,-1.3241970539093018,1.1667966842651367,1.848219394683838
2024-12-07 15:59:59.337407500,7.275407470703125,-0.5014784336090088,0.4565877914428711,1.4369137287139893
2024-12-07 15:59:59.347434800,7.285434814453125,-0.4252107143402099,0.6034297943115234,1.8284533023834229
2024-12-07 15:59:59.357462000,7.2954619140625,-0.3077106475830078,0.6700849533081055,1.8665355443954468
2024-12-07 15:59:59.367489300,7.3054892578125,-0.3667926788330078,0.6143684387207031,1.5915412902832031
2024-12-07 15:59:59.377516500,7.3155166015625,-0.1068775653839111,0.5553083419799805,1.4644110202789309
2024-12-07 15:59:59.387543800,7.325543701171875,0.0565443038940429,0.5966634750366211,1.1398954391479492
2024-12-07 15:59:59.397571000,7.335571044921875,-0.0257492065429687,0.6230669021606445,0.8475932478904724
2024-12-07 15:59:59.407598300,7.345598388671875,-0.0564184188842773,0.6204557418823242,0.6728106737136841
2024-12-07 15:59:59.417625300,7.355625244140625,0.0317819118499755,0.6082735061645508,0.4556967318058014
2024-12-07 15:59:59.427652600,7.365652587890625,0.1763522624969482,0.6580905914306641,0.1873578131198883
2024-12-07 15:59:59.437679900,7.375679931640625,0.3620898723602295,0.7407817840576172,0.0403771698474884
2024-12-07 15:59:59.447707100,7.38570703125,0.4644861221313476,0.8991527557373047,-0.0955281853675842
2024-12-07 15:59:59.457734400,7.395734375,0.4463775157928467,1.0902528762817385,-0.3056973218917846
2024-12-07 15:59:59.467761700,7.40576171875,0.3096892833709717,1.2619571685791016,-0.4602130055427551
2024-12-07 15:59:59.477789000,7.415788818359375,0.1810240745544433,1.3672170639038086,-0.6105163097381592
2024-12-07 15:59:59.487816200,7.425816162109375,0.1427550315856933,1.373126983642578,-0.7506396770477295
2024-12-07 15:59:59.497843500,7.435843505859375,0.2000977993011474,1.2466983795166016,-0.9512287974357604
2024-12-07 15:59:59.507870500,7.445870361328125,0.4003751277923584,1.0550355911254885,-1.0819315910339355
2024-12-07 15:59:59.517897700,7.455897705078125,0.656470537185669,0.7884740829467773,-1.37134051322937
2024-12-07 15:59:59.527925000,7.465925048828125,1.0010802745819092,0.3944454193115234,-1.6879165172576904
2024-12-07 15:59:59.537952300,7.4759521484375,1.4551827907562256,0.0539007186889648,-1.7632185220718384
2024-12-07 15:59:59.547979300,7.485979248046875,1.805259704589844,-0.1387386322021484,-1.9083456993103027
2024-12-07 15:59:59.558006500,7.496006591796875,2.0597641468048096,-0.3179750442504883,-2.1997721195220947
2024-12-07 15:59:59.568033800,7.50603369140625,2.188528299331665,-0.4413824081420898,-2.3700509071350098
2024-12-07 15:59:59.578060800,7.516060791015625,1.9717280864715576,-0.4375638961791992,-2.71573805809021
2024-12-07 15:59:59.588088000,7.526088134765625,1.574070692062378,-0.5165319442749023,-2.940282106399536
2024-12-07 15:59:59.598115300,7.536115234375,1.169602870941162,-0.5390472412109375,-2.8673386573791504
2024-12-07 15:59:59.608142300,7.546142333984375,0.9276120662689208,-0.4663848876953125,-2.5458929538726807
2024-12-07 15:59:59.618169600,7.556169677734375,0.91168475151062,-0.2838258743286133,-1.964643955230713
2024-12-07 15:59:59.628196900,7.56619677734375,1.084569215774536,0.0471019744873046,-1.346699595451355
2024-12-07 15:59:59.638224100,7.57622412109375,1.312875747680664,0.4881048202514648,-0.936503767967224
2024-12-07 15:59:59.648251100,7.586251220703125,1.48225998878479,0.9722089767456056,-0.5055440664291382
2024-12-07 15:59:59.658278400,7.5962783203125,1.4837687015533447,1.3754291534423828,0.2449311316013336
2024-12-07 15:59:59.668305700,7.6063056640625,1.2624144554138184,1.5124139785766602,1.1953648328781128
2024-12-07 15:59:59.678332700,7.616332763671875,1.0308351516723633,1.2412433624267578,2.1494455337524414
2024-12-07 15:59:59.688360000,7.62635986328125,0.7131195068359375,0.5247802734375,2.886032819747925
2024-12-07 15:59:59.698387200,7.63638720703125,0.2715389728546142,-0.6599006652832031,3.6250178813934326
2024-12-07 15:59:59.708414200,7.646414306640625,-0.0111656188964843,-2.1876115798950195,4.336617946624756
2024-12-07 15:59:59.718441500,7.65644140625,-0.072559118270874,-3.928828239440918,4.776622772216797
2024-12-07 15:59:59.728468700,7.66646875,0.0373530387878418,-5.373048782348633,4.244972229003906
2024-12-07 15:59:59.738496000,7.67649609375,0.5645005702972412,-5.988227844238281,2.7374255657196045
2024-12-07 15:59:59.748523000,7.68652294921875,1.5296974182128906,-5.712258338928223,1.0256543159484863
2024-12-07 15:59:59.758550300,7.69655029296875,1.835556507110596,-4.768485069274902,0.7348251342773438
2024-12-07 15:59:59.768577500,7.70657763671875,2.0850493907928467,-3.200316429138184,-0.3225438296794891
2024-12-07 15:59:59.778604500,7.7166044921875,2.7624292373657227,-1.8061180114746096,-1.957144260406494
2024-12-07 15:59:59.788631800,7.7266318359375,2.367004156112671,-0.6660575866699219,-2.926682710647583
2024-12-07 15:59:59.798659000,7.7366591796875,0.875866174697876,0.3324432373046875,-2.574934959411621
2024-12-07 15:59:59.808686000,7.74668603515625,-0.158989667892456,1.5110225677490234,-1.6603204011917114
2024-12-07 15:59:59.818713300,7.75671337890625,-0.6355445384979248,2.548419952392578,-0.9079797267913818
2024-12-07 15:59:59.828740600,7.76674072265625,-1.561828374862671,3.4834303855896,-0.0416147112846374
2024-12-07 15:59:59.838767900,7.776767822265625,-2.901407241821289,4.2794575691223145,1.1912599802017212
2024-12-07 15:59:59.848795000,7.786794921875,-3.783428192138672,4.335896015167236,2.336378335952759
2024-12-07 15:59:59.858822100,7.796822265625,-3.810013771057129,3.877976417541504,3.1799123287200928
2024-12-07 15:59:59.868849400,7.806849365234375,-3.3465936183929443,3.0198006629943848,3.2712297439575195
2024-12-07 15:59:59.878876400,7.81687646484375,-2.914444923400879,2.148134708404541,2.378833532333374
2024-12-07 15:59:59.888903700,7.826903564453125,-2.4583053588867188,1.0286035537719729,1.83457350730896
2024-12-07 15:59:59.898931000,7.836930908203125,-1.349595069885254,-0.4246540069580078,1.366264581680298
2024-12-07 15:59:59.908958000,7.8469580078125,-0.4572563171386719,-1.7292203903198242,0.1262472867965698
2024-12-07 15:59:59.918985200,7.856985107421875,-0.1169468164443969,-2.630956649780273,-1.015145182609558
2024-12-07 15:59:59.929012500,7.867012451171875,-0.0142911672592163,-2.846928596496582,-1.9384572505950928
2024-12-07 15:59:59.939039700,7.877039794921875,0.326951265335083,-2.3828182220458984,-2.4310381412506104
2024-12-07 15:59:59.949066800,7.887066650390625,0.5558298826217651,-1.6086320877075195,-2.866106986999512
2024-12-07 15:59:59.959094000,7.897093994140625,0.3039165735244751,-0.8076534271240234,-3.280933856964112
2024-12-07 15:59:59.969121300,7.907121337890625,-0.4439531564712524,-0.1709270477294922,-3.5573973655700684
2024-12-07 15:59:59.979148300,7.917148193359375,-1.827079176902771,0.1688852310180664,-2.725311756134033
2024-12-07 15:59:59.989175600,7.927175537109375,-2.863131761550904,0.5758113861083984,-1.3641666173934937
2024-12-07 15:59:59.999202800,7.937202880859375,-3.1193580627441406,0.929978370666504,-0.0809060931205749
2024-12-07 16:00:00.009229800,7.947229736328125,-2.8684206008911133,1.0687532424926758,1.218139410018921
2024-12-07 16:00:00.019257000,7.957257080078125,-2.344856739044189,1.3603296279907229,1.7271980047225952
2024-12-07 16:00:00.029284400,7.967284423828125,-2.211252212524414,0.7007570266723633,3.100136995315552
2024-12-07 16:00:00.039311600,7.9773115234375,-1.570612907409668,0.2664766311645508,3.09423565864563
2024-12-07 16:00:00.049338600,7.987338623046875,-1.0289952754974363,0.0418767929077148,2.121431827545166
2024-12-07 16:00:00.059366000,7.997365966796875,-0.9910213351249696,-0.2169647216796875,0.9669381380081176
2024-12-07 16:00:00.069393200,8.00739306640625,-1.1064224243164062,-0.4039859771728515,-0.159426212310791
2024-12-07 16:00:00.079420200,8.017420166015626,-1.1632099151611328,-0.4419260025024414,-1.1069424152374268
2024-12-07 16:00:00.089447400,8.027447509765626,-0.9998533725738524,-0.3208789825439453,-1.6973819732666016
2024-12-07 16:00:00.099474700,8.037474609375,-0.69300377368927,-0.1941699981689453,-1.6515311002731323
2024-12-07 16:00:00.109501700,8.047501708984376,-0.5132385492324829,-0.1195602416992187,-1.249847173690796
2024-12-07 16:00:00.119529000,8.057529052734376,-0.4928061664104461,-0.0590705871582031,-0.5500615835189819
2024-12-07 16:00:00.129556200,8.06755615234375,-0.4752227663993835,0.1014957427978515,0.2724472284317016
2024-12-07 16:00:00.139583500,8.07758349609375,-0.2921606302261352,0.3135995864868164,0.8956135511398315
2024-12-07 16:00:00.149610500,8.087610595703126,-0.0355761051177978,0.462071418762207,1.0816690921783447
2024-12-07 16:00:00.159637800,8.0976376953125,0.1401136517524719,0.5661706924438477,1.0612306594848633
2024-12-07 16:00:00.169665000,8.1076650390625,0.0224384665489196,0.7358160018920898,1.1561145782470703
2024-12-07 16:00:00.179692300,8.1176923828125,0.0528467893600463,0.7847194671630859,0.7690496444702148
2024-12-07 16:00:00.189719600,8.127719482421876,-0.0280138850212097,0.6609115600585938,0.3874016404151916
2024-12-07 16:00:00.199746800,8.137746826171876,-0.1430228948593139,0.4652566909790039,0.1888560652732849
2024-12-07 16:00:00.209774000,8.147774169921876,-0.3336738348007202,0.1788740158081054,0.0242809653282165
2024-12-07 16:00:00.219801300,8.15780126953125,-0.5885205864906311,-0.0928096771240234,-0.1060914397239685
2024-12-07 16:00:00.229828600,8.16782861328125,-0.6760414838790894,-0.3305625915527344,-0.383023738861084
2024-12-07 16:00:00.239855900,8.17785595703125,-0.4681211709976196,-0.4292755126953125,-0.617672324180603
2024-12-07 16:00:00.249883100,8.187883056640626,-0.2121890485286712,-0.3796052932739258,-0.8160351514816284
2024-12-07 16:00:00.259910100,8.19791015625,-0.1049622893333435,-0.2057132720947265,-0.8526821136474609
2024-12-07 16:00:00.269937400,8.2079375,-0.0296273231506347,0.0823469161987304,-0.5446552038192749
2024-12-07 16:00:00.279964700,8.217964599609376,0.0855374634265899,0.3695249557495117,-0.4336916804313659
2024-12-07 16:00:00.289992000,8.227991943359376,0.1921302080154419,0.4981098175048828,-0.2237027883529663
2024-12-07 16:00:00.300019200,8.238019287109376,0.236681193113327,0.4349184036254883,0.0124698877334594
2024-12-07 16:00:00.310046500,8.24804638671875,0.2665959596633911,0.2090272903442382,0.1644876599311828
2024-12-07 16:00:00.320073700,8.25807373046875,0.3152074217796325,-0.0549802780151367,0.2946816682815552
2024-12-07 16:00:00.330101000,8.26810107421875,0.2103802263736724,-0.232792854309082,0.3175123929977417
2024-12-07 16:00:00.340128300,8.278128173828126,0.1961585581302642,-0.2720193862915039,0.1957123279571533
2024-12-07 16:00:00.350155500,8.288155517578126,0.0955257341265678,-0.1824579238891601,0.0786889791488647
2024-12-07 16:00:00.360182800,8.298182861328126,0.0090636238455772,-0.0121450424194335,0.0767151117324829
2024-12-07 16:00:00.370209800,8.308209716796876,0.0277196764945983,0.1527204513549804,0.2131338119506836
2024-12-07 16:00:00.380237000,8.318237060546876,0.19890096783638,0.2642383575439453,0.4146342277526855
2024-12-07 16:00:00.390264300,8.328264404296876,0.4019922614097595,0.3701534271240234,0.5412315130233765
2024-12-07 16:00:00.400291600,8.33829150390625,0.5072430372238159,0.3891563415527344,0.6016029119491577
2024-12-07 16:00:00.410318800,8.34831884765625,0.4959611296653747,0.3357925415039062,0.596032977104187
2024-12-07 16:00:00.420346000,8.35834619140625,0.4175536632537842,0.2675905227661133,0.4871288537979126
2024-12-07 16:00:00.430373400,8.368373291015626,0.3212600648403168,0.1608180999755859,0.2812741994857788
2024-12-07 16:00:00.440400600,8.378400634765624,0.2794643342494964,0.0348167419433593,0.0565379858016967
2024-12-07 16:00:00.450428000,8.388427978515624,0.2925813496112823,-0.0959701538085937,-0.1193875074386596
2024-12-07 16:00:00.460455200,8.398455078125,0.3986891508102417,-0.1168222427368164,-0.2937139272689819
2024-12-07 16:00:00.470482200,8.408482177734374,0.5202057361602783,-0.0375328063964843,-0.4568319320678711
2024-12-07 16:00:00.480509400,8.418509521484374,0.6952321529388428,0.0460796356201171,-0.6567789912223816
2024-12-07 16:00:00.490536700,8.42853662109375,0.8990978002548218,0.2057437896728515,-0.8787401914596558
2024-12-07 16:00:00.500564000,8.43856396484375,1.036985993385315,0.1921644210815429,-0.9168920516967772
2024-12-07 16:00:00.510591200,8.44859130859375,1.287468433380127,0.0732440948486328,-1.5235439538955688
2024-12-07 16:00:00.520618500,8.458618408203124,1.218703269958496,-0.0594739913940429,-1.6918851137161257
2024-12-07 16:00:00.530645800,8.468645751953124,1.078519344329834,-0.1060199737548828,-1.6773079633712769
2024-12-07 16:00:00.540673000,8.478673095703124,1.152385711669922,-0.1910429000854492,-1.852755188941956
2024-12-07 16:00:00.550700300,8.4887001953125,1.2529321908950806,-0.270909309387207,-1.85160493850708
2024-12-07 16:00:00.560727600,8.4987275390625,1.4366507530212402,-0.3169870376586914,-1.603035569190979
2024-12-07 16:00:00.570754600,8.508754638671874,1.73484206199646,-0.3628807067871094,-1.266723871231079
2024-12-07 16:00:00.580781800,8.51878173828125,1.9819902181625368,-0.4374351501464844,-0.8550788164138794
2024-12-07 16:00:00.590809000,8.52880908203125,2.031973361968994,-0.5598430633544922,-0.4330999851226806
2024-12-07 16:00:00.600836000,8.538836181640624,1.94647216796875,-0.773284912109375,-0.1226917505264282
2024-12-07 16:00:00.610863400,8.54886328125,1.803492546081543,-1.2213964462280271,0.1647660732269287
2024-12-07 16:00:00.620890600,8.558890625,1.7144534587860107,-1.9281110763549805,0.0163320302963256
2024-12-07 16:00:00.630917600,8.568917724609374,1.7279925346374512,-2.848637580871582,-0.8778785467147827
2024-12-07 16:00:00.640945000,8.57894482421875,1.4455748796463013,-3.7755088806152335,-2.2991652488708496
2024-12-07 16:00:00.650972200,8.58897216796875,1.069743514060974,-4.181386947631836,-4.117329120635986
2024-12-07 16:00:00.660999400,8.59899951171875,0.5566186308860779,-4.11427116394043,-5.2933502197265625
2024-12-07 16:00:00.671026400,8.6090263671875,0.4166999459266662,-3.657481193542481,-5.702737808227539
2024-12-07 16:00:00.681053700,8.6190537109375,0.5535282492637634,-3.199991226196289,-5.718353271484375
2024-12-07 16:00:00.691081000,8.6290810546875,0.7959010601043701,-2.698060989379883,-5.57804012298584
2024-12-07 16:00:00.701108000,8.63910791015625,0.5505801439285278,-2.503376007080078,-4.577855110168457
2024-12-07 16:00:00.711135200,8.64913525390625,0.1511826515197754,-2.310043334960937,-2.1947739124298096
2024-12-07 16:00:00.721162500,8.65916259765625,0.3360339403152466,-1.9249839782714844,0.6507235765457153
2024-12-07 16:00:00.731189800,8.669189697265624,1.15805184841156,-1.3497371673583984,2.8065505027771
2024-12-07 16:00:00.741216800,8.679216796875,2.079146385192871,-0.5944690704345703,4.309118270874023
2024-12-07 16:00:00.751244000,8.689244140625,2.542066097259521,0.1679306030273437,5.143084526062012
2024-12-07 16:00:00.761271300,8.699271240234374,2.4812612533569336,0.8936853408813477,5.036337375640869
2024-12-07 16:00:00.771298300,8.70929833984375,2.0485782623291016,1.553694725036621,4.178922653198242
2024-12-07 16:00:00.781325600,8.71932568359375,1.7777613401412964,2.07136344909668,3.1723504066467285
2024-12-07 16:00:00.791352800,8.729352783203124,1.7115646600723269,2.47560453414917,2.1490824222564697
2024-12-07 16:00:00.801379800,8.7393798828125,1.519311547279358,2.7376270294189453,1.192090392112732
2024-12-07 16:00:00.811407000,8.749406982421876,1.3036130666732788,2.8336801528930664,0.1133716106414794
2024-12-07 16:00:00.821434400,8.759434326171874,1.047216773033142,2.6732072830200195,-0.7878925800323486
2024-12-07 16:00:00.831461600,8.769461669921874,0.6463813781738281,2.3618063926696777,-1.5331687927246094
2024-12-07 16:00:00.841488600,8.779488525390626,0.0649781227111816,1.7712068557739258,-2.103912353515625
2024-12-07 16:00:00.851516000,8.789515869140626,-0.5318140983581543,0.8692131042480469,-2.314035654067993
2024-12-07 16:00:00.861543200,8.799543212890624,-1.175937294960022,-0.02789306640625,-2.1465320587158203
2024-12-07 16:00:00.871570200,8.809570068359376,-1.977206468582153,-0.7239542007446289,-1.7821786403656006
2024-12-07 16:00:00.881597400,8.819597412109376,-2.3931920528411865,-1.400517463684082,-1.0892081260681152
2024-12-07 16:00:00.891624700,8.829624755859374,-2.3617420196533203,-1.93306827545166,-0.187003493309021
2024-12-07 16:00:00.901651700,8.839651611328126,-2.2909326553344727,-2.27392578125,0.2880271673202514
2024-12-07 16:00:00.911679000,8.849678955078126,-2.2848832607269287,-2.571239471435547,1.4370949268341064
2024-12-07 16:00:00.921706200,8.859706298828126,-3.241985559463501,-2.780923843383789,2.44370174407959
2024-12-07 16:00:00.931733500,8.8697333984375,-2.3797452449798584,-2.734464645385742,2.5205702781677246
2024-12-07 16:00:00.941760500,8.879760498046876,-0.9871888160705566,-2.3056020736694336,2.1528005599975586
2024-12-07 16:00:00.951787800,8.889787841796876,-0.7664099931716919,-1.729879379272461,1.422992706298828
2024-12-07 16:00:00.961815000,8.89981494140625,-0.8609895706176758,-1.1215448379516602,0.3520475625991821
2024-12-07 16:00:00.971842000,8.909842041015626,-0.9529075622558594,-0.8767890930175781,-0.3448901176452636
2024-12-07 16:00:00.981869300,8.919869384765626,-0.7570397853851318,-0.9040613174438475,-0.7103734612464905
2024-12-07 16:00:00.991896600,8.929896484375,-0.2612619400024414,-0.9928522109985352,-0.9029037356376648
2024-12-07 16:00:01.001923600,8.939923583984376,0.3969032764434814,-1.0817289352416992,-1.0179897546768188
2024-12-07 16:00:01.011950800,8.949950927734376,0.9071431159973145,-1.0859556198120115,-1.0261266231536863
2024-12-07 16:00:01.021978000,8.95997802734375,1.0333998203277588,-1.0065898895263672,-1.003580093383789
2024-12-07 16:00:01.032005400,8.97000537109375,0.5157027244567871,-0.7575454711914062,-0.8944848775863647
2024-12-07 16:00:01.042032400,8.980032470703126,-0.3769407272338867,-0.452463150024414,-0.6382154822349548
2024-12-07 16:00:01.052059600,8.9900595703125,-1.3674744367599487,-0.0900125503540039,-0.1957723200321197
2024-12-07 16:00:01.062087000,9.0000869140625,-2.1574745178222656,0.1968536376953125,0.4673446118831634
2024-12-07 16:00:01.072114000,9.010114013671876,-2.532467842102051,0.6424379348754883,1.0098047256469729
2024-12-07 16:00:01.082141200,9.02014111328125,-2.957827091217041,0.8400764465332031,1.8420058488845823
2024-12-07 16:00:01.092168400,9.03016845703125,-2.9414966106414795,1.0818328857421875,2.303406000137329
2024-12-07 16:00:01.102195700,9.04019580078125,-2.59436559677124,1.3676519393920898,2.612004280090332
2024-12-07 16:00:01.112223000,9.050222900390626,-2.046922206878662,1.692471981048584,2.4991893768310547
2024-12-07 16:00:01.122250200,9.060250244140626,-2.421516895294189,1.6314382553100586,2.9781594276428223
2024-12-07 16:00:01.132277500,9.070277587890626,-2.5368988513946533,1.769843578338623,2.693867444992065
2024-12-07 16:00:01.142304500,9.080304443359376,-2.568170547485352,1.9792113304138184,2.015805959701538
2024-12-07 16:00:01.152331800,9.090331787109376,-3.220480442047119,1.7300076484680176,2.6227223873138428
2024-12-07 16:00:01.162359000,9.100359130859376,-2.975505828857422,1.7056307792663574,2.4957940578460693
2024-12-07 16:00:01.172386300,9.11038623046875,-2.271546602249145,1.4445581436157229,2.9976730346679688
2024-12-07 16:00:01.182413600,9.12041357421875,-1.3936574459075928,1.0928058624267578,3.5733492374420166
2024-12-07 16:00:01.192440800,9.13044091796875,-0.7049901485443115,0.8734779357910156,3.439809083938598
2024-12-07 16:00:01.202468000,9.140468017578126,-0.3668184280395508,0.7674379348754883,3.1060221195220947
2024-12-07 16:00:01.212495400,9.150495361328124,-0.2600910663604736,0.856898307800293,2.6099178791046143
2024-12-07 16:00:01.222522600,9.160522705078124,-0.2489001750946045,1.017812728881836,1.798033595085144
2024-12-07 16:00:01.232550000,9.1705498046875,-0.0337719917297363,1.101362228393555,0.8884755969047546
2024-12-07 16:00:01.242577200,9.1805771484375,-0.061091661453247,0.9972715377807616,0.3053102791309356
2024-12-07 16:00:01.252604200,9.190604248046874,-0.3402066230773926,0.9255657196044922,0.0128712058067321
2024-12-07 16:00:01.262631400,9.20063134765625,-0.54510498046875,0.7955646514892578,-0.0019183605909347
2024-12-07 16:00:01.272658700,9.21065869140625,-0.7652854919433594,0.7511787414550781,-0.290004163980484
2024-12-07 16:00:01.282686000,9.22068603515625,-0.4507215023040771,0.6252355575561523,-0.5544267296791077
2024-12-07 16:00:01.292713200,9.230713134765624,-0.0093946456909179,0.474980354309082,-0.8669037818908691
2024-12-07 16:00:01.302740500,9.240740478515624,0.4588019847869873,0.3150320053100586,-1.1931921243667605
2024-12-07 16:00:01.312767700,9.250767822265624,0.8116137981414795,0.2412862777709961,-1.4758484363555908
2024-12-07 16:00:01.322795000,9.260794921875,0.9938678741455078,0.1300191879272461,-1.9902009963989256
2024-12-07 16:00:01.332822300,9.270822265625,1.3094863891601562,0.0683126449584961,-2.608699321746826
2024-12-07 16:00:01.342849500,9.280849609375,1.5251030921936035,0.0661506652832031,-3.011882066726685
2024-12-07 16:00:01.352876500,9.29087646484375,1.517127275466919,0.2001104354858398,-3.1018710136413574
2024-12-07 16:00:01.362903800,9.30090380859375,1.3676271438598633,0.4175195693969726,-3.13604736328125
2024-12-07 16:00:01.372931000,9.31093115234375,1.1486241817474363,0.6513900756835938,-3.1704087257385254
2024-12-07 16:00:01.382958300,9.320958251953124,0.8601975440979004,0.872960090637207,-3.085425853729248
2024-12-07 16:00:01.392985600,9.330985595703124,0.6540930271148682,0.9624462127685548,-2.9224860668182373
2024-12-07 16:00:01.403012900,9.341012939453124,0.6085090637207031,1.0003776550292969,-2.8434791564941406
2024-12-07 16:00:01.413040000,9.3510400390625,0.6340484619140625,0.9570531845092772,-2.6585164070129395
2024-12-07 16:00:01.423067400,9.3610673828125,0.9322223663330078,0.8313150405883789,-2.5702579021453857
2024-12-07 16:00:01.433094700,9.3710947265625,1.31312894821167,0.6270589828491211,-2.2181732654571533
2024-12-07 16:00:01.443122000,9.381121826171874,1.5604894161224363,0.4777021408081054,-1.7223656177520752
2024-12-07 16:00:01.453149200,9.391149169921874,1.5191938877105713,0.5270452499389648,-1.2871111631393433
2024-12-07 16:00:01.463176200,9.40117626953125,1.1657850742340088,0.7856121063232422,-0.8119868040084839
2024-12-07 16:00:01.473203500,9.411203369140624,0.8842740058898926,1.1544227600097656,-0.2167259752750396
2024-12-07 16:00:01.483230700,9.421230712890624,0.5117709636688232,1.5772113800048828,0.3907083570957184
2024-12-07 16:00:01.493258000,9.431258056640624,-0.0471699237823486,1.825915813446045,0.918212115764618
2024-12-07 16:00:01.503285200,9.44128515625,-0.2596113681793213,1.6387529373168943,1.4258911609649658
2024-12-07 16:00:01.513312500,9.4513125,-0.3141641616821289,0.8441123962402344,2.059126377105713
2024-12-07 16:00:01.523339800,9.46133984375,-0.170140266418457,-0.9729623794555664,3.149914503097534
2024-12-07 16:00:01.533367000,9.471366943359374,0.4666578769683838,-4.059305191040039,4.582944869995117
2024-12-07 16:00:01.543394300,9.481394287109374,1.243532419204712,-7.778055191040039,5.060381889343262
2024-12-07 16:00:01.553421600,9.491421630859374,1.2647144794464111,-10.92148494720459,4.21614933013916
2024-12-07 16:00:01.563448600,9.501448486328124,1.7112321853637695,-11.626412391662598,2.74397611618042
2024-12-07 16:00:01.573475800,9.511475830078124,2.9048421382904053,-10.508289337158203,0.7756422758102417
2024-12-07 16:00:01.583503000,9.521503173828124,4.820919036865234,-8.04918384552002,-1.8131896257400515
2024-12-07 16:00:01.593530400,9.5315302734375,4.600315093994141,-5.474102973937988,-0.606682300567627
2024-12-07 16:00:01.603557400,9.541557373046874,2.330538034439087,-2.240504264831543,0.1197915077209472
2024-12-07 16:00:01.613584600,9.551584716796874,-0.1528735160827636,1.3439693450927734,-0.0273790955543518
2024-12-07 16:00:01.623612000,9.56161181640625,-1.6114494800567627,4.503721714019775,0.3401862978935241
2024-12-07 16:00:01.633639000,9.571638916015624,-2.199681282043457,7.045188903808594,1.7717859745025637
2024-12-07 16:00:01.643666200,9.581666259765624,-2.495029926300049,8.499781608581543,3.150416374206543
2024-12-07 16:00:01.653693400,9.591693359375,-3.724819421768189,8.853864669799805,3.5914416313171387
2024-12-07 16:00:01.663720400,9.601720458984374,-5.538546085357666,8.545588493347168,4.468320369720459
2024-12-07 16:00:01.673747700,9.611747802734374,-5.997245788574219,7.189463138580322,5.141303539276123
2024-12-07 16:00:01.683775000,9.62177490234375,-5.749317169189453,4.341888904571533,5.266762733459473
2024-12-07 16:00:01.693802200,9.63180224609375,-4.487432479858398,0.8453130722045898,4.793640613555908
2024-12-07 16:00:01.703829200,9.641829345703124,-2.90000057220459,-2.0442914962768555,3.527968406677246
2024-12-07 16:00:01.713856500,9.6518564453125,-1.851797580718994,-4.357407569885254,1.585896134376526
2024-12-07 16:00:01.723883800,9.6618837890625,-1.26629900932312,-5.939913749694824,-1.2655761241912842
2024-12-07 16:00:01.733910800,9.671910888671874,-0.1009290218353271,-6.115839958190918,-4.431670188903809
2024-12-07 16:00:01.743938000,9.68193798828125,1.2593146562576294,-4.658095359802246,-6.494976997375488
2024-12-07 16:00:01.753965300,9.69196533203125,1.424742341041565,-2.6041173934936523,-7.010331153869629
2024-12-07 16:00:01.763992300,9.701992431640624,0.1974413394927978,-1.1232690811157229,-6.153225898742676
2024-12-07 16:00:01.774019600,9.71201953125,-1.4481607675552368,-0.3002700805664062,-4.416837692260742
2024-12-07 16:00:01.784046800,9.722046875,-2.793612003326416,0.1102743148803711,-1.2606269121170044
2024-12-07 16:00:01.794074000,9.73207421875,-2.9130420684814453,0.5437126159667969,1.1274908781051636
2024-12-07 16:00:01.804101000,9.74210107421875,-1.8464643955230715,0.9038219451904296,3.0289528369903564
2024-12-07 16:00:01.814128400,9.75212841796875,-0.5966129302978516,1.0559539794921875,4.680495738983154
2024-12-07 16:00:01.824155600,9.76215576171875,0.1107426881790161,0.6460161209106445,5.991240501403809
2024-12-07 16:00:01.834182700,9.7721826171875,0.0297948718070983,0.3295316696166992,4.920264720916748
2024-12-07 16:00:01.844210000,9.7822099609375,-0.6087984442710876,-0.1599740982055664,2.704741716384888
2024-12-07 16:00:01.854237200,9.7922373046875,-0.9558342099189758,-0.5963134765625,0.7065162658691406
2024-12-07 16:00:01.864264400,9.802264404296874,-1.1139225959777832,-0.9931507110595704,-0.582258939743042
2024-12-07 16:00:01.874291500,9.81229150390625,-1.1652004718780518,-1.0012521743774414,-1.0786759853363037
2024-12-07 16:00:01.884318700,9.822318603515624,-1.2686476707458496,-0.449686050415039,-0.2103064656257629
2024-12-07 16:00:01.894346000,9.832345947265624,-1.2534842491149902,0.6500749588012695,0.7017326951026917
2024-12-07 16:00:01.904373000,9.842373046875,-1.5909793376922607,1.985713005065918,1.287155270576477
2024-12-07 16:00:01.914400300,9.852400146484374,-2.3506875038146973,3.245734691619873,1.7693846225738523
2024-12-07 16:00:01.924427500,9.862427490234374,-2.696133852005005,4.176654815673828,2.351391553878784
2024-12-07 16:00:01.934454500,9.87245458984375,-2.373727560043335,4.740853309631348,2.565134286880493
2024-12-07 16:00:01.944481800,9.882481689453124,-1.0169329643249512,5.125369071960449,2.166327476501465
2024-12-07 16:00:01.954509000,9.892509033203124,0.4595153331756592,5.425743579864502,1.489311456680298
2024-12-07 16:00:01.964536300,9.902536376953124,1.0217911005020142,5.5175862312316895,0.4372267723083496
2024-12-07 16:00:01.974563300,9.912563232421874,0.899243950843811,5.100083827972412,-0.430666983127594
2024-12-07 16:00:01.984590600,9.922590576171874,1.3967682123184204,3.0894079208374023,-1.131253719329834
2024-12-07 16:00:01.994617900,9.932617919921874,2.1525864601135254,-1.40838623046875,-0.96970796585083
2024-12-07 16:00:02.004644900,9.942644775390624,1.900460958480835,-7.407400131225586,0.3628681898117065
2024-12-07 16:00:02.014672100,9.952672119140624,0.715195894241333,-11.02289867401123,0.2300391197204589
2024-12-07 16:00:02.024699400,9.962699462890624,1.2571605443954468,-12.472216606140137,-0.9793865084648132
2024-12-07 16:00:02.034726400,9.972726318359374,3.455307483673096,-9.756118774414062,-3.5957045555114746
2024-12-07 16:00:02.044753700,9.982753662109374,3.235206365585327,-4.099711418151856,-4.571561336517334
2024-12-07 16:00:02.054781000,9.992781005859374,0.5558749437332153,-1.0424308776855469,-6.063925743103027
2024-12-07 16:00:02.064808200,10.00280810546875,-2.239198684692383,0.8655595779418945,-5.823707580566406
2024-12-07 16:00:02.074835500,10.01283544921875,-3.1702775955200195,2.10720443725586,-3.019984722137451
2024-12-07 16:00:02.084862700,10.02286279296875,-2.644503593444824,2.747518539428711,-0.5551063418388367
2024-12-07 16:00:02.094890000,10.032889892578124,-2.0784912109375,3.05953311920166,-0.0280419588088989
2024-12-07 16:00:02.104917200,10.042917236328124,-1.956928253173828,2.9442596435546875,0.0439780950546264
2024-12-07 16:00:02.114944300,10.0529443359375,-2.324939727783203,2.068385124206543,0.6069008111953735
2024-12-07 16:00:02.124971500,10.062971435546874,-1.976146221160889,0.9255304336547852,1.0555453300476074
2024-12-07 16:00:02.134998800,10.072998779296874,-0.8127295970916748,0.2524662017822265,0.9357398748397828
2024-12-07 16:00:02.145026000,10.083026123046874,0.1285924911499023,-0.3433837890625,0.9957585334777832
2024-12-07 16:00:02.155053300,10.09305322265625,1.1372182369232178,-1.0044174194335938,0.2544677257537842
2024-12-07 16:00:02.165080600,10.10308056640625,1.5137120485305786,-1.2994461059570312,-0.0127161741256713
2024-12-07 16:00:02.175107800,10.11310791015625,1.2698947191238403,-1.1957435607910156,-0.0018426179885864
2024-12-07 16:00:02.185135000,10.123135009765624,1.0219683647155762,-0.8232488632202148,-0.0093401670455932
2024-12-07 16:00:02.195162400,10.133162353515624,0.6470449566841125,-0.3217458724975586,0.3533856868743896
2024-12-07 16:00:02.205189600,10.143189697265624,0.2017179280519485,0.1596441268920898,0.6128123998641968
2024-12-07 16:00:02.215217000,10.153216796875,-0.4122738838195801,0.6064090728759766,0.8532819747924805
2024-12-07 16:00:02.225244000,10.163243896484374,-0.7957674860954285,0.8603954315185547,0.9843833446502686
2024-12-07 16:00:02.235271200,10.173271240234374,-0.982044279575348,0.9698657989501952,0.8247884511947632
2024-12-07 16:00:02.245298400,10.18329833984375,-0.8961159586906433,0.9156169891357422,0.8588186502456665
2024-12-07 16:00:02.255325700,10.19332568359375,-0.4140994548797607,0.8028497695922852,0.6399388313293457
2024-12-07 16:00:02.265353000,10.20335302734375,0.1943153887987136,0.5552768707275391,0.4079844951629638
2024-12-07 16:00:02.275380200,10.213380126953124,0.7646821141242981,0.2258129119873047,0.0109385251998901
2024-12-07 16:00:02.285407500,10.223407470703124,1.2479183673858645,-0.0893230438232421,-0.6188550591468811
2024-12-07 16:00:02.295434800,10.233434814453124,1.3142788410186768,-0.2604036331176758,-1.2654473781585691
2024-12-07 16:00:02.305462000,10.2434619140625,1.1229031085968018,-0.3109865188598633,-1.704958200454712
2024-12-07 16:00:02.315489300,10.2534892578125,0.9144412875175476,-0.1550989151000976,-2.093872547149658
2024-12-07 16:00:02.325516300,10.263516357421874,0.7413429021835327,0.1831083297729492,-2.2159547805786133
2024-12-07 16:00:02.335543600,10.27354345703125,0.6070787310600281,0.4116649627685547,-2.0155043601989746
2024-12-07 16:00:02.345570800,10.28357080078125,0.4474676847457886,0.4206132888793945,-1.7154154777526855
2024-12-07 16:00:02.355598000,10.29359814453125,0.1195223778486251,0.3725185394287109,-1.3230692148208618
2024-12-07 16:00:02.365625300,10.303625244140624,-0.1105031371116638,0.2670822143554687,-0.8412460088729858
2024-12-07 16:00:02.375652600,10.313652587890624,-0.0058667957782745,0.0849637985229492,-0.2864658832550049
2024-12-07 16:00:02.385680000,10.323679931640624,0.3562272787094116,-0.0545434951782226,0.1053701639175415
2024-12-07 16:00:02.395707100,10.33370703125,0.742670476436615,-0.1229782104492187,0.2431765794754028
2024-12-07 16:00:02.405734400,10.343734375,0.6917093992233276,-0.1633987426757812,0.2520164251327514
2024-12-07 16:00:02.415761700,10.35376171875,0.5139896273612976,-0.1707906723022461,0.1768804788589477
2024-12-07 16:00:02.425789000,10.363788818359374,0.4634898602962494,-0.1118097305297851,0.3475185632705688
2024-12-07 16:00:02.435816000,10.37381591796875,0.402949720621109,-0.0058670043945312,0.5478687286376953
2024-12-07 16:00:02.445843200,10.38384326171875,0.3386590182781219,0.1563177108764648,0.7678283452987671
2024-12-07 16:00:02.455870500,10.393870361328124,0.5430147051811218,0.317209243774414,0.9068608283996582
2024-12-07 16:00:02.465897700,10.403897705078125,0.8121367692947388,0.4242315292358398,0.993152379989624
2024-12-07 16:00:02.475925000,10.413925048828125,0.7906988263130188,0.4250373840332031,0.9265758991241456
2024-12-07 16:00:02.485952300,10.4239521484375,0.4556705951690674,0.2102565765380859,0.6706836223602295
2024-12-07 16:00:02.495979500,10.4339794921875,-0.0093972086906433,-0.1573925018310547,0.3749163150787353
2024-12-07 16:00:02.506006800,10.4440068359375,-0.4685856699943542,-0.3669557571411133,-0.0358597040176391
2024-12-07 16:00:02.516034000,10.454033935546876,-0.6911143064498901,-0.3803482055664062,-0.4735077619552612
2024-12-07 16:00:02.526061300,10.464061279296876,-0.7156094312667847,-0.1930694580078125,-0.6406981945037842
2024-12-07 16:00:02.536088300,10.47408837890625,-0.4473951458930969,-0.1632223129272461,-1.213468313217163
2024-12-07 16:00:02.546115600,10.484115478515625,-0.3693509697914123,-0.0653457641601562,-0.9701838493347168
2024-12-07 16:00:02.556142800,10.494142822265625,-0.1170083284378051,-0.192169189453125,-0.7590968608856201
2024-12-07 16:00:02.566170000,10.504170166015625,0.1262466311454773,-0.3711605072021484,-0.7476826906204224
2024-12-07 16:00:02.576197400,10.514197265625,0.1139701604843139,-0.5162086486816406,-0.6242468357086182
2024-12-07 16:00:02.586224400,10.524224365234376,0.1593998670578003,-0.4937362670898437,-0.4458311796188354
2024-12-07 16:00:02.596251600,10.534251708984376,0.3348678946495056,-0.2803897857666015,-0.2937041521072387
2024-12-07 16:00:02.606279000,10.54427880859375,0.9403142929077148,-0.1306524276733398,0.0719759464263916
2024-12-07 16:00:02.616306000,10.554305908203125,1.6313560009002686,-0.0871400833129882,0.2345879077911377
2024-12-07 16:00:02.626333200,10.564333251953125,2.083590030670166,-0.1735830307006836,0.4884283542633056
2024-12-07 16:00:02.636360400,10.5743603515625,2.350698947906494,-0.4280080795288086,0.625159740447998
2024-12-07 16:00:02.646387700,10.5843876953125,2.336658477783203,-0.7881851196289062,0.5477697849273682
2024-12-07 16:00:02.656414700,10.594414794921876,2.071606159210205,-1.0719013214111328,0.115821361541748
2024-12-07 16:00:02.666442000,10.60444189453125,1.9025936126708984,-1.4080476760864258,-0.4381207227706909
2024-12-07 16:00:02.676469200,10.61446923828125,1.9007506370544431,-1.9199800491333008,-1.096670389175415
2024-12-07 16:00:02.686496300,10.624496337890625,1.8416435718536377,-2.515294075012207,-2.1004855632781982
2024-12-07 16:00:02.696523500,10.6345234375,1.4423599243164062,-2.895929336547852,-3.21835994720459
2024-12-07 16:00:02.706550800,10.64455078125,1.0034133195877075,-2.90798282623291,-4.184688568115234
2024-12-07 16:00:02.716577800,10.654577880859376,0.6886789798736572,-2.6765594482421875,-4.510165691375732
2024-12-07 16:00:02.726605000,10.66460498046875,0.9061592221260072,-2.232627868652344,-4.19716215133667
2024-12-07 16:00:02.736632300,10.67463232421875,1.402109980583191,-1.79351806640625,-3.9009974002838135
2024-12-07 16:00:02.746659600,10.68465966796875,1.877297282218933,-1.5550870895385742,-3.849261522293091
2024-12-07 16:00:02.756686600,10.6946865234375,2.01981782913208,-1.495701789855957,-3.756471157073975
2024-12-07 16:00:02.766713900,10.7047138671875,1.600203275680542,-1.3895940780639648,-2.76681137084961
2024-12-07 16:00:02.776741000,10.7147412109375,1.4106411933898926,-1.1148290634155271,-0.8988534212112427
2024-12-07 16:00:02.786768100,10.72476806640625,1.7192275524139404,-0.5297861099243164,0.3441505432128906
2024-12-07 16:00:02.796795400,10.73479541015625,2.107629776000977,0.0592298507690429,1.2925403118133545
2024-12-07 16:00:02.806822700,10.74482275390625,2.09544324874878,0.493936538696289,1.873247146606445
2024-12-07 16:00:02.816849700,10.754849609375,1.4375789165496826,0.8407812118530273,2.0719635486602783
2024-12-07 16:00:02.826877000,10.764876953125,0.9630593061447144,1.084824562072754,2.1470742225646973
2024-12-07 16:00:02.836904200,10.774904296875,1.16063392162323,1.1205949783325195,2.221747875213623
2024-12-07 16:00:02.846931500,10.784931396484374,1.59624981880188,1.053175926208496,2.046148538589477
2024-12-07 16:00:02.856958500,10.79495849609375,1.9306066036224363,1.0113029479980469,1.56304669380188
2024-12-07 16:00:02.866985700,10.80498583984375,1.979847073554993,0.9609270095825196,0.9123177528381348
2024-12-07 16:00:02.877013000,10.815012939453124,1.7299150228500366,0.9971227645874025,0.0962092876434326
2024-12-07 16:00:02.887040000,10.8250400390625,1.2265561819076538,1.1959381103515625,-0.7287818193435669
2024-12-07 16:00:02.897067300,10.8350673828125,0.4544908404350281,1.265829086303711,-1.219374656677246
2024-12-07 16:00:02.907094500,10.845094482421874,-0.3285937905311584,0.9924745559692384,-1.4783936738967896
2024-12-07 16:00:02.917121800,10.855121826171874,-0.8667327165603638,0.4584846496582031,-1.4742766618728638
2024-12-07 16:00:02.927148800,10.865148681640624,-1.1768527030944824,-0.1775083541870117,-1.234626054763794
2024-12-07 16:00:02.937176000,10.875176025390624,-1.3887839317321775,-0.8287124633789062,-0.8025839328765869
2024-12-07 16:00:02.947203300,10.885203369140624,-1.5527163743972778,-1.3123550415039062,-0.0981625318527221
2024-12-07 16:00:02.957230300,10.895230224609374,-1.3968333005905151,-1.7040624618530271,0.8006699085235596
2024-12-07 16:00:02.967257600,10.905257568359374,-1.6032745838165283,-2.14411735534668,2.31167221069336
2024-12-07 16:00:02.977284900,10.915284912109374,-2.829193353652954,-2.549440383911133,2.703133583068848
2024-12-07 16:00:02.987311900,10.925311767578124,-3.1636197566986084,-2.69765567779541,2.877759456634521
2024-12-07 16:00:02.997339100,10.935339111328124,-2.411308765411377,-2.3739023208618164,2.4300765991210938
2024-12-07 16:00:03.007366400,10.945366455078124,-2.380235433578491,-1.8803844451904297,1.8784315586090088
2024-12-07 16:00:03.017393700,10.9553935546875,-2.443886041641236,-1.555802345275879,0.9676772356033324
2024-12-07 16:00:03.027420700,10.965420654296874,-2.266111135482788,-1.4663801193237305,-0.1396042108535766
2024-12-07 16:00:03.037448000,10.975447998046874,-2.0476186275482178,-1.4446487426757812,-1.0991960763931274
2024-12-07 16:00:03.047475200,10.98547509765625,-1.507319092750549,-1.2953481674194336,-1.982102632522583
2024-12-07 16:00:03.057502500,10.99550244140625,-0.5884230136871338,-1.2349281311035156,-2.537097692489624
2024-12-07 16:00:03.067529700,11.00552978515625,0.6126675605773926,-1.2082748413085938,-2.453689813613892
2024-12-07 16:00:03.077557000,11.015556884765624,1.2156898975372314,-0.960219383239746,-2.212040662765503
2024-12-07 16:00:03.087584300,11.025584228515624,0.8336343765258789,-0.5402994155883789,-1.7921665906906128
2024-12-07 16:00:03.097611500,11.035611572265625,-0.3382298946380615,-0.0107660293579101,-1.0042099952697754
2024-12-07 16:00:03.107638800,11.045638671875,-1.4514892101287842,0.5772075653076172,-0.008868396282196
2024-12-07 16:00:03.117666000,11.055666015625,-2.1806654930114746,1.081777572631836,1.015841722488403
2024-12-07 16:00:03.127693000,11.065693115234374,-2.556694746017456,1.4901618957519531,1.942323923110962
2024-12-07 16:00:03.137720300,11.07572021484375,-2.885075807571411,1.411508560180664,3.373218059539795
2024-12-07 16:00:03.147747600,11.08574755859375,-2.689533948898315,1.534860610961914,3.635592222213745
2024-12-07 16:00:03.157774800,11.09577490234375,-2.381430625915528,1.5404281616210938,3.613951444625856
2024-12-07 16:00:03.167802000,11.105802001953125,-2.056797504425049,1.6437263488769531,3.321479797363281
2024-12-07 16:00:03.177829400,11.115829345703125,-2.345320224761963,1.4485235214233398,4.052971363067627
2024-12-07 16:00:03.187856600,11.125856689453125,-2.169736385345459,1.6246929168701172,3.444203615188598
2024-12-07 16:00:03.197884000,11.1358837890625,-2.2770681381225586,1.7079272270202637,2.8061676025390625
2024-12-07 16:00:03.207911200,11.1459111328125,-2.370410919189453,1.5935535430908203,2.3291611671447754
2024-12-07 16:00:03.217938400,11.1559384765625,-2.283730983734131,1.3819694519042969,2.3052728176116943
2024-12-07 16:00:03.227965700,11.165965576171876,-2.053497314453125,1.1488027572631836,2.278737545013428
2024-12-07 16:00:03.237992700,11.17599267578125,-1.8259952068328853,0.9122209548950196,2.2737724781036377
2024-12-07 16:00:03.248020000,11.18602001953125,-1.5122300386428833,0.6859312057495117,2.305370569229126
2024-12-07 16:00:03.258047200,11.196047119140625,-1.1429650783538818,0.526606559753418,2.289071798324585
2024-12-07 16:00:03.268074500,11.206074462890625,-0.7666387557983398,0.5151700973510742,2.188516855239868
2024-12-07 16:00:03.278101800,11.216101806640625,-0.2492806911468505,0.6178665161132812,1.9881821870803835
2024-12-07 16:00:03.288129000,11.22612890625,0.2034010887145996,0.5954265594482422,1.8123269081115725
2024-12-07 16:00:03.298156300,11.23615625,0.5429861545562744,0.4572925567626953,1.6570764780044556
2024-12-07 16:00:03.308183600,11.24618359375,0.6863138675689697,0.3365936279296875,1.199509859085083
2024-12-07 16:00:03.318210800,11.2562109375,0.7618389129638672,0.2663164138793945,0.6072505712509155
2024-12-07 16:00:03.328238000,11.266238037109376,0.8075511455535889,0.2031574249267578,-0.0755033791065216
2024-12-07 16:00:03.338265000,11.27626513671875,0.8482434749603271,0.1521329879760742,-0.6938366293907166
2024-12-07 16:00:03.348292400,11.286292236328125,0.7087163925170898,0.1328706741333007,-1.278575420379639
2024-12-07 16:00:03.358319600,11.296319580078125,0.7165851593017578,0.088907241821289,-1.8694051504135127
2024-12-07 16:00:03.368347000,11.306346923828125,0.7577469348907471,0.030430793762207,-2.452596664428711
2024-12-07 16:00:03.378374100,11.3163740234375,0.7100265026092529,0.0301856994628906,-2.8284661769866943
2024-12-07 16:00:03.388401400,11.3264013671875,0.7284417152404785,0.0173492431640625,-2.9329466819763184
2024-12-07 16:00:03.398428700,11.3364287109375,0.8087716102600098,-0.0936336517333984,-2.966912746429444
2024-12-07 16:00:03.408456000,11.3464560546875,0.764838457107544,-0.2353019714355468,-3.238964080810547
2024-12-07 16:00:03.418483200,11.356483154296876,0.6389250755310059,-0.3167629241943359,-3.3623783588409424
2024-12-07 16:00:03.428510500,11.366510498046877,0.6876580715179443,-0.3003606796264648,-3.212204933166504
2024-12-07 16:00:03.438537700,11.376537841796877,1.0656723976135254,-0.2208566665649414,-2.915181398391724
2024-12-07 16:00:03.448564700,11.386564697265625,1.5639369487762451,-0.1752891540527343,-2.561511993408203
2024-12-07 16:00:03.458592000,11.396592041015625,1.8946611881256104,-0.2406330108642578,-2.4985344409942627
2024-12-07 16:00:03.468619300,11.406619384765625,1.977016925811768,-0.3213615417480469,-2.575476884841919
2024-12-07 16:00:03.478646500,11.416646484375,2.0880391597747803,-0.4178037643432617,-2.8558664321899414
2024-12-07 16:00:03.488673800,11.426673828125,2.0918126106262207,-0.4256772994995117,-2.8011107444763184
2024-12-07 16:00:03.498701000,11.436701171875,1.8913164138793943,-0.1692028045654297,-2.16555404663086
2024-12-07 16:00:03.508728300,11.446728271484377,1.5500879287719729,0.3416557312011719,-1.7732232809066772
2024-12-07 16:00:03.518755600,11.456755615234377,1.019575119018555,1.045344352722168,-0.6407279968261719
2024-12-07 16:00:03.528782800,11.466782958984377,0.3018429279327392,1.828853130340576,0.2242382168769836
2024-12-07 16:00:03.538810000,11.47681005859375,-0.3434648513793945,2.541287422180176,0.9120967388153076
2024-12-07 16:00:03.548837000,11.486837158203125,-0.6818418502807617,3.070101261138916,1.4119688272476196
2024-12-07 16:00:03.558864400,11.496864501953125,-0.7008819580078125,3.311812400817871,1.472930073738098
2024-12-07 16:00:03.568891600,11.5068916015625,-0.4726746082305908,3.1238131523132324,1.1245495080947876
2024-12-07 16:00:03.578918700,11.516918701171877,-0.3262853622436523,2.687260150909424,0.7189004421234131
2024-12-07 16:00:03.588946000,11.52694580078125,-0.4878802299499511,2.0544686317443848,0.716890811920166
2024-12-07 16:00:03.598973200,11.53697314453125,-0.764434814453125,1.173501968383789,1.114412546157837
2024-12-07 16:00:03.609000200,11.547000244140625,-1.0409682989120483,-0.0079517364501953,1.839747190475464
2024-12-07 16:00:03.619027500,11.55702734375,-1.0893604755401611,-1.7096691131591797,2.88346004486084
2024-12-07 16:00:03.629054700,11.5670546875,-0.7040097713470459,-3.8651723861694336,4.21140718460083
2024-12-07 16:00:03.639082000,11.57708203125,0.1458876132965088,-6.308273315429688,5.369527816772461
2024-12-07 16:00:03.649109000,11.58710888671875,1.092933177947998,-8.562567710876465,5.415658473968506
2024-12-07 16:00:03.659136300,11.59713623046875,1.7951147556304932,-9.735692977905272,3.887372493743897
2024-12-07 16:00:03.669163500,11.60716357421875,2.511146068572998,-9.79214096069336,2.0502748489379883
2024-12-07 16:00:03.679190500,11.6171904296875,3.407907247543335,-8.000876426696777,0.309200644493103
2024-12-07 16:00:03.689217800,11.6272177734375,4.514374732971191,-5.538204193115234,-2.25260329246521
2024-12-07 16:00:03.699245000,11.6372451171875,4.520480632781982,-3.532041549682617,-3.697265625
2024-12-07 16:00:03.709272000,11.64727197265625,2.7995643615722656,-1.0339508056640625,-3.0538973808288574
2024-12-07 16:00:03.719299300,11.65729931640625,0.3836250305175781,1.8774757385253904,-2.222506046295166
2024-12-07 16:00:03.729326600,11.66732666015625,-1.5008413791656494,4.588570594787598,-0.528713583946228
2024-12-07 16:00:03.739353900,11.677353759765625,-1.993617057800293,6.819118499755859,0.996769368648529
2024-12-07 16:00:03.749380900,11.687380859375,-1.6376243829727173,8.024250030517578,1.8117274045944216
2024-12-07 16:00:03.759408000,11.697408203125,-2.3833580017089844,7.8519182205200195,2.476727247238159
2024-12-07 16:00:03.769435400,11.707435302734376,-3.782590389251709,7.219274520874023,2.9453835487365723
