time,seconds_elapsed,z,y,x
2024-12-07 16:29:19.162731800,0.132731689453125,-0.2199504375457763,-0.076054573059082,-0.0440913438796997
2024-12-07 16:29:19.172768300,0.142768310546875,-0.2474393844604492,-0.0332489013671875,-0.0839676856994628
2024-12-07 16:29:19.182809000,0.15280908203125,-0.2223412990570068,-0.0207862854003906,-0.0508491992950439
2024-12-07 16:29:19.192853000,0.16285302734375,-0.1614642143249511,-0.0665903091430664,0.0100995302200317
2024-12-07 16:29:19.202899700,0.172899658203125,-0.1019971370697021,-0.0872344970703125,0.0088838338851928
2024-12-07 16:29:19.212948000,0.182947998046875,-0.1097602844238281,-0.0980644226074218,-0.023333191871643
2024-12-07 16:29:19.222997200,0.192997314453125,-0.0010523796081542,-0.0996761322021484,-0.0668355226516723
2024-12-07 16:29:19.233046300,0.20304638671875,0.0775990486145019,-0.0659122467041015,-0.1259047985076904
2024-12-07 16:29:19.243074800,0.21307470703125,0.0337746143341064,-0.0571422576904296,-0.2497329711914062
2024-12-07 16:29:19.253102800,0.223102783203125,-0.0170907974243164,-0.0447359085083007,-0.3580021858215332
2024-12-07 16:29:19.263131000,0.233130859375,0.0107882022857666,0.0164985656738281,-0.3933451175689697
2024-12-07 16:29:19.273159000,0.243158935546875,-0.053908348083496,0.0610179901123046,-0.3734563589096069
2024-12-07 16:29:19.283187000,0.25318701171875,0.0350327491760253,0.0671644210815429,-0.2963643074035644
2024-12-07 16:29:19.293215000,0.263215087890625,-0.0669953823089599,0.0368337631225585,-0.2608368396759033
2024-12-07 16:29:19.303243300,0.2732431640625,-0.0124125480651855,-0.0145235061645507,-0.2836952209472656
2024-12-07 16:29:19.313271300,0.283271240234375,-0.1025726795196533,-0.0866928100585937,-0.3570363521575928
2024-12-07 16:29:19.323299300,0.29329931640625,-0.2437734603881836,-0.1559772491455078,-0.2900286912918091
2024-12-07 16:29:19.333327400,0.303327392578125,-0.1683783531188964,-0.1768217086791992,-0.1112173795700073
2024-12-07 16:29:19.343355400,0.31335546875,-0.3194403648376465,-0.1422224044799804,-0.0689331293106079
2024-12-07 16:29:19.353383400,0.323383544921875,-0.2949447631835937,-0.067453384399414,0.0680471658706665
2024-12-07 16:29:19.363411500,0.333411376953125,-0.0869648456573486,0.0417823791503906,0.1435796022415161
2024-12-07 16:29:19.373439700,0.343439697265625,-0.2947323322296142,0.1008901596069336,-0.0707417726516723
2024-12-07 16:29:19.383467800,0.3534677734375,-0.4312665462493896,0.1164026260375976,-0.1386107206344604
2024-12-07 16:29:19.393495800,0.363495849609375,-0.3363879919052124,0.0666580200195312,-0.1811542510986328
2024-12-07 16:29:19.403523800,0.37352392578125,-0.2443816661834716,-0.0186700820922851,-0.2452105283737182
2024-12-07 16:29:19.413551900,0.3835517578125,-0.2382786273956298,-0.0410346984863281,-0.4370192289352417
2024-12-07 16:29:19.423580000,0.393579833984375,-0.2400472164154052,-0.0625944137573242,-0.5757535696029663
2024-12-07 16:29:19.433608200,0.403608154296875,-0.1842317581176757,-0.0088186264038085,-0.6125035285949707
2024-12-07 16:29:19.443636200,0.41363623046875,-0.082477331161499,0.0530433654785156,-0.6067991256713867
2024-12-07 16:29:19.453664300,0.423664306640625,0.1185414791107177,0.0947885513305664,-0.5240457057952881
2024-12-07 16:29:19.463692300,0.4336923828125,0.3165786266326904,0.0980300903320312,-0.4277149438858032
2024-12-07 16:29:19.473720300,0.44372021484375,0.2103791236877441,0.1293888092041015,-0.4198713302612304
2024-12-07 16:29:19.483748400,0.453748291015625,0.2571334838867187,0.11346435546875,-0.4308122396469116
2024-12-07 16:29:19.493776600,0.463776611328125,0.2196130752563476,0.0792722702026367,-0.1926800012588501
2024-12-07 16:29:19.503804700,0.4738046875,0.2969899177551269,0.0930242538452148,-0.0207105875015258
2024-12-07 16:29:19.513832700,0.483832763671875,0.4663939476013183,0.0224685668945312,0.1227916479110717
2024-12-07 16:29:19.523860700,0.49386083984375,0.532970666885376,-0.0136070251464843,0.0782742500305175
2024-12-07 16:29:19.533888800,0.503888671875,0.5172121524810791,0.0399017333984375,-0.1396342515945434
2024-12-07 16:29:19.543916800,0.513916748046875,0.665475606918335,0.1484031677246093,-0.2640438079833984
2024-12-07 16:29:19.553945000,0.523945068359375,0.868283748626709,0.0852928161621093,-0.2421281337738037
2024-12-07 16:29:19.563973000,0.53397314453125,0.5907928943634033,0.0559568405151367,-0.4853569269180298
2024-12-07 16:29:19.574001200,0.544001220703125,0.4423739910125732,-0.0145273208618164,-0.6688706874847412
2024-12-07 16:29:19.584029200,0.554029296875,0.3877575397491455,0.0200519561767578,-1.0324770212173462
2024-12-07 16:29:19.594057200,0.56405712890625,0.174699068069458,0.0772619247436523,-1.280130386352539
2024-12-07 16:29:19.604085200,0.574085205078125,-0.1463944911956787,0.1849393844604492,-1.38989520072937
2024-12-07 16:29:19.614113300,0.58411328125,-0.544058084487915,0.3142232894897461,-1.3915070295333862
2024-12-07 16:29:19.624141600,0.5941416015625,-0.9910894632339478,0.4087505340576172,-1.3511369228363037
2024-12-07 16:29:19.634169600,0.604169677734375,-1.1034201383590698,0.4789094924926758,-1.2114362716674805
2024-12-07 16:29:19.644197600,0.61419775390625,-0.7978408336639404,0.5297212600708008,-0.9364043474197388
2024-12-07 16:29:19.654225700,0.6242255859375,-0.4180471897125244,0.4528217315673828,-0.618791937828064
2024-12-07 16:29:19.664253700,0.634253662109375,-0.1564490795135498,0.2405605316162109,-0.4498206377029419
2024-12-07 16:29:19.674281700,0.64428173828125,-0.1347894668579101,0.1728162765502929,-0.4002934694290161
2024-12-07 16:29:19.684310000,0.65431005859375,-0.042304515838623,0.228550910949707,-0.3275878429412842
2024-12-07 16:29:19.694338000,0.664338134765625,0.2556030750274658,0.2031145095825195,-0.1617343425750732
2024-12-07 16:29:19.704366000,0.674365966796875,0.4109983444213867,0.1494865417480468,0.0675523281097412
2024-12-07 16:29:19.714394000,0.68439404296875,0.4871599674224853,0.0965251922607421,0.2687510251998901
2024-12-07 16:29:19.724422100,0.694422119140625,0.4665083885192871,0.0681543350219726,0.6615502834320068
2024-12-07 16:29:19.734450200,0.7044501953125,0.4684722423553467,0.1115989685058593,0.8821921348571777
2024-12-07 16:29:19.744478500,0.714478515625,0.5546236038208008,0.1316518783569336,0.9006251692771912
2024-12-07 16:29:19.754506500,0.724506591796875,0.7126452922821045,0.0906648635864257,0.8240771293640137
2024-12-07 16:29:19.764534500,0.734534423828125,0.76593017578125,0.0365962982177734,0.6629164218902588
2024-12-07 16:29:19.774562600,0.7445625,0.5189290046691895,-0.0164623260498046,0.2226690053939819
2024-12-07 16:29:19.784590600,0.754590576171875,0.234370470046997,-0.0070924758911132,-0.0513035058975219
2024-12-07 16:29:19.794618600,0.76461865234375,0.1430836915969848,-0.0639209747314453,-0.3152222633361816
2024-12-07 16:29:19.804647000,0.77464697265625,-0.0241107940673828,-0.0688295364379882,-0.2571686506271362
2024-12-07 16:29:19.814675000,0.784675048828125,-0.3843361139297485,0.0343170166015625,-0.0395464897155761
2024-12-07 16:29:19.824703000,0.794702880859375,-0.7252998352050781,-0.005859375,-0.0027889013290405
2024-12-07 16:29:19.834731000,0.80473095703125,-0.9115990400314332,-0.1489849090576172,0.4131343364715576
2024-12-07 16:29:19.844759000,0.814759033203125,-0.7214987277984619,-0.2987871170043945,0.8008264899253845
2024-12-07 16:29:19.854787000,0.824787109375,-0.1295146942138672,-0.5121803283691406,1.191642999649048
2024-12-07 16:29:19.864815000,0.834815185546875,0.3924704790115356,-0.5952682495117188,1.2685959339141846
2024-12-07 16:29:19.874843400,0.844843505859375,0.790198564529419,-0.7911319732666016,1.8751157522201536
2024-12-07 16:29:19.884871400,0.854871337890625,0.9312069416046144,-0.8002328872680664,2.0078930854797363
2024-12-07 16:29:19.894899500,0.8648994140625,0.8138864040374756,-0.6155452728271484,1.7630071640014648
2024-12-07 16:29:19.904927500,0.874927490234375,0.4523779153823852,-0.305607795715332,1.5061469078063965
2024-12-07 16:29:19.914955500,0.88495556640625,0.0219992399215698,-0.1509008407592773,0.9933347702026368
2024-12-07 16:29:19.924983600,0.894983642578125,-0.2941001653671264,0.0113592147827148,0.4911302924156189
2024-12-07 16:29:19.935011800,0.90501171875,-0.5010859966278076,0.1007833480834961,0.3266038298606872
2024-12-07 16:29:19.945040000,0.915039794921875,-0.6185531616210938,0.1845769882202148,-0.1852728128433227
2024-12-07 16:29:19.955068000,0.92506787109375,-0.7227849960327148,0.2485160827636718,-0.6127203702926636
2024-12-07 16:29:19.965096000,0.935095947265625,-0.6064077615737915,0.2265453338623047,-0.862949013710022
2024-12-07 16:29:19.975124000,0.9451240234375,-0.6278351545333862,0.2094717025756836,-1.0803401470184326
2024-12-07 16:29:19.985152300,0.95515234375,-0.5628365278244019,0.2020511627197265,-1.1519513130187988
2024-12-07 16:29:19.995180300,0.96518017578125,-0.4320031404495239,0.1425018310546875,-1.1127636432647705
2024-12-07 16:29:20.005208600,0.97520849609375,-0.316811203956604,0.1214275360107421,-1.0643285512924194
2024-12-07 16:29:20.015236600,0.985236572265625,-0.2642467021942138,0.1952400207519531,-0.8877648115158081
2024-12-07 16:29:20.025264600,0.9952646484375,-0.2118055820465088,0.2398662567138672,-0.807532787322998
2024-12-07 16:29:20.035293000,1.00529296875,-0.2307956218719482,0.1986618041992187,-0.8221633434295654
2024-12-07 16:29:20.045321000,1.015321044921875,-0.3858555555343628,0.1579256057739257,-0.7689903974533081
2024-12-07 16:29:20.055349000,1.025348876953125,-0.2768006324768066,0.1272954940795898,-0.7438817024230957
2024-12-07 16:29:20.065377300,1.035377197265625,-0.0015757083892822,-0.0023260116577148,-0.818812370300293
2024-12-07 16:29:20.075405300,1.0454052734375,0.3411386013031006,-0.0312118530273437,-1.074037790298462
2024-12-07 16:29:20.085433300,1.055433349609375,0.455348253250122,-0.1407070159912109,-1.2050563097000122
2024-12-07 16:29:20.095461600,1.065461669921875,0.565726637840271,-0.059798240661621,-1.275296926498413
2024-12-07 16:29:20.105489700,1.07548974609375,0.3267419338226318,-0.0607423782348632,-1.283104658126831
2024-12-07 16:29:20.115518000,1.08551806640625,0.1300143003463745,0.0238676071166992,-1.0240687131881714
2024-12-07 16:29:20.125546000,1.0955458984375,0.3134579658508301,0.1839656829833984,-0.7229520678520203
2024-12-07 16:29:20.135574000,1.105573974609375,0.6028503179550171,0.300140380859375,-0.3933759331703186
2024-12-07 16:29:20.145602300,1.115602294921875,0.8550777435302734,0.42034912109375,-0.1358540654182434
2024-12-07 16:29:20.155630300,1.12563037109375,1.2685186862945557,0.1506509780883789,-0.4341534376144409
2024-12-07 16:29:20.165658400,1.135658447265625,1.6355983018875122,0.3680486679077148,0.3160796165466308
2024-12-07 16:29:20.175686700,1.145686767578125,2.2249553203582764,0.2125091552734375,-0.2923706173896789
2024-12-07 16:29:20.185714700,1.155714599609375,2.089051485061645,0.1225261688232421,-0.3218348622322082
2024-12-07 16:29:20.195742700,1.16574267578125,1.0651417970657349,-0.1438913345336914,-0.6744740605354309
2024-12-07 16:29:20.205771000,1.17577099609375,-0.3196891546249389,-0.2379522323608398,-1.5428171157836914
2024-12-07 16:29:20.215799000,1.185799072265625,-1.4934908151626587,-0.0276422500610351,-2.093484878540039
2024-12-07 16:29:20.225827300,1.195827392578125,-1.901329755783081,0.0957155227661132,-1.8554368019104004
2024-12-07 16:29:20.235855400,1.20585546875,-1.7197884321212769,0.2187614440917968,-1.1002905368804932
2024-12-07 16:29:20.245883400,1.21588330078125,-1.4750558137893677,0.7218360900878906,-0.5738787651062012
2024-12-07 16:29:20.255911700,1.22591162109375,-1.3466973304748535,0.8516960144042969,-1.0939490795135498
2024-12-07 16:29:20.265939700,1.235939697265625,-1.0658326148986816,0.8240528106689453,-1.9848482608795168
2024-12-07 16:29:20.275967700,1.2459677734375,-1.0664494037628174,0.8627023696899414,-2.2403526306152344
2024-12-07 16:29:20.285996000,1.25599609375,-0.991941511631012,0.8010578155517578,-2.1054601669311523
2024-12-07 16:29:20.296024000,1.266024169921875,-0.6615526676177979,0.6160688400268555,-1.468078374862671
2024-12-07 16:29:20.306052000,1.276052001953125,-0.0967081785202026,0.2421903610229492,-0.3197197914123535
2024-12-07 16:29:20.316080000,1.286080078125,0.741235613822937,0.4550313949584961,0.4251980185508728
2024-12-07 16:29:20.326108200,1.296108154296875,2.121539354324341,0.3422470092773437,0.8344656825065613
2024-12-07 16:29:20.336136400,1.306136474609375,2.8292269706726074,0.2960948944091797,1.6363632678985596
2024-12-07 16:29:20.346164500,1.31616455078125,3.0908453464508057,0.2653236389160156,2.457711696624756
2024-12-07 16:29:20.356192500,1.326192626953125,3.338266134262085,0.3927278518676758,2.545597076416016
2024-12-07 16:29:20.366220500,1.336220458984375,3.058218002319336,0.5202846527099609,2.4035511016845703
2024-12-07 16:29:20.376248600,1.34624853515625,2.790998935699463,0.6991682052612305,1.758918523788452
2024-12-07 16:29:20.386276600,1.356276611328125,2.4271020889282227,0.7091178894042969,1.1275911331176758
2024-12-07 16:29:20.396304600,1.3663046875,2.0154504776000977,0.5791025161743164,0.6533870697021484
2024-12-07 16:29:20.406333000,1.3763330078125,1.7810490131378174,0.3237743377685547,0.0803738832473754
2024-12-07 16:29:20.416361000,1.38636083984375,1.666786551475525,0.166996955871582,-0.2951028347015381
2024-12-07 16:29:20.426389000,1.396388916015625,1.631691336631775,-0.3158082962036133,-0.546556830406189
2024-12-07 16:29:20.436417000,1.4064169921875,0.8949612379074097,-0.7711009979248047,-0.7341572046279907
2024-12-07 16:29:20.446445000,1.416445068359375,0.171342134475708,-0.8750753402709961,-0.4942108392715454
2024-12-07 16:29:20.456473000,1.42647314453125,-0.2100996971130371,-0.7763376235961914,0.1446974873542785
2024-12-07 16:29:20.466501400,1.43650146484375,-0.3574479818344116,-0.4738273620605469,0.7640350461006165
2024-12-07 16:29:20.476529400,1.446529296875,0.0132439136505126,-0.0443220138549804,1.2210826873779297
2024-12-07 16:29:20.486557400,1.456557373046875,0.0915019512176513,-0.0450448989868164,1.7389757633209229
2024-12-07 16:29:20.496585500,1.46658544921875,0.2595939636230469,-0.1824836730957031,1.685802936553955
2024-12-07 16:29:20.506613500,1.476613525390625,0.5410161018371582,-0.59539794921875,1.0264310836791992
2024-12-07 16:29:20.516641500,1.4866416015625,0.3689429759979248,-2.205059051513672,0.3417261838912964
2024-12-07 16:29:20.526669800,1.496669921875,-0.2334539890289306,-4.412186622619629,-0.086887240409851
2024-12-07 16:29:20.536697900,1.50669775390625,-0.5277624130249023,-6.588988304138184,-0.4699960947036743
2024-12-07 16:29:20.546726000,1.516725830078125,-0.5321698188781738,-7.733262062072754,-1.1609102487564087
2024-12-07 16:29:20.556754000,1.52675390625,-0.4215121269226074,-5.633413314819336,-3.065265655517578
2024-12-07 16:29:20.566782000,1.536781982421875,-0.4091153144836426,-2.133871078491211,-3.4252634048461914
2024-12-07 16:29:20.576810000,1.54681005859375,-0.6400518417358398,-0.1047258377075195,-1.160037875175476
2024-12-07 16:29:20.586838000,1.556838134765625,-0.5086941719055176,0.8170928955078125,0.8700839877128601
2024-12-07 16:29:20.596866300,1.5668662109375,0.1014103889465332,1.6135835647583008,2.665144443511963
2024-12-07 16:29:20.606894300,1.576894287109375,0.3150784969329834,1.3814582824707031,4.097599983215332
2024-12-07 16:29:20.616922400,1.58692236328125,-0.14302659034729,0.4240665435791015,5.162837505340576
2024-12-07 16:29:20.626950400,1.596950439453125,-0.7849874496459961,-0.6659326553344727,6.000792980194092
2024-12-07 16:29:20.636978400,1.606978515625,-1.282376050949097,-1.1334447860717771,6.200739860534668
2024-12-07 16:29:20.647006500,1.61700634765625,-1.4607690572738647,0.0944204330444336,6.036506175994873
2024-12-07 16:29:20.657034800,1.62703466796875,-1.521170973777771,0.5513458251953125,3.329387187957764
2024-12-07 16:29:20.667062800,1.637062744140625,-1.767419695854187,0.4912700653076172,2.7230820655822754
2024-12-07 16:29:20.677090800,1.6470908203125,-2.195007801055908,0.966350555419922,1.7152609825134275
2024-12-07 16:29:20.687118800,1.657118896484375,-2.202581882476806,1.2987775802612305,0.7688814401626587
2024-12-07 16:29:20.697147000,1.66714697265625,-1.7858507633209229,0.9901533126831056,-0.0148924589157104
2024-12-07 16:29:20.707175000,1.6771748046875,-1.155004858970642,0.6517868041992188,-0.5190941095352173
2024-12-07 16:29:20.717203200,1.687203125,-0.5356533527374268,0.505925178527832,-0.2240712642669677
2024-12-07 16:29:20.727231200,1.697231201171875,-0.2880966663360595,0.4938678741455078,0.57492995262146
2024-12-07 16:29:20.737259300,1.70725927734375,-0.3620655536651611,0.3209209442138672,1.5162781476974487
2024-12-07 16:29:20.747287300,1.717287353515625,-0.4129030704498291,0.1076784133911132,2.309976100921631
2024-12-07 16:29:20.757315300,1.7273154296875,-0.4287350177764892,-0.1172542572021484,2.749591588973999
2024-12-07 16:29:20.767343400,1.73734326171875,-0.6020288467407227,-0.5108737945556641,3.148491859436035
2024-12-07 16:29:20.777371600,1.74737158203125,-0.8634167909622192,4.372660636901856,1.5341038703918457
2024-12-07 16:29:20.787399700,1.757399658203125,-0.3733458518981933,8.708512306213379,3.9896702766418457
2024-12-07 16:29:20.797427700,1.767427734375,-3.203207015991211,1.901342868804932,1.1537286043167114
2024-12-07 16:29:20.807455700,1.777455810546875,-1.252755880355835,0.6447477340698242,2.361802101135254
2024-12-07 16:29:20.817483800,1.78748388671875,0.0406334400177001,0.3807516098022461,3.342043399810791
2024-12-07 16:29:20.827511800,1.79751171875,0.2732923030853271,-0.7478170394897461,3.248204708099365
2024-12-07 16:29:20.837539800,1.807539794921875,1.0781538486480713,-1.6940326690673828,3.846088409423828
2024-12-07 16:29:20.847568100,1.817568115234375,1.6885900497436523,-0.8334722518920898,2.642153739929199
2024-12-07 16:29:20.857596200,1.82759619140625,1.7449090480804443,-0.0673542022705078,1.5429502725601196
2024-12-07 16:29:20.867624200,1.837624267578125,1.752011775970459,0.1379261016845703,1.1247490644454956
2024-12-07 16:29:20.877652200,1.84765234375,1.6562814712524414,0.1417760848999023,0.841422438621521
2024-12-07 16:29:20.887680300,1.85768017578125,1.1965529918670654,0.4222297668457031,0.243102341890335
2024-12-07 16:29:20.897708300,1.867708251953125,0.6188144683837891,-0.0972242355346679,0.5483940839767456
2024-12-07 16:29:20.907736600,1.877736572265625,0.7152872085571289,-0.6015987396240234,0.343711107969284
2024-12-07 16:29:20.917764600,1.8877646484375,0.8159058094024658,-0.6188631057739258,-0.2812583148479461
2024-12-07 16:29:20.927792600,1.897792724609375,1.60221266746521,-1.1226110458374023,-0.70417320728302
2024-12-07 16:29:20.937820700,1.907820556640625,1.7694408893585205,-1.1742668151855469,-1.0659949779510498
2024-12-07 16:29:20.947848700,1.9178486328125,1.32146954536438,-1.0214710235595703,-0.8990439176559448
2024-12-07 16:29:20.957876700,1.927876708984375,1.2453479766845703,-0.7121362686157227,-1.3081730604171753
2024-12-07 16:29:20.967905000,1.937905029296875,1.4214730262756348,-0.4428987503051758,-1.7467559576034546
2024-12-07 16:29:20.977933000,1.94793310546875,1.6793084144592283,-0.1400289535522461,-2.705789566040039
2024-12-07 16:29:20.987961000,1.957961181640625,0.7850329875946045,0.0356254577636718,-4.169613838195801
2024-12-07 16:29:20.997989000,1.967989013671875,0.1172337532043457,0.2241735458374023,-4.917063236236572
2024-12-07 16:29:21.008017200,1.97801708984375,0.5726656913757324,0.3285121917724609,-4.877429485321045
2024-12-07 16:29:21.018045200,1.988045166015625,2.619199514389038,0.1562318801879882,-4.5666279792785645
2024-12-07 16:29:21.028073500,1.998073486328125,3.3445804119110107,0.2713651657104492,-4.623767852783203
2024-12-07 16:29:21.038101500,2.0081015625,3.35194730758667,0.0607004165649414,-4.345017433166504
2024-12-07 16:29:21.048129500,2.018129638671875,3.0978479385375977,-0.2749891281127929,-3.455036878585815
2024-12-07 16:29:21.058157600,2.028157470703125,2.443867921829224,-0.8152799606323242,-2.2972195148468018
2024-12-07 16:29:21.068185600,2.038185546875,1.378121852874756,-1.314967155456543,-1.2123382091522217
2024-12-07 16:29:21.078213600,2.048213623046875,0.4319403171539306,-1.6635589599609375,-0.11281618475914
2024-12-07 16:29:21.088241700,2.05824169921875,0.0877587795257568,-1.947225570678711,1.1245499849319458
2024-12-07 16:29:21.098270000,2.06827001953125,0.2142984867095947,-2.06245231628418,2.1361751556396484
2024-12-07 16:29:21.108298000,2.078298095703125,0.2272013425827026,-1.892111778259277,2.6822211742401123
2024-12-07 16:29:21.118326000,2.088325927734375,0.0590159893035888,-1.3425664901733398,2.7603461742401123
2024-12-07 16:29:21.128354000,2.09835400390625,0.2072452306747436,-0.7489328384399414,3.473641395568848
2024-12-07 16:29:21.138382000,2.108382080078125,0.6867005825042725,-0.0298690795898437,3.711260318756103
2024-12-07 16:29:21.148410000,2.11841015625,1.3931525945663452,0.7944574356079102,1.9432733058929443
2024-12-07 16:29:21.158438400,2.1284384765625,1.34169340133667,1.3228683471679688,0.2646979689598083
2024-12-07 16:29:21.168466400,2.138466552734375,0.5951727628707886,1.5715217590332031,-0.4301807880401611
2024-12-07 16:29:21.178494500,2.148494384765625,-0.3261020183563232,1.7756977081298828,-0.3716045618057251
2024-12-07 16:29:21.188522500,2.1585224609375,-1.0445770025253296,1.8974857330322263,-0.2973364293575287
2024-12-07 16:29:21.198550500,2.168550537109375,-1.5971148014068604,1.7708683013916016,-0.0553047582507133
2024-12-07 16:29:21.208578600,2.17857861328125,-2.0008676052093506,1.321218490600586,0.479037344455719
2024-12-07 16:29:21.218606800,2.18860693359375,-2.439839601516724,0.6362571716308594,0.8484756946563721
2024-12-07 16:29:21.228635000,2.198634765625,-2.51595401763916,0.051116943359375,0.795574426651001
2024-12-07 16:29:21.238663000,2.208662841796875,-2.221336603164673,-0.4108915328979492,0.9136929512023926
2024-12-07 16:29:21.248691000,2.21869091796875,-1.91129732131958,-0.7601690292358398,1.028409719467163
2024-12-07 16:29:21.258719000,2.228718994140625,-1.3721859455108645,-1.045196533203125,0.9182693958282472
2024-12-07 16:29:21.268747000,2.2387470703125,-0.6701002717018127,-1.0905027389526367,0.5126141309738159
2024-12-07 16:29:21.278775300,2.248775390625,-0.0300625562667846,-0.7881927490234375,-0.4268708229064941
2024-12-07 16:29:21.288803300,2.25880322265625,0.3758412599563598,-0.4644403457641601,-1.2963438034057615
2024-12-07 16:29:21.298831400,2.268831298828125,0.2558988332748413,-0.0906543731689453,-2.000701665878296
2024-12-07 16:29:21.308859400,2.278859375,-0.3120955228805542,0.3527336120605469,-2.190825939178467
2024-12-07 16:29:21.318887400,2.288887451171875,-0.9806548953056335,0.646946907043457,-1.762293577194214
2024-12-07 16:29:21.328915500,2.29891552734375,-1.1737114191055298,0.6212339401245117,-1.1321629285812378
2024-12-07 16:29:21.338943500,2.308943603515625,-1.1231082677841189,0.4291954040527344,-0.3242355287075043
2024-12-07 16:29:21.348971800,2.3189716796875,-1.041121006011963,0.2523164749145508,0.5026772022247314
2024-12-07 16:29:21.358999800,2.328999755859375,-1.1281871795654297,0.0951662063598632,1.057656168937683
2024-12-07 16:29:21.369027800,2.33902783203125,-0.9779725670814514,0.0482435226440429,1.2111879587173462
2024-12-07 16:29:21.379055900,2.349055908203125,-0.77972412109375,-0.151376724243164,1.332902193069458
2024-12-07 16:29:21.389084000,2.359083984375,-0.6824078559875488,-0.5031261444091797,1.4849880933761597
2024-12-07 16:29:21.399112000,2.36911181640625,-0.5755172967910767,-0.6773176193237305,1.3920996189117432
2024-12-07 16:29:21.409140200,2.37914013671875,-0.3543189167976379,-0.7319126129150391,1.243446946144104
2024-12-07 16:29:21.419168300,2.389168212890625,-0.1161465644836425,-0.6484346389770508,1.0843298435211182
2024-12-07 16:29:21.429196300,2.3991962890625,0.1419365406036377,-0.4322938919067383,0.7215975522994995
2024-12-07 16:29:21.439224300,2.409224365234375,0.2986339926719665,-0.2032508850097656,0.3698060512542724
2024-12-07 16:29:21.449252400,2.41925244140625,0.2631278038024902,-0.0327930450439453,0.1790202558040619
2024-12-07 16:29:21.459280400,2.4292802734375,0.1372622847557068,0.0794486999511718,0.1490093320608139
2024-12-07 16:29:21.469308700,2.43930859375,0.0464060306549072,0.109929084777832,0.2061143070459365
2024-12-07 16:29:21.479336700,2.449336669921875,-0.0528717041015625,0.0875511169433593,0.272223025560379
2024-12-07 16:29:21.489364700,2.45936474609375,-0.2983310222625732,0.0888261795043945,0.3595069646835327
2024-12-07 16:29:21.499392800,2.469392822265625,-0.5978547930717468,0.0183115005493164,0.2509922087192535
2024-12-07 16:29:21.509420800,2.4794208984375,-0.9730269908905028,0.048079490661621,0.3848370313644409
2024-12-07 16:29:21.519448800,2.48944873046875,-1.2105084657669067,0.1444883346557617,0.5949986577033997
2024-12-07 16:29:21.529477000,2.49947705078125,-1.072020411491394,0.1356096267700195,0.4796920120716095
2024-12-07 16:29:21.539505200,2.509505126953125,-0.7751778364181519,0.0456447601318359,0.6545853018760681
2024-12-07 16:29:21.549533200,2.519533203125,-0.5747904777526855,-0.1585206985473632,0.6454921364784241
2024-12-07 16:29:21.559561200,2.529561279296875,-0.5285984873771667,-0.2475414276123047,0.2775792479515075
2024-12-07 16:29:21.569589200,2.53958935546875,-0.5975476503372192,-0.2361564636230468,-0.2103595286607742
2024-12-07 16:29:21.579617300,2.5496171875,-0.6133450269699097,-0.0627202987670898,-0.657817006111145
2024-12-07 16:29:21.589645300,2.559645263671875,-0.6246615052223206,0.2196674346923828,-1.0375031232833862
2024-12-07 16:29:21.599673600,2.569673583984375,-0.6791038513183594,0.4675092697143554,-1.1242674589157104
2024-12-07 16:29:21.609701600,2.57970166015625,-0.7812536358833313,0.6046333312988281,-1.0095099210739136
2024-12-07 16:29:21.619729700,2.589729736328125,-0.8918022513389587,0.5694646835327148,-0.5013386011123657
2024-12-07 16:29:21.629757700,2.5997578125,-0.7907747030258179,0.4532928466796875,-0.1764521896839141
2024-12-07 16:29:21.639785700,2.60978564453125,-0.6180455088615417,0.2373323440551757,0.0717977359890937
2024-12-07 16:29:21.649813800,2.619813720703125,-0.4598527550697326,0.0507440567016601,0.5852310061454773
2024-12-07 16:29:21.659841800,2.629841796875,-0.37412229180336,0.0269641876220703,0.9321972727775574
2024-12-07 16:29:21.669869800,2.639869873046875,-0.4363778531551361,0.1272211074829101,1.1081825494766235
2024-12-07 16:29:21.679897900,2.64989794921875,-0.3452352285385132,0.2079439163208007,1.2281365394592283
2024-12-07 16:29:21.689926000,2.65992578125,-0.1931779682636261,0.2215108871459961,1.305755376815796
2024-12-07 16:29:21.699954000,2.669953857421875,-0.033857986330986,0.2874374389648437,1.1929185390472412
2024-12-07 16:29:21.709982000,2.67998193359375,0.01800187677145,0.3149023056030273,0.9341285824775696
2024-12-07 16:29:21.720010000,2.690010009765625,0.0012859404087066,0.2706632614135742,0.6260738968849182
2024-12-07 16:29:21.730038000,2.7000380859375,-0.0964859724044799,0.2026824951171875,0.2887546122074127
2024-12-07 16:29:21.740066000,2.710066162109375,-0.0971432477235794,0.1778173446655273,-0.0336459018290042
2024-12-07 16:29:21.750094000,2.720093994140625,-0.0150415748357772,0.1243352890014648,-0.2407928109169006
2024-12-07 16:29:21.760122000,2.7301220703125,0.2013708055019378,0.0041751861572265,-0.5139540433883667
2024-12-07 16:29:21.770150100,2.740150146484375,0.3677920699119568,-0.2443866729736328,-0.5798568725585938
2024-12-07 16:29:21.780178200,2.75017822265625,0.3652371168136596,-0.3727970123291015,-0.6020462512969971
2024-12-07 16:29:21.790206200,2.760206298828125,0.2714901566505432,-0.2908592224121094,-0.5752135515213013
2024-12-07 16:29:21.800234200,2.770234130859375,0.1210255771875381,-0.1711072921752929,-0.4848800897598266
2024-12-07 16:29:21.810262300,2.78026220703125,-0.0415260195732116,-0.0661916732788086,-0.3118211030960083
2024-12-07 16:29:21.820290300,2.790290283203125,-0.0142656564712524,-0.0667600631713867,-0.0612816885113716
2024-12-07 16:29:21.830318300,2.800318359375,0.2353978157043457,-0.0770349502563476,0.2896459102630615
2024-12-07 16:29:21.840346400,2.810346435546875,0.5663776397705078,-0.015838623046875,0.6536383628845215
2024-12-07 16:29:21.850374400,2.82037451171875,0.8572871685028076,0.0689115524291992,1.0100643634796145
2024-12-07 16:29:21.860402400,2.83040234375,0.9983240365982056,0.1675891876220703,1.2620917558670044
2024-12-07 16:29:21.870430200,2.84043017578125,1.0279637575149536,0.2133464813232422,1.394523859024048
2024-12-07 16:29:21.880458200,2.850458251953125,1.0266340970993042,0.130044937133789,1.3963639736175537
2024-12-07 16:29:21.890486300,2.860486328125,0.9567132592201232,0.075540542602539,0.9524191617965698
2024-12-07 16:29:21.900514300,2.870514404296875,0.8695938587188721,-0.0360593795776367,0.5255341529846191
2024-12-07 16:29:21.910542300,2.880542236328125,0.6915745139122009,-0.2142524719238281,0.1343961805105209
2024-12-07 16:29:21.920570400,2.8905703125,0.4270792603492737,-0.2156934738159179,-0.1867932975292205
2024-12-07 16:29:21.930598400,2.900598388671875,0.2891957461833954,-0.1843547821044922,-0.5190495252609253
2024-12-07 16:29:21.940626400,2.91062646484375,0.4460960924625397,-0.0962352752685546,-0.9344154596328736
2024-12-07 16:29:21.950654500,2.920654541015625,0.4187569320201874,-0.0183448791503906,-0.9139487743377686
2024-12-07 16:29:21.960682500,2.9306826171875,0.5552135109901428,0.0302715301513671,-1.180519938468933
2024-12-07 16:29:21.970710500,2.94071044921875,0.7018046379089355,0.1213245391845703,-1.436866044998169
2024-12-07 16:29:21.980738600,2.950738525390625,0.7784146666526794,0.0493745803833007,-1.2920392751693726
2024-12-07 16:29:21.990766800,2.960766845703125,0.965476393699646,0.1154060363769531,-1.191577434539795
2024-12-07 16:29:22.000795000,2.970794921875,1.066423416137695,0.2758455276489258,-1.2757887840270996
2024-12-07 16:29:22.010823000,2.980822998046875,1.2146631479263306,0.253631591796875,-1.5280203819274902
2024-12-07 16:29:22.020851000,2.990850830078125,1.2958011627197266,-0.0699968338012695,-1.732365965843201
2024-12-07 16:29:22.030879000,3.00087890625,1.4361910820007324,-0.674652099609375,-2.192788362503052
2024-12-07 16:29:22.040907000,3.010906982421875,1.5751385688781738,-1.4538507461547852,-2.5901641845703125
2024-12-07 16:29:22.050935300,3.020935302734375,1.5919806957244873,-1.8433942794799805,-2.878191471099853
2024-12-07 16:29:22.060963300,3.03096337890625,1.3912134170532229,-2.0062952041625977,-3.0432934761047363
2024-12-07 16:29:22.070991400,3.040991455078125,1.005956530570984,-2.105223655700684,-3.1850805282592773
2024-12-07 16:29:22.081019400,3.051019287109375,0.3095982670783996,-1.911118507385254,-3.344095468521118
2024-12-07 16:29:22.091047400,3.06104736328125,-0.3653820753097534,-1.5686044692993164,-3.242131233215332
2024-12-07 16:29:22.101075500,3.071075439453125,-0.4959940910339355,-1.1553964614868164,-2.638004302978516
2024-12-07 16:29:22.111103500,3.081103515625,0.1350345015525818,-0.8774271011352539,-1.7343833446502686
2024-12-07 16:29:22.121131800,3.0911318359375,0.8936993479728699,-0.8058547973632812,-0.849318265914917
2024-12-07 16:29:22.131159800,3.101159912109375,1.1952563524246216,-0.6674394607543945,-0.2189136743545532
2024-12-07 16:29:22.141187800,3.111187744140625,1.0051864385604858,-0.6675891876220703,0.2076073884963989
2024-12-07 16:29:22.151215900,3.1212158203125,0.5973842144012451,-0.467010498046875,0.3548223972320556
2024-12-07 16:29:22.161244000,3.131243896484375,0.0846631526947021,-0.4723072052001953,0.343453049659729
2024-12-07 16:29:22.171272000,3.14127197265625,-0.3396214246749878,-0.1622247695922851,0.0174691677093505
2024-12-07 16:29:22.181300200,3.15130029296875,-0.5731866359710693,0.1234903335571289,0.0305285453796386
2024-12-07 16:29:22.191328300,3.161328369140625,-0.6723239421844482,0.3705615997314453,0.3919668197631836
2024-12-07 16:29:22.201356300,3.171356201171875,-0.2930827140808105,0.4692821502685547,0.7091820240020752
2024-12-07 16:29:22.211384300,3.18138427734375,0.3797702193260193,0.4775466918945312,0.8719590902328491
2024-12-07 16:29:22.221412400,3.191412353515625,1.0790787935256958,0.5390863418579102,0.7269740104675293
2024-12-07 16:29:22.231440400,3.2014404296875,1.4578964710235596,0.6395540237426758,0.3313033580780029
2024-12-07 16:29:22.241468700,3.21146875,1.6305394172668457,0.9269418716430664,-0.2370545268058776
2024-12-07 16:29:22.251496700,3.22149658203125,1.6306328773498535,1.1811847686767578,-0.6086183190345764
2024-12-07 16:29:22.261524700,3.231524658203125,1.620372295379639,1.3259601593017578,-0.8027470111846924
2024-12-07 16:29:22.271552800,3.241552734375,1.5802189111709597,1.2660255432128906,-0.8721053600311279
2024-12-07 16:29:22.281580800,3.251580810546875,1.5388975143432615,0.9254388809204102,-0.8452858328819275
2024-12-07 16:29:22.291608800,3.26160888671875,1.4487457275390625,0.4529075622558594,-0.7306528091430664
2024-12-07 16:29:22.301637000,3.27163720703125,1.3247824907302856,-0.1514482498168945,-0.4178102612495422
2024-12-07 16:29:22.311665200,3.2816650390625,1.3867744207382202,-0.672917366027832,-0.0562896728515625
2024-12-07 16:29:22.321693200,3.291693115234375,1.4943273067474363,-1.0406217575073242,0.3388468027114868
2024-12-07 16:29:22.331721200,3.30172119140625,1.583118557929993,-1.2364988327026367,0.6477190852165222
2024-12-07 16:29:22.341749200,3.311749267578125,1.52741801738739,-1.2187995910644531,0.9373706579208374
2024-12-07 16:29:22.351777300,3.32177734375,1.3600181341171265,-1.0941133499145508,1.292860746383667
2024-12-07 16:29:22.361805300,3.331805419921875,1.3189969062805176,-0.9259977340698242,1.4631564617156982
2024-12-07 16:29:22.371833600,3.34183349609375,0.9220886826515198,-0.8780145645141602,1.4950082302093506
2024-12-07 16:29:22.381861600,3.351861572265625,0.1966758966445922,-1.002659797668457,1.3608547449111938
2024-12-07 16:29:22.391889700,3.3618896484375,-0.608513355255127,-1.2553796768188477,1.0775156021118164
2024-12-07 16:29:22.401917700,3.371917724609375,-0.9750469923019408,-1.4667224884033203,0.6000569462776184
2024-12-07 16:29:22.411945700,3.38194580078125,-1.3509658575057983,-1.6493101119995115,0.3820700645446777
2024-12-07 16:29:22.421973800,3.391973876953125,-2.0272936820983887,-1.9590158462524416,0.2237637937068939
2024-12-07 16:29:22.432002000,3.402001953125,-2.4755539894104004,-2.169644355773926,-0.2330794930458068
2024-12-07 16:29:22.442030000,3.412030029296875,-1.5387983322143557,-2.218801498413086,-1.5889952182769775
2024-12-07 16:29:22.452058000,3.42205810546875,-0.6192114353179932,-2.15169620513916,-2.3172719478607178
2024-12-07 16:29:22.462086100,3.432086181640625,-0.8901432752609253,-1.9024038314819336,-2.1264121532440186
2024-12-07 16:29:22.472114200,3.4421142578125,-1.649868726730347,-1.5522089004516602,-1.4013402462005615
2024-12-07 16:29:22.482142200,3.45214208984375,-2.0764143466949463,-1.2587852478027344,-0.961165189743042
2024-12-07 16:29:22.492170500,3.46217041015625,-1.4899733066558838,-0.8512439727783203,0.0841483920812606
2024-12-07 16:29:22.502198500,3.472198486328125,-0.9005099534988403,-0.6275720596313477,1.767794132232666
2024-12-07 16:29:22.512226600,3.4822265625,-0.313288927078247,-0.120218276977539,2.5687601566314697
2024-12-07 16:29:22.522254600,3.492254638671875,-0.1182210445404052,0.4161901473999023,2.74992036819458
2024-12-07 16:29:22.532282600,3.50228271484375,-0.2987213134765625,0.8335161209106445,2.623387575149536
2024-12-07 16:29:22.542310700,3.512310546875,-1.3776941299438477,0.946974754333496,2.957315921783448
2024-12-07 16:29:22.552339000,3.5223388671875,-2.2423129081726074,0.9977684020996094,3.165766477584839
2024-12-07 16:29:22.562367000,3.532366943359375,-2.828387975692749,1.1156187057495115,2.8502957820892334
2024-12-07 16:29:22.572395000,3.54239501953125,-3.0872278213500977,1.3055877685546875,2.435685157775879
2024-12-07 16:29:22.582423000,3.552423095703125,-3.0185532569885254,1.3243341445922852,2.177666425704956
2024-12-07 16:29:22.592451000,3.562451171875,-2.6040799617767334,1.1771936416625977,2.492213010787964
2024-12-07 16:29:22.602479000,3.57247900390625,-1.978927731513977,0.93621826171875,3.332152843475342
2024-12-07 16:29:22.612507100,3.582507080078125,-1.30587637424469,0.6865911483764648,4.005092144012451
2024-12-07 16:29:22.622535400,3.592535400390625,-1.543601632118225,0.5708227157592773,4.078444957733154
2024-12-07 16:29:22.632563500,3.6025634765625,-2.026984930038452,0.5609273910522461,3.670820474624634
2024-12-07 16:29:22.642591500,3.612591552734375,-2.056202888488769,0.6476535797119141,3.2299108505249023
2024-12-07 16:29:22.652619500,3.62261962890625,-2.023508071899414,0.5730409622192383,2.768263578414917
2024-12-07 16:29:22.662647600,3.6326474609375,-1.722760796546936,0.4715213775634765,2.646467924118042
2024-12-07 16:29:22.672675600,3.642675537109375,-1.0185197591781616,0.4810619354248047,2.60373854637146
2024-12-07 16:29:22.682704000,3.652703857421875,-0.3353674411773681,0.5623397827148438,2.610887050628662
2024-12-07 16:29:22.692732000,3.66273193359375,-0.2131545543670654,0.7580680847167969,2.293734550476074
2024-12-07 16:29:22.702760000,3.672760009765625,-0.3131494522094726,0.9255313873291016,1.9310377836227417
2024-12-07 16:29:22.712788000,3.6827880859375,-0.3746623992919922,0.8840141296386719,1.6427770853042605
2024-12-07 16:29:22.722816000,3.69281591796875,-0.2450599670410156,0.9635019302368164,0.9768160581588744
2024-12-07 16:29:22.732844000,3.702843994140625,-0.1130080223083496,1.1629619598388672,-0.0658669918775558
2024-12-07 16:29:22.742872000,3.7128720703125,-0.2541007995605469,1.1768665313720703,-0.5275111198425293
2024-12-07 16:29:22.752900000,3.722900146484375,-0.3880066871643066,1.2023639678955078,-0.9449355602264404
2024-12-07 16:29:22.762928000,3.73292822265625,-0.3891022205352783,1.1730432510375977,-1.2182915210723877
2024-12-07 16:29:22.772956200,3.7429560546875,-0.3066222667694092,1.0600223541259766,-1.476157307624817
2024-12-07 16:29:22.782984200,3.752984130859375,-0.1519756317138672,0.8534383773803711,-1.490235686302185
2024-12-07 16:29:22.793012200,3.76301220703125,0.0012955665588378,0.6055002212524414,-1.5787898302078247
2024-12-07 16:29:22.803040000,3.7730400390625,0.1045632362365722,0.4592599868774414,-1.865449070930481
2024-12-07 16:29:22.813068000,3.783068115234375,0.4047660827636719,0.3232021331787109,-1.885775804519653
2024-12-07 16:29:22.823096000,3.793095947265625,0.855886697769165,0.2012882232666015,-1.822113275527954
2024-12-07 16:29:22.833124000,3.8031240234375,1.150162696838379,0.1932840347290039,-1.9060677289962769
2024-12-07 16:29:22.843152100,3.813152099609375,1.393446683883667,0.1128110885620117,-1.8626303672790527
2024-12-07 16:29:22.853180200,3.82318017578125,1.7634496688842771,0.0033369064331054,-1.917036890983581
2024-12-07 16:29:22.863208200,3.833208251953125,1.8654780387878416,-0.1726598739624023,-2.1316304206848145
2024-12-07 16:29:22.873236200,3.843236328125,1.7025961875915527,-0.3521394729614258,-2.3208367824554443
2024-12-07 16:29:22.883264300,3.85326416015625,1.3977057933807373,-0.4625864028930664,-2.214940071105957
2024-12-07 16:29:22.893292300,3.863292236328125,1.3565936088562012,-0.4040260314941406,-2.0899930000305176
2024-12-07 16:29:22.903320300,3.8733203125,1.539804458618164,-0.2595548629760742,-2.076610565185547
2024-12-07 16:29:22.913348400,3.883348388671875,1.8215818405151367,-0.0787715911865234,-2.0447919368743896
2024-12-07 16:29:22.923376400,3.89337646484375,2.0408856868743896,0.1563367843627929,-1.6650103330612185
2024-12-07 16:29:22.933404400,3.903404296875,2.2548272609710693,0.2878341674804687,-1.2151076793670654
2024-12-07 16:29:22.943432400,3.913432373046875,2.752415657043457,0.2401599884033203,-0.6928622722625732
2024-12-07 16:29:22.953460500,3.92346044921875,3.485474109649658,0.190582275390625,-0.5858277678489685
2024-12-07 16:29:22.963488500,3.933488525390625,3.942618370056152,0.3875598907470703,-0.3279885053634643
2024-12-07 16:29:22.973516500,3.9435166015625,3.8063852787017822,0.9169416427612304,0.1973018199205398
2024-12-07 16:29:22.983544600,3.953544677734375,2.750099897384644,1.7986860275268557,0.7409290075302124
2024-12-07 16:29:22.993572600,3.963572509765625,1.4427123069763184,2.4560842514038086,1.1659809350967407
2024-12-07 16:29:23.003600600,3.9736005859375,0.2758116722106933,2.704557418823242,1.5894891023635864
2024-12-07 16:29:23.013628700,3.983628662109375,-0.6927378177642822,2.5834760665893555,2.1169140338897705
2024-12-07 16:29:23.023656700,3.99365673828125,-1.6204309463500977,1.7449989318847656,2.8326635360717773
2024-12-07 16:29:23.033684500,4.0036845703125,-2.4536232948303223,0.1144056320190429,3.816719532012939
2024-12-07 16:29:23.043712500,4.01371240234375,-2.6844820976257324,-2.110793113708496,4.495792865753174
2024-12-07 16:29:23.053740500,4.023740478515625,-2.2419538497924805,-4.572752952575684,4.250480651855469
2024-12-07 16:29:23.063768600,4.0337685546875,-1.6572771072387695,-5.797370910644531,2.87875771522522
2024-12-07 16:29:23.073796600,4.043796630859375,0.2242970466613769,-6.463409423828125,1.703107833862305
2024-12-07 16:29:23.083824600,4.05382470703125,3.59366512298584,-6.240344047546387,-0.3726013004779815
2024-12-07 16:29:23.093852700,4.063852783203125,5.3896331787109375,-4.896117210388184,-4.190307140350342
2024-12-07 16:29:23.103880700,4.073880615234375,4.15083646774292,-3.141714096069336,-5.96289587020874
2024-12-07 16:29:23.113908700,4.08390869140625,2.321141004562378,-1.662205696105957,-5.681181907653809
2024-12-07 16:29:23.123936800,4.093936767578125,1.0044329166412354,0.3514852523803711,-4.6099348068237305
2024-12-07 16:29:23.133964800,4.10396484375,0.0237252712249755,2.409369945526123,-3.278057098388672
2024-12-07 16:29:23.143992800,4.113992919921875,-0.96411395072937,3.721712112426758,-2.0813004970550537
2024-12-07 16:29:23.154020900,4.124020751953125,-2.265681743621826,4.162038326263428,-0.993448793888092
2024-12-07 16:29:23.164049000,4.134048828125,-3.6809849739074703,4.197255611419678,0.4963792562484741
2024-12-07 16:29:23.174077000,4.144076904296875,-4.324019432067871,3.770946502685547,2.05964469909668
2024-12-07 16:29:23.184105200,4.154105224609375,-4.310225963592529,2.8497753143310547,3.1585190296173096
2024-12-07 16:29:23.194133200,4.16413330078125,-3.684578657150269,1.91170597076416,3.1341745853424072
2024-12-07 16:29:23.204161300,4.174161376953125,-3.0214200019836426,0.9943580627441406,3.083271026611328
2024-12-07 16:29:23.214189300,4.184189208984375,-2.443214654922486,-0.1929731369018554,3.501262903213501
2024-12-07 16:29:23.224217300,4.19421728515625,-1.6137447357177734,-0.6649723052978516,3.477324724197388
2024-12-07 16:29:23.234245400,4.204245361328125,-0.3781839609146118,-0.8874893188476562,2.899964094161988
2024-12-07 16:29:23.244273700,4.214273681640625,0.7855017185211182,-0.8909072875976562,1.7316675186157229
2024-12-07 16:29:23.254301700,4.2243017578125,1.571241855621338,-0.7429990768432617,0.5166565179824829
2024-12-07 16:29:23.264329700,4.234329833984375,1.934953689575195,-0.5632896423339844,-0.1968110799789428
2024-12-07 16:29:23.274357800,4.244357666015625,2.1074538230896,-0.4428033828735351,-0.4870955944061279
2024-12-07 16:29:23.284385800,4.2543857421875,1.835532307624817,-0.4199914932250976,-0.729167103767395
2024-12-07 16:29:23.294413800,4.264413818359375,0.7754755020141602,-0.365152359008789,-1.245238184928894
2024-12-07 16:29:23.304442000,4.274442138671875,-0.5289683938026428,-0.3346147537231445,-1.317613124847412
2024-12-07 16:29:23.314470100,4.28447021484375,-1.503464698791504,-0.3372697830200195,-1.1588261127471924
2024-12-07 16:29:23.324498200,4.294498291015625,-2.150017261505127,-0.3012228012084961,-0.6290193200111389
2024-12-07 16:29:23.334526200,4.304526123046875,-2.5189075469970703,-0.245676040649414,-0.2630261778831482
2024-12-07 16:29:23.344554200,4.31455419921875,-2.555521011352539,-0.3425483703613281,0.1089528799057006
2024-12-07 16:29:23.354582300,4.324582275390625,-2.2125253677368164,-0.376800537109375,0.5079472064971924
2024-12-07 16:29:23.364610600,4.334610595703125,-1.7276785373687744,-0.2584333419799804,0.4257506132125854
2024-12-07 16:29:23.374638600,4.344638671875,-1.509180784225464,-0.0162534713745117,-0.2416260838508606
2024-12-07 16:29:23.384666600,4.35466650390625,-1.434473991394043,0.2260732650756836,-0.9812667965888976
2024-12-07 16:29:23.394694700,4.364694580078125,-1.3288953304290771,0.3784618377685547,-1.4019736051559448
2024-12-07 16:29:23.404722700,4.37472265625,-0.9729467630386353,0.4602632522583008,-1.431607007980347
2024-12-07 16:29:23.414750700,4.384750732421875,-0.5319445133209229,0.4664278030395508,-1.3489141464233398
2024-12-07 16:29:23.424778800,4.39477880859375,-0.1676706671714782,0.3152580261230469,-1.261063575744629
2024-12-07 16:29:23.434807000,4.40480712890625,-0.2042895555496215,0.1497430801391601,-1.1562104225158691
2024-12-07 16:29:23.444835000,4.4148349609375,-0.466282457113266,0.0174245834350585,-1.0544686317443848
2024-12-07 16:29:23.454863000,4.424863037109375,-0.8508898019790649,-0.1102657318115234,-0.8417172431945801
2024-12-07 16:29:23.464891100,4.43489111328125,-1.1861505508422852,-0.2236270904541015,-0.4253174960613251
2024-12-07 16:29:23.474919200,4.444919189453125,-1.2296947240829468,-0.23663330078125,-0.1949394345283508
2024-12-07 16:29:23.484947200,4.454947265625,-1.0154114961624146,-0.1448431015014648,-0.0840770006179809
2024-12-07 16:29:23.494975500,4.4649755859375,-0.5511501431465149,-0.0347232818603515,0.0027322769165039
2024-12-07 16:29:23.505003500,4.47500341796875,-0.0028700828552246,-0.0307836532592773,-0.0693985819816589
2024-12-07 16:29:23.515031600,4.485031494140625,0.4161003232002258,-0.032388687133789,-0.4266979098320007
2024-12-07 16:29:23.525059600,4.4950595703125,0.5416052341461182,-0.0201520919799804,-0.7589688897132874
2024-12-07 16:29:23.535087600,4.505087646484375,0.5020481944084167,0.0491294860839843,-0.8817360997200012
2024-12-07 16:29:23.545115600,4.51511572265625,0.3398037850856781,0.0943355560302734,-1.0125985145568848
2024-12-07 16:29:23.555144000,4.52514404296875,-0.1976538151502609,0.1873788833618164,-0.7290307283401489
2024-12-07 16:29:23.565172000,4.535171875,-0.8316696882247925,0.2849054336547851,0.0332645177841186
2024-12-07 16:29:23.575200000,4.545199951171875,-1.0996222496032717,0.3247022628784179,0.4477712512016296
2024-12-07 16:29:23.585228000,4.55522802734375,-1.2112610340118408,0.1922254562377929,0.9913932085037231
2024-12-07 16:29:23.595256000,4.565256103515625,-1.2522380352020264,0.0931987762451171,1.3515102863311768
2024-12-07 16:29:23.605284000,4.5752841796875,-1.1790492534637451,0.1230678558349609,1.5569968223571775
2024-12-07 16:29:23.615312100,4.58531201171875,-0.8970425724983215,0.2288942337036132,1.5647823810577393
2024-12-07 16:29:23.625340200,4.595340087890625,-0.5762591361999512,0.4008626937866211,1.3135212659835815
2024-12-07 16:29:23.635368200,4.6053681640625,-0.5529468059539795,0.3808841705322265,0.8382269144058228
2024-12-07 16:29:23.645396200,4.615396240234375,-0.7835023403167725,0.1840486526489257,0.4445816874504089
2024-12-07 16:29:23.655424300,4.62542431640625,-1.131218671798706,-0.0506296157836914,0.5099571347236633
2024-12-07 16:29:23.665452300,4.635452392578125,-1.1924619674682615,-0.2753524780273437,0.626370370388031
2024-12-07 16:29:23.675480300,4.645480224609375,-0.9767868518829346,-0.3850841522216797,0.808353841304779
2024-12-07 16:29:23.685508400,4.65550830078125,-0.5816423892974854,-0.3897438049316406,0.9408945441246032
2024-12-07 16:29:23.695536400,4.665536376953125,-0.1250930875539779,-0.3039999008178711,0.8946417570114136
2024-12-07 16:29:23.705564400,4.675564453125,0.2087664455175399,-0.1137475967407226,0.6269360184669495
2024-12-07 16:29:23.715592400,4.685592529296875,0.2178341597318649,0.0996599197387695,0.2203225493431091
2024-12-07 16:29:23.725620500,4.695620361328125,0.0701200664043426,0.2742061614990234,-0.2807222604751587
2024-12-07 16:29:23.735648500,4.7056484375,-0.027037113904953,0.4149332046508789,-0.7547326683998108
2024-12-07 16:29:23.745676500,4.715676513671875,-0.03278349339962,0.364389419555664,-0.9616257548332214
2024-12-07 16:29:23.755704600,4.72570458984375,0.0497934073209762,0.2090005874633789,-0.8780641555786133
2024-12-07 16:29:23.765732600,4.735732666015625,0.2306221425533294,0.006270408630371,-0.6724381446838379
2024-12-07 16:29:23.775760600,4.7457607421875,0.6843476295471191,-0.1529874801635742,-0.5036988258361816
2024-12-07 16:29:23.785788700,4.75578857421875,1.1449661254882812,-0.1637773513793945,-0.5349258184432983
2024-12-07 16:29:23.795816700,4.765816650390625,1.21964430809021,-0.0931854248046875,-0.6022129654884338
2024-12-07 16:29:23.805844500,4.775844482421875,0.9866400957107544,-0.1135644912719726,-0.4401451349258423
2024-12-07 16:29:23.815872500,4.78587255859375,0.9106607437133788,0.0761432647705078,-0.3988159000873565
2024-12-07 16:29:23.825900500,4.795900634765625,1.0586198568344116,0.2127361297607422,-0.1908657550811767
2024-12-07 16:29:23.835928600,4.805928466796875,1.228654384613037,0.1434516906738281,0.1392344236373901
2024-12-07 16:29:23.845956600,4.81595654296875,1.462578058242798,0.1503973007202148,0.525873601436615
2024-12-07 16:29:23.855984600,4.825984619140625,1.6117594242095947,0.1901483535766601,0.8751460909843445
2024-12-07 16:29:23.866012700,4.8360126953125,1.5726784467697144,0.1762523651123047,0.7828361392021179
2024-12-07 16:29:23.876040700,4.846040771484375,1.4082756042480469,0.1187143325805664,0.2735303044319153
2024-12-07 16:29:23.886068700,4.85606884765625,1.1674909591674805,0.1418170928955078,-0.0250612497329711
2024-12-07 16:29:23.896096800,4.8660966796875,0.8865854740142822,0.1303482055664062,-0.5112535357475281
2024-12-07 16:29:23.906124800,4.876124755859375,0.7060726881027222,0.0606622695922851,-1.2050254344940186
2024-12-07 16:29:23.916152800,4.88615283203125,0.4931231737136841,-0.1098537445068359,-1.5484848022460938
2024-12-07 16:29:23.926180900,4.896180908203125,0.4346737563610077,-0.2853012084960937,-1.6888422966003418
2024-12-07 16:29:23.936209000,4.906208984375,0.5151424407958984,-0.465397834777832,-1.6819661855697632
2024-12-07 16:29:23.946237000,4.91623681640625,0.6795710921287537,-0.5542802810668945,-1.4313888549804688
2024-12-07 16:29:23.956265000,4.926264892578125,0.8869600296020508,-0.7431955337524414,-0.9057720899581908
2024-12-07 16:29:23.966293000,4.93629296875,1.099977731704712,-1.2326726913452148,-0.3581609725952148
2024-12-07 16:29:23.976321000,4.946321044921875,1.2798832654953003,-2.0120201110839844,-0.391505479812622
2024-12-07 16:29:23.986349000,4.95634912109375,0.9645201563835144,-2.6301746368408203,-1.1126251220703125
2024-12-07 16:29:23.996377000,4.966377197265625,0.0268081426620483,-2.8910865783691406,-1.8203400373458865
2024-12-07 16:29:24.006405000,4.976405029296875,-0.753081738948822,-3.1595611572265625,-2.089939832687378
2024-12-07 16:29:24.016433200,4.98643310546875,-0.8178845047950745,-3.512516975402832,-2.113197088241577
2024-12-07 16:29:24.026461200,4.996461181640625,-0.3637669086456299,-3.390665054321289,-2.1766085624694824
2024-12-07 16:29:24.036489000,5.006489013671875,0.1354007720947265,-2.7176313400268555,-2.318601131439209
2024-12-07 16:29:24.046517000,5.01651708984375,0.1594258546829223,-1.952977180480957,-1.5247684717178345
2024-12-07 16:29:24.056545000,5.026544921875,0.3894234299659729,-1.237086296081543,0.2488019466400146
2024-12-07 16:29:24.066573000,5.036572998046875,0.9794113636016846,-0.604222297668457,1.8349004983901973
2024-12-07 16:29:24.076601000,5.04660107421875,1.640142560005188,-0.0735197067260742,3.2368533611297607
2024-12-07 16:29:24.086629000,5.056629150390625,2.033884763717652,0.3308773040771484,4.196001052856445
2024-12-07 16:29:24.096657200,5.0666572265625,2.229220390319824,0.5753793716430664,4.047744274139404
2024-12-07 16:29:24.106685200,5.076685302734375,2.06042742729187,0.6938419342041016,2.9406180381774902
2024-12-07 16:29:24.116713200,5.086713134765625,1.7021284103393557,0.7391176223754883,1.5915905237197876
2024-12-07 16:29:24.126741200,5.0967412109375,1.5107243061065674,0.8740510940551758,0.254352331161499
2024-12-07 16:29:24.136769300,5.106769287109375,1.286687970161438,1.0080642700195312,-0.8375099301338196
2024-12-07 16:29:24.146797300,5.11679736328125,1.1174932718276978,1.232320785522461,-1.867223024368286
2024-12-07 16:29:24.156825300,5.126825439453125,0.8991580009460449,1.5184402465820312,-2.6976242065429688
2024-12-07 16:29:24.166853400,5.136853271484375,0.8280763626098633,1.6565485000610352,-3.235857963562012
2024-12-07 16:29:24.176881400,5.14688134765625,0.6456339359283447,1.71905517578125,-3.38507080078125
2024-12-07 16:29:24.186909400,5.156909423828125,0.6527440547943115,1.6250200271606443,-3.165027379989624
2024-12-07 16:29:24.196937500,5.1669375,0.6943133473396301,1.4464540481567385,-2.748737335205078
2024-12-07 16:29:24.206965500,5.176965576171875,0.6776596903800964,1.1453781127929688,-2.026081800460815
2024-12-07 16:29:24.216993500,5.18699365234375,0.7152081727981567,0.7359676361083984,-1.133101463317871
2024-12-07 16:29:24.227021600,5.197021484375,0.712824821472168,0.3562889099121094,-0.4308005571365356
2024-12-07 16:29:24.237049600,5.207049560546875,0.5873165726661682,0.0629596710205078,0.0899223089218139
2024-12-07 16:29:24.247077600,5.21707763671875,0.4335651099681854,-0.1783027648925781,0.4961682558059692
2024-12-07 16:29:24.257105700,5.227105712890625,0.1806893348693847,-0.4445838928222656,0.8604828119277954
2024-12-07 16:29:24.267133700,5.2371337890625,-0.017237365245819,-0.7460184097290039,1.1160438060760498
2024-12-07 16:29:24.277162000,5.247161865234375,-0.0545352101325988,-0.9971199035644532,1.1729766130447388
2024-12-07 16:29:24.287190000,5.25718994140625,-0.1842284202575683,-1.2750158309936523,1.3862682580947876
2024-12-07 16:29:24.297218000,5.267218017578125,-0.3750128746032715,-1.4799880981445312,1.6827013492584229
2024-12-07 16:29:24.307246000,5.27724609375,-0.5914782881736755,-1.5645408630371094,1.9012107849121096
2024-12-07 16:29:24.317274000,5.287274169921875,-0.9528586268424988,-1.527918815612793,1.9864693880081177
2024-12-07 16:29:24.327302100,5.29730224609375,-1.3842556476593018,-1.3497543334960938,2.112998008728028
2024-12-07 16:29:24.337330400,5.307330322265625,-2.033535957336426,-1.152857780456543,2.084103584289551
2024-12-07 16:29:24.347358500,5.3173583984375,-2.6891324520111084,-1.064067840576172,1.7470834255218506
2024-12-07 16:29:24.357386500,5.327386474609375,-1.6930439472198486,-0.9203615188598632,1.211031794548035
2024-12-07 16:29:24.367414500,5.33741455078125,-1.443333625793457,-0.9193458557128906,1.2337241172790527
2024-12-07 16:29:24.377442600,5.347442626953125,-1.4746161699295044,-1.1129655838012695,0.9390527606010436
2024-12-07 16:29:24.387470600,5.357470703125,-0.9302411079406738,-1.4955768585205078,0.8232436180114746
2024-12-07 16:29:24.397499000,5.367498779296875,-0.3065180778503418,-1.885793685913086,0.5256949663162231
2024-12-07 16:29:24.407527000,5.37752685546875,0.0542435646057128,-2.121721267700196,0.211971253156662
2024-12-07 16:29:24.417555000,5.387554931640625,0.4925787448883056,-2.094882011413574,-0.0392287224531173
2024-12-07 16:29:24.427583000,5.3975830078125,0.5023453235626221,-1.921870231628418,-0.0462565571069717
2024-12-07 16:29:24.437611000,5.407611083984375,0.1932260990142822,-1.6179113388061523,0.1235886588692665
2024-12-07 16:29:24.447639000,5.41763916015625,0.0512225627899169,-0.9594640731811525,0.0765421092510223
2024-12-07 16:29:24.457667300,5.427667236328125,-0.4217231273651123,-0.363260269165039,0.6611216068267822
2024-12-07 16:29:24.467695400,5.4376953125,-0.8691070079803467,0.2289972305297851,1.148305058479309
2024-12-07 16:29:24.477723400,5.447723388671875,-1.0728570222854614,0.9237422943115234,1.4376500844955444
2024-12-07 16:29:24.487751400,5.45775146484375,-1.2828936576843262,1.4533205032348633,1.398506999015808
2024-12-07 16:29:24.497779500,5.467779541015625,-2.007126808166504,1.7141218185424805,1.5515201091766355
2024-12-07 16:29:24.507807500,5.477807373046875,-1.8566175699234009,1.9559597969055176,1.2233312129974363
2024-12-07 16:29:24.517835500,5.48783544921875,-1.95082426071167,1.7014503479003906,1.754135251045227
2024-12-07 16:29:24.527863800,5.49786376953125,-1.6665760278701782,1.7311043739318848,1.637348771095276
2024-12-07 16:29:24.537891800,5.507891845703125,-1.7528728246688845,1.543442726135254,2.1604816913604736
2024-12-07 16:29:24.547920000,5.517919921875,-1.775141358375549,1.5751800537109375,2.262099504470825
2024-12-07 16:29:24.557948000,5.527947998046875,-1.773831486701965,1.712216854095459,2.384528398513794
2024-12-07 16:29:24.567976000,5.537975830078125,-1.8336848020553589,1.801964282989502,2.9119253158569336
2024-12-07 16:29:24.578004000,5.54800390625,-1.9765241146087649,1.721224308013916,3.593416452407837
2024-12-07 16:29:24.588032000,5.558031982421875,-1.4676897525787354,1.7950167655944824,3.559730291366577
2024-12-07 16:29:24.598060000,5.56806005859375,-1.2248787879943848,1.811527729034424,3.3523457050323486
2024-12-07 16:29:24.608088000,5.578088134765625,-1.3072857856750488,1.831881046295166,2.785019874572754
2024-12-07 16:29:24.618116000,5.5881162109375,-1.3715922832489014,1.8026185035705569,2.0437569618225098
2024-12-07 16:29:24.628144000,5.59814404296875,-1.484382152557373,1.771420955657959,1.5180368423461914
2024-12-07 16:29:24.638172200,5.608172119140625,-1.4100496768951416,1.724171161651611,1.0835201740264893
2024-12-07 16:29:24.648200200,5.6182001953125,-1.2197858095169067,1.531900405883789,0.7217903733253479
2024-12-07 16:29:24.658228200,5.628228271484375,-0.7298884391784668,1.189061164855957,0.2911171913146972
2024-12-07 16:29:24.668256300,5.63825634765625,-0.2233545780181884,0.7466535568237305,-0.1398898959159851
2024-12-07 16:29:24.678284300,5.6482841796875,0.4508864879608154,0.4082603454589844,-0.5164325833320618
2024-12-07 16:29:24.688312300,5.658312255859375,1.4381449222564695,0.1334924697875976,-0.75674968957901
2024-12-07 16:29:24.698340400,5.66834033203125,2.431469202041626,-0.0073480606079101,-0.9355498552322388
2024-12-07 16:29:24.708368400,5.678368408203125,3.157307386398315,0.0139884948730468,-1.1745047569274902
2024-12-07 16:29:24.718396400,5.688396484375,3.574928522109986,-0.0601863861083984,-1.4864288568496704
2024-12-07 16:29:24.728424400,5.698424560546875,4.0599517822265625,-0.4533252716064453,-2.001726150512696
2024-12-07 16:29:24.738452500,5.708452392578125,4.493767738342285,-0.9826631546020508,-2.496301651000977
2024-12-07 16:29:24.748480500,5.71848046875,4.730105400085449,-1.2746686935424805,-3.3070268630981445
2024-12-07 16:29:24.758508500,5.728508544921875,4.593757152557373,-1.377274513244629,-3.9201273918151855
2024-12-07 16:29:24.768536600,5.73853662109375,3.9198286533355713,-1.4050312042236328,-4.772098064422607
2024-12-07 16:29:24.778564600,5.748564697265625,2.9392459392547607,-1.5058526992797852,-5.283100128173828
2024-12-07 16:29:24.788592600,5.758592529296875,1.63962721824646,-1.4021644592285156,-4.949735641479492
2024-12-07 16:29:24.798620400,5.768620361328125,0.3905208110809326,-0.9878578186035156,-4.856550693511963
2024-12-07 16:29:24.808648400,5.7786484375,0.0840752124786377,-0.8013849258422852,-3.3347935676574707
2024-12-07 16:29:24.818676500,5.788676513671875,1.324479341506958,-0.6133842468261719,-2.214316129684448
2024-12-07 16:29:24.828704500,5.79870458984375,2.6407032012939453,-0.3204984664916992,-1.837063193321228
2024-12-07 16:29:24.838732500,5.808732666015625,3.1700146198272705,0.4201698303222656,-1.8283157348632808
2024-12-07 16:29:24.848760600,5.818760498046875,2.857861995697021,1.7225494384765625,-2.087132692337036
2024-12-07 16:29:24.858788600,5.82878857421875,2.401421308517456,3.3090944290161133,-2.2227463722229004
2024-12-07 16:29:24.868816600,5.838816650390625,2.38057017326355,4.768824100494385,-1.291953444480896
2024-12-07 16:29:24.878844700,5.8488447265625,1.97260856628418,5.5957746505737305,-0.6204636693000793
2024-12-07 16:29:24.888872700,5.858872802734375,0.905771017074585,5.692597389221191,0.3857141435146332
2024-12-07 16:29:24.898900700,5.868900634765625,-0.148425817489624,5.325591087341309,1.5776222944259644
2024-12-07 16:29:24.908928800,5.8789287109375,-1.3393930196762085,4.315143585205078,2.759899377822876
2024-12-07 16:29:24.918956800,5.888956787109375,-2.583604574203491,2.357089042663574,4.09358549118042
2024-12-07 16:29:24.928984800,5.89898486328125,-3.952906847000122,-0.7659339904785156,6.024536609649658
2024-12-07 16:29:24.939012900,5.909012939453125,-4.802112102508545,-4.641257286071777,7.769005298614502
2024-12-07 16:29:24.949041000,5.919041015625,-5.463898658752441,-7.215958595275879,7.28954553604126
2024-12-07 16:29:24.959069000,5.92906884765625,-4.665153503417969,-8.744132041931152,6.106215000152588
2024-12-07 16:29:24.969097000,5.939096923828125,-1.900556325912476,-9.754959106445312,5.183785438537598
2024-12-07 16:29:24.979125000,5.949125,3.589075803756714,-10.471135139465332,3.738368034362793
2024-12-07 16:29:24.989153000,5.959153076171875,9.804924011230469,-8.528660774230957,1.212815761566162
2024-12-07 16:29:24.999181000,5.96918115234375,11.291014671325684,-5.092526435852051,-3.2557694911956787
2024-12-07 16:29:25.009209000,5.979208984375,8.030720710754395,-2.87508773803711,-5.396317005157471
2024-12-07 16:29:25.019237000,5.989237060546875,3.9744701385498047,-0.1677312850952148,-6.215146064758301
2024-12-07 16:29:25.029265000,5.999264892578125,0.584036111831665,2.711153984069824,-4.587573051452637
2024-12-07 16:29:25.039293000,6.00929296875,-1.915294170379639,5.297873020172119,-2.785845994949341
2024-12-07 16:29:25.049321000,6.019321044921875,-4.232047080993652,7.044893741607666,-1.7984246015548706
2024-12-07 16:29:25.059349000,6.029348876953125,-5.985689163208008,7.788119316101074,-0.8173041939735413
2024-12-07 16:29:25.069377000,6.039376953125,-7.614739894866943,7.381847381591797,0.9580000638961792
2024-12-07 16:29:25.079405000,6.049405029296875,-6.894243240356445,5.53661060333252,2.2498340606689453
2024-12-07 16:29:25.089433000,6.05943310546875,-4.4766035079956055,2.4674510955810547,3.0503416061401367
2024-12-07 16:29:25.099461000,6.069461181640625,-2.674626588821411,-0.3148946762084961,2.968350648880005
2024-12-07 16:29:25.109489200,6.0794892578125,-1.7871174812316897,-1.90726375579834,2.7719075679779053
2024-12-07 16:29:25.119517200,6.08951708984375,-1.111418604850769,-2.635817527770996,1.8381013870239256
2024-12-07 16:29:25.129545200,6.099545166015625,-0.5158343315124512,-3.083949089050293,0.4603332281112671
2024-12-07 16:29:25.139573200,6.1095732421875,0.4404247999191284,-3.18459415435791,-1.1055190563201904
2024-12-07 16:29:25.149601300,6.119601318359375,1.354712724685669,-2.7092533111572266,-2.55206298828125
2024-12-07 16:29:25.159629300,6.12962939453125,1.7389414310455322,-1.7409400939941406,-3.4959964752197266
2024-12-07 16:29:25.169657300,6.1396572265625,1.9080069065093992,-0.8647346496582031,-3.4539592266082764
2024-12-07 16:29:25.179685400,6.149685302734375,1.7119804620742798,-0.1731529235839843,-2.602104902267456
2024-12-07 16:29:25.189713400,6.15971337890625,0.7057499885559082,0.3094978332519531,-1.7158219814300537
2024-12-07 16:29:25.199741400,6.169741455078125,-0.7193419933319092,0.6458148956298828,-0.4876531362533569
2024-12-07 16:29:25.209769500,6.17976953125,-1.7561780214309692,0.8601751327514648,0.4471416473388672
2024-12-07 16:29:25.219797500,6.189797607421875,-2.6539106369018555,0.9581480026245116,1.196336030960083
2024-12-07 16:29:25.229825500,6.199825439453125,-3.4969587326049805,0.9551067352294922,1.7770793437957764
2024-12-07 16:29:25.239853600,6.209853515625,-3.466977119445801,0.8515548706054688,2.032284736633301
2024-12-07 16:29:25.249881600,6.219881591796875,-2.990829944610596,0.5852584838867188,2.060736179351806
2024-12-07 16:29:25.259909400,6.229909423828125,-2.487279891967773,0.2999505996704101,1.9570250511169431
2024-12-07 16:29:25.269937400,6.2399375,-1.9985737800598145,0.1062231063842773,1.5450761318206787
2024-12-07 16:29:25.279965400,6.24996533203125,-1.546571135520935,-0.0476655960083007,0.9897316694259644
2024-12-07 16:29:25.289993500,6.259993408203125,-1.2871747016906738,-0.1228609085083007,0.6973065137863159
2024-12-07 16:29:25.300021500,6.270021484375,-0.886643648147583,-0.1720819473266601,0.616669774055481
2024-12-07 16:29:25.310049500,6.280049560546875,-0.2977900505065918,-0.1915216445922851,0.4637571573257446
2024-12-07 16:29:25.320077600,6.29007763671875,0.0698588490486145,-0.1251497268676757,0.2118380069732666
2024-12-07 16:29:25.330105600,6.300105712890625,0.0098958015441894,-0.0072898864746093,-0.0448299646377563
2024-12-07 16:29:25.340133600,6.310133544921875,-0.4679470360279083,0.0616102218627929,-0.0395499467849731
2024-12-07 16:29:25.350161700,6.32016162109375,-0.875873863697052,0.0150537490844726,0.0963209867477417
2024-12-07 16:29:25.360189700,6.330189697265625,-1.0897918939590454,0.0110645294189453,0.3455256223678589
2024-12-07 16:29:25.370217700,6.3402177734375,-1.05409574508667,0.073495864868164,0.543647289276123
2024-12-07 16:29:25.380245800,6.350245849609375,-0.7680881023406982,0.168731689453125,0.7089591026306152
2024-12-07 16:29:25.390273800,6.360273681640625,-0.3334523141384125,0.1482572555541992,0.8723230361938477
2024-12-07 16:29:25.400301800,6.3703017578125,-0.0772969126701355,0.2319755554199218,0.7805836200714111
2024-12-07 16:29:25.410329900,6.380329833984375,0.2353824377059936,0.2381181716918945,0.4721641540527344
2024-12-07 16:29:25.420358000,6.39035791015625,0.6128159761428833,0.1623220443725586,-0.0787149667739868
2024-12-07 16:29:25.430386000,6.400385986328125,0.7144769430160522,0.0622529983520507,-0.5593831539154053
2024-12-07 16:29:25.440414000,6.4104140625,0.65538090467453,0.0049953460693359,-1.021318435668945
2024-12-07 16:29:25.450442000,6.42044189453125,0.3930494785308838,-0.0856876373291015,-1.433732032775879
2024-12-07 16:29:25.460470000,6.430469970703125,0.1246889233589172,-0.128148078918457,-1.6891536712646484
2024-12-07 16:29:25.470498000,6.440498046875,-0.1914415061473846,-0.2036418914794922,-1.678109645843506
2024-12-07 16:29:25.480526000,6.450526123046875,-0.4247194230556488,-0.2737970352172851,-1.5253058671951294
2024-12-07 16:29:25.490553900,6.460553955078125,-0.7728559374809265,-0.2621889114379883,-1.050235152244568
2024-12-07 16:29:25.500582000,6.470581787109375,-0.7794874906539917,-0.2312879562377929,-0.5228654742240906
2024-12-07 16:29:25.510610000,6.48060986328125,-0.4701258242130279,-0.1144342422485351,-0.0537693500518798
2024-12-07 16:29:25.520638000,6.490637939453125,-0.163038283586502,0.0306892395019531,0.2183582782745361
2024-12-07 16:29:25.530666000,6.500666015625,0.0875741839408874,0.1275224685668945,0.5996894836425781
2024-12-07 16:29:25.540694000,6.510694091796875,0.4038454592227936,0.2189264297485351,0.7682352066040039
2024-12-07 16:29:25.550722000,6.52072216796875,0.596851646900177,0.2809896469116211,0.7289962768554688
2024-12-07 16:29:25.560750000,6.53075,0.5844979882240295,0.3329725265502929,0.6405152082443237
2024-12-07 16:29:25.570778000,6.540778076171875,0.462477833032608,0.2890043258666992,0.5127565860748291
2024-12-07 16:29:25.580806100,6.55080615234375,0.2700378596782684,0.1495132446289062,0.4521077871322632
2024-12-07 16:29:25.590834200,6.560834228515625,-0.0323380231857299,0.04376220703125,0.6164028644561768
2024-12-07 16:29:25.600862200,6.5708623046875,-0.1977638900279998,-0.0332193374633789,0.9565622806549072
2024-12-07 16:29:25.610890200,6.58089013671875,-0.1403835117816925,-0.0339221954345703,1.236807346343994
2024-12-07 16:29:25.620918300,6.590918212890625,0.0562092140316963,-0.0112380981445312,1.3127000331878662
2024-12-07 16:29:25.630946300,6.6009462890625,0.2281219065189361,0.053750991821289,1.2362278699874878
2024-12-07 16:29:25.640974300,6.610974365234375,0.3173018097877502,0.1131315231323242,0.983488917350769
2024-12-07 16:29:25.651002400,6.62100244140625,0.2908797860145569,0.1860466003417968,0.6316993236541748
2024-12-07 16:29:25.661030400,6.631030517578125,0.269174724817276,0.1865520477294922,0.1532235145568847
2024-12-07 16:29:25.671058400,6.641058349609375,0.1960120052099228,0.0816240310668945,-0.2822717428207397
2024-12-07 16:29:25.681086500,6.65108642578125,0.0723903775215148,0.0863170623779296,-0.4846038818359375
2024-12-07 16:29:25.691114800,6.66111474609375,0.2242436707019806,-0.0861463546752929,-1.2651958465576172
2024-12-07 16:29:25.701142800,6.671142822265625,0.4627163708209991,-0.0665884017944336,-1.6609060764312744
2024-12-07 16:29:25.711170800,6.6811708984375,0.6477959752082825,-0.0896825790405273,-1.5644769668579102
2024-12-07 16:29:25.721198800,6.69119873046875,0.4159635305404663,-0.1749229431152343,-1.5207319259643557
2024-12-07 16:29:25.731227000,6.701226806640625,0.5661553144454956,-0.2070245742797851,-1.7171266078948977
2024-12-07 16:29:25.741255000,6.7112548828125,0.7161392569541931,-0.2768611907958984,-1.3551567792892456
2024-12-07 16:29:25.751283200,6.721283203125,0.837867796421051,-0.2986431121826172,-1.0827635526657104
2024-12-07 16:29:25.761311200,6.731311279296875,1.1987650394439695,-0.2870044708251953,-0.8818997740745544
2024-12-07 16:29:25.771339300,6.74133935546875,1.6248339414596558,-0.3472824096679687,-1.0408072471618652
2024-12-07 16:29:25.781367300,6.7513671875,1.7216030359268188,-0.2732524871826172,-1.015728235244751
2024-12-07 16:29:25.791395300,6.761395263671875,1.4383764266967771,-0.2236213684082031,-0.9361268281936646
2024-12-07 16:29:25.801423400,6.77142333984375,1.0394614934921265,-0.0167093276977539,-0.8536635637283325
2024-12-07 16:29:25.811451600,6.78145166015625,0.83939129114151,0.0598955154418945,-0.3166940212249756
2024-12-07 16:29:25.821479700,6.791479736328125,1.0348269939422607,-0.0275039672851562,0.0785006284713745
2024-12-07 16:29:25.831507700,6.8015078125,1.2929531335830688,-0.2160291671752929,0.4867852926254272
2024-12-07 16:29:25.841535700,6.81153564453125,1.306147575378418,-0.4531612396240234,0.9821674823760986
2024-12-07 16:29:25.851563800,6.821563720703125,1.283832311630249,-0.6338272094726562,1.1334688663482666
2024-12-07 16:29:25.861591800,6.831591796875,1.3835419416427612,-0.8441352844238281,1.1474870443344116
2024-12-07 16:29:25.871619800,6.841619873046875,1.4559394121170044,-1.050680160522461,1.1864521503448486
2024-12-07 16:29:25.881648000,6.851648193359375,1.6744892597198486,-1.486964225769043,0.4115976095199585
2024-12-07 16:29:25.891676200,6.86167626953125,1.4573668241500854,-1.8644227981567385,-0.5529468059539795
2024-12-07 16:29:25.901704200,6.8717041015625,1.094738483428955,-2.51143741607666,-1.6248385906219482
2024-12-07 16:29:25.911732200,6.881732177734375,0.0677098631858825,-2.642411231994629,-3.082313537597656
2024-12-07 16:29:25.921760300,6.89176025390625,-1.4398949146270752,-2.14859676361084,-3.9474687576293945
2024-12-07 16:29:25.931788300,6.901788330078125,-1.9360113143920896,-1.5302362442016602,-4.2342376708984375
2024-12-07 16:29:25.941816300,6.91181640625,-0.9405068159103394,-0.9028444290161132,-4.440890312194824
2024-12-07 16:29:25.951844400,6.92184423828125,0.2184699177742004,-0.4990444183349609,-4.577579021453857
2024-12-07 16:29:25.961872400,6.931872314453125,0.2350860238075256,-0.7274017333984375,-4.290449142456055
2024-12-07 16:29:25.971900400,6.941900390625,-0.5988956689834595,-1.1333398818969729,-2.5955939292907715
2024-12-07 16:29:25.981928400,6.951928466796875,-1.2230995893478394,-1.074814796447754,-0.1480746269226074
2024-12-07 16:29:25.991956500,6.96195654296875,-0.3664717674255371,-0.5253019332885742,1.915810465812683
2024-12-07 16:29:26.001984500,6.971984619140625,1.0174005031585691,0.1794319152832031,3.771108627319336
2024-12-07 16:29:26.012012500,6.982012451171875,1.7445284128189087,0.9004659652709961,4.929294586181641
2024-12-07 16:29:26.022040600,6.99204052734375,1.7098474502563477,1.3746881484985352,4.986546039581299
2024-12-07 16:29:26.032068600,7.002068603515625,1.4429843425750732,1.521195411682129,4.035985946655273
2024-12-07 16:29:26.042096600,7.0120966796875,1.2703715562820437,1.4125633239746094,2.602893590927124
2024-12-07 16:29:26.052124700,7.022124755859375,1.1402647495269775,1.226912498474121,1.000457763671875
2024-12-07 16:29:26.062152700,7.032152587890625,0.969005525112152,1.04632568359375,-0.48733651638031
2024-12-07 16:29:26.072180700,7.0421806640625,0.7787212133407593,1.0577516555786133,-1.639719009399414
2024-12-07 16:29:26.082208800,7.052208740234375,0.885511040687561,1.0416440963745115,-2.2574691772460938
2024-12-07 16:29:26.092236800,7.06223681640625,0.938219666481018,0.9556875228881836,-2.4013352394104004
2024-12-07 16:29:26.102264800,7.072264892578125,0.8941401839256287,0.7238359451293945,-2.3335561752319336
2024-12-07 16:29:26.112292900,7.08229296875,0.8871921896934509,0.2509441375732422,-2.015660524368286
2024-12-07 16:29:26.122321000,7.09232080078125,0.9788240790367126,-0.3386316299438476,-1.4785062074661257
2024-12-07 16:29:26.132349000,7.102348876953125,0.8482658863067627,-0.906590461730957,-0.7816179394721985
2024-12-07 16:29:26.142377000,7.112376953125,0.4474983811378479,-1.2386178970336914,-0.0276415348052978
2024-12-07 16:29:26.152404700,7.12240478515625,0.2114199846982956,-1.20703125,0.6088904142379761
2024-12-07 16:29:26.162432800,7.132432861328125,0.2525762319564819,-1.0234613418579102,0.9641613960266112
2024-12-07 16:29:26.172460800,7.142460693359375,0.1012596115469932,-0.7653789520263672,1.3427658081054688
2024-12-07 16:29:26.182488800,7.15248876953125,0.1394999325275421,-0.4956874847412109,1.4233587980270386
2024-12-07 16:29:26.192516900,7.162516845703125,0.283898264169693,-0.1863279342651367,1.3974605798721311
2024-12-07 16:29:26.202545000,7.172544921875,0.3233858048915863,0.1142654418945312,1.203646183013916
2024-12-07 16:29:26.212573000,7.182572998046875,0.1930549144744873,0.2958621978759765,0.9869614839553832
2024-12-07 16:29:26.222601000,7.19260107421875,-0.1977232098579406,0.3298892974853515,0.8961297273635864
2024-12-07 16:29:26.232629000,7.20262890625,-0.4789730906486511,0.1931381225585937,0.8789705038070679
2024-12-07 16:29:26.242657000,7.212656982421875,-0.521995484828949,-0.1802616119384765,0.9215997457504272
2024-12-07 16:29:26.252685000,7.22268505859375,-0.300098180770874,-0.6651010513305664,1.0892717838287354
2024-12-07 16:29:26.262713000,7.232713134765625,0.3404619693756103,-1.2037439346313477,1.1147937774658203
2024-12-07 16:29:26.272741000,7.2427412109375,1.0557682514190674,-1.715410232543945,1.0150201320648191
2024-12-07 16:29:26.282769200,7.25276904296875,1.6000956296920776,-2.0912961959838867,0.5757007598876953
2024-12-07 16:29:26.292797200,7.262797119140625,1.6982910633087158,-2.2653627395629883,-0.2331609725952148
2024-12-07 16:29:26.302825200,7.2728251953125,1.141120195388794,-2.299161911010742,-1.0403766632080078
2024-12-07 16:29:26.312853200,7.282853271484375,-0.0933084487915039,-2.075550079345703,-1.4409499168395996
2024-12-07 16:29:26.322881300,7.29288134765625,-1.1016672849655151,-1.8404388427734373,-1.5327904224395752
2024-12-07 16:29:26.332909300,7.302909423828125,-1.477502465248108,-1.6261568069458008,-1.2586917877197266
2024-12-07 16:29:26.342937300,7.312937255859375,-1.653714299201965,-1.270294189453125,-0.7226118445396423
2024-12-07 16:29:26.352965400,7.32296533203125,-1.470260739326477,-0.8261480331420898,-0.3445632457733154
2024-12-07 16:29:26.362993400,7.332993408203125,-1.1730802059173584,-0.5237007141113281,-0.1291930079460144
2024-12-07 16:29:26.373021400,7.343021484375,-0.9697813987731934,-0.3441009521484375,0.0676671266555786
2024-12-07 16:29:26.383049200,7.35304931640625,-0.9211151599884032,-0.101506233215332,-0.025308072566986
2024-12-07 16:29:26.393077200,7.3630771484375,-1.0340402126312256,0.2419157028198242,-0.3408952951431274
2024-12-07 16:29:26.403105300,7.373105224609375,-1.2371550798416138,0.6239423751831055,-0.5560147762298584
2024-12-07 16:29:26.413133300,7.38313330078125,-1.4199414253234863,1.011265754699707,-0.7044733762741089
2024-12-07 16:29:26.423161300,7.393161376953125,-1.5926769971847534,1.3510761260986328,-0.7686525583267212
2024-12-07 16:29:26.433189400,7.403189453125,-1.832789778709412,1.6575326919555664,-0.7634055614471436
2024-12-07 16:29:26.443217400,7.413217529296875,-2.1702990531921387,1.834827899932861,-0.6779282093048096
2024-12-07 16:29:26.453245400,7.423245361328125,-2.6238017082214355,1.9121336936950684,-0.2106556296348571
2024-12-07 16:29:26.463273500,7.4332734375,-3.04793643951416,1.9524130821228027,0.4315301179885864
2024-12-07 16:29:26.473301500,7.443301513671875,-3.2403695583343506,1.913447856903076,0.990248441696167
2024-12-07 16:29:26.483329500,7.45332958984375,-3.1716465950012207,1.695615291595459,1.5080740451812744
2024-12-07 16:29:26.493357600,7.463357666015625,-3.0180535316467285,1.3092679977416992,1.9556033611297607
2024-12-07 16:29:26.503385600,7.473385498046875,-2.612390756607056,0.9268884658813475,2.170923948287964
2024-12-07 16:29:26.513413600,7.48341357421875,-2.156834125518799,0.5194807052612305,2.207558870315552
2024-12-07 16:29:26.523441700,7.493441650390625,-1.8146557807922363,0.1059894561767578,2.23913836479187
2024-12-07 16:29:26.533469700,7.5034697265625,-1.5290586948394775,-0.223031997680664,2.1528022289276123
2024-12-07 16:29:26.543497700,7.513497802734375,-1.3344894647598269,-0.348794937133789,2.303064584732056
2024-12-07 16:29:26.553525800,7.52352587890625,-1.1933181285858154,-0.2866392135620117,2.0851852893829346
2024-12-07 16:29:26.563553800,7.5335537109375,-1.0548012256622314,-0.1426525115966797,1.6983227729797363
2024-12-07 16:29:26.573581800,7.543581787109375,-1.0206677913665771,0.0968561172485351,1.3924217224121094
2024-12-07 16:29:26.583609900,7.55360986328125,-0.9140689373016356,0.3026571273803711,1.2158865928649902
2024-12-07 16:29:26.593638000,7.563637939453125,-0.616044282913208,0.4747295379638672,0.939473032951355
2024-12-07 16:29:26.603666000,7.573666015625,-0.232947826385498,0.5124225616455078,1.224951982498169
2024-12-07 16:29:26.613693700,7.583693603515625,0.2808465957641601,0.5107307434082031,1.473673701286316
2024-12-07 16:29:26.623721700,7.5937216796875,0.8257627487182617,0.4780082702636719,1.5856714248657229
2024-12-07 16:29:26.633749800,7.603749755859375,1.2023539543151855,0.4944915771484375,1.4160335063934326
2024-12-07 16:29:26.643777800,7.61377783203125,1.3141868114471436,0.4642467498779297,1.2282469272613523
2024-12-07 16:29:26.653805800,7.623805908203125,1.3878014087677002,0.3783035278320312,1.1132627725601196
2024-12-07 16:29:26.663833900,7.633833740234375,1.6114771366119385,0.2898778915405273,0.9512600302696228
2024-12-07 16:29:26.673862000,7.64386181640625,1.8431413173675537,0.2423171997070312,0.7891310453414917
2024-12-07 16:29:26.683890000,7.653889892578125,2.05477261543274,0.240365982055664,0.5453746914863586
2024-12-07 16:29:26.693918000,7.66391796875,2.246689558029175,0.231297492980957,0.2584463357925415
2024-12-07 16:29:26.703946000,7.673946044921875,2.3520097732543945,0.1338415145874023,-0.1940560936927795
2024-12-07 16:29:26.713974000,7.68397412109375,2.789815187454224,-0.0665178298950195,-0.8039355278015137
2024-12-07 16:29:26.724002000,7.694001953125,3.1366989612579346,-0.3033256530761719,-1.582597017288208
2024-12-07 16:29:26.734030000,7.704030029296875,3.1355557441711426,-0.6000833511352539,-2.411933183670044
2024-12-07 16:29:26.744058000,7.71405810546875,3.084685802459717,-0.8699750900268555,-3.225724697113037
2024-12-07 16:29:26.754086100,7.724086181640625,2.874528169631958,-1.1795587539672852,-3.8245794773101807
2024-12-07 16:29:26.764114200,7.7341142578125,2.0822062492370605,-1.346181869506836,-4.257569313049316
2024-12-07 16:29:26.774142200,7.74414208984375,0.9580328464508056,-1.3342609405517578,-4.4718828201293945
2024-12-07 16:29:26.784170200,7.754170166015625,0.0806844234466552,-1.1707839965820312,-4.202768325805664
2024-12-07 16:29:26.794198300,7.7641982421875,-0.4099612236022949,-0.8889503479003906,-3.716291904449463
2024-12-07 16:29:26.804226300,7.774226318359375,-0.7678358554840088,-0.4892339706420898,-3.2020063400268555
2024-12-07 16:29:26.814254300,7.78425439453125,-0.9982855319976808,0.0562524795532226,-2.496379852294922
2024-12-07 16:29:26.824282400,7.794282470703125,-1.1544783115386963,0.7560205459594727,-1.7581079006195068
2024-12-07 16:29:26.834310400,7.804310302734375,-1.3214712142944336,1.557295799255371,-1.1765186786651611
2024-12-07 16:29:26.844338200,7.814338134765625,-1.1532025337219238,2.202312469482422,-0.5174861550331116
2024-12-07 16:29:26.854366200,7.8243662109375,-0.9214465618133544,2.7347397804260254,0.0144439935684204
2024-12-07 16:29:26.864394200,7.834394287109375,-0.6579844951629639,3.064761161804199,0.2938199043273926
2024-12-07 16:29:26.874422300,7.84442236328125,-0.2010445594787597,3.08756160736084,0.6788409352302551
2024-12-07 16:29:26.884450300,7.8544501953125,0.2930986881256103,2.8791298866271973,0.7625758051872253
2024-12-07 16:29:26.894478300,7.864478271484375,0.6208484172821045,2.5487728118896484,0.6797930598258972
2024-12-07 16:29:26.904506400,7.87450634765625,0.7801756858825684,2.220050811767578,0.5509185194969177
2024-12-07 16:29:26.914534400,7.884534423828125,0.8041510581970215,1.964283466339111,0.4386565089225769
2024-12-07 16:29:26.924562400,7.8945625,0.6742937564849854,1.8147845268249512,0.3483752608299255
2024-12-07 16:29:26.934590500,7.904590576171875,0.4975676536560058,1.790849208831787,0.3236480951309204
2024-12-07 16:29:26.944618500,7.914618408203125,0.3338708877563476,1.883277416229248,0.3785308003425598
2024-12-07 16:29:26.954646500,7.924646484375,0.109689712524414,2.0447258949279785,0.4935452342033386
2024-12-07 16:29:26.964674600,7.934674560546875,-0.1810362339019775,2.175419330596924,0.6447100043296814
2024-12-07 16:29:26.974702600,7.94470263671875,-0.4691801071166992,1.969921588897705,0.923511803150177
2024-12-07 16:29:26.984730600,7.954730712890625,-0.5773272514343262,1.0752906799316406,1.4984965324401855
2024-12-07 16:29:26.994758700,7.964758544921875,-0.348463773727417,-0.9519071578979492,2.621074676513672
2024-12-07 16:29:27.004786700,7.97478662109375,0.354182481765747,-4.282321929931641,4.01414966583252
2024-12-07 16:29:27.014814700,7.984814697265625,1.6265347003936768,-8.046497344970703,4.959011554718018
2024-12-07 16:29:27.024842800,7.9948427734375,2.9301040172576904,-10.90001106262207,4.323505401611328
2024-12-07 16:29:27.034870800,8.004870849609375,4.199069499969482,-12.22429656982422,1.2346752882003784
2024-12-07 16:29:27.044898800,8.01489892578125,3.3765103816986084,-11.071769714355469,1.35843825340271
2024-12-07 16:29:27.054926800,8.0249267578125,0.5844358205795288,-8.058697700500488,0.8485069274902344
2024-12-07 16:29:27.064955000,8.034954833984376,0.2334253787994384,-5.52130126953125,-1.6600902080535889
2024-12-07 16:29:27.074982700,8.044982666015626,3.0559744834899902,-3.349580764770508,-3.0324244499206543
2024-12-07 16:29:27.085010700,8.0550107421875,6.280844211578369,-1.2994604110717771,-3.4997615814208984
2024-12-07 16:29:27.095038700,8.065038818359374,5.119574546813965,1.6162710189819336,-2.458664894104004
2024-12-07 16:29:27.105066800,8.075066650390625,1.1429574489593506,5.02401065826416,0.3258845806121826
2024-12-07 16:29:27.115094800,8.0850947265625,-1.758091926574707,8.484844207763672,2.800323963165283
2024-12-07 16:29:27.125122800,8.095122802734375,-3.317683219909668,10.624018669128418,4.79362678527832
2024-12-07 16:29:27.135150800,8.10515087890625,-4.194972515106201,11.352572441101074,5.155619621276856
2024-12-07 16:29:27.145179000,8.115178955078125,-5.970718383789063,10.730688095092772,4.814164638519287
2024-12-07 16:29:27.155207000,8.12520703125,-7.390925407409668,8.537763595581055,4.980772972106934
2024-12-07 16:29:27.165235000,8.13523486328125,-6.861325263977051,4.961678981781006,4.874210834503174
2024-12-07 16:29:27.175263000,8.145262939453126,-4.607097625732422,0.7189493179321289,4.448014736175537
2024-12-07 16:29:27.185291000,8.155291015625,-1.7424944639205933,-3.5327959060668945,4.055442810058594
2024-12-07 16:29:27.195319000,8.165319091796874,0.1050490140914917,-6.986871719360352,2.162993192672729
2024-12-07 16:29:27.205347000,8.17534716796875,1.0212888717651367,-8.419187545776367,-1.5276813507080078
2024-12-07 16:29:27.215375000,8.185375,1.481100082397461,-7.973823547363281,-4.631186485290527
2024-12-07 16:29:27.225403100,8.195403076171875,1.85528576374054,-5.662188529968262,-6.696823120117188
2024-12-07 16:29:27.235431200,8.20543115234375,2.312098503112793,-2.147566795349121,-7.438522815704346
2024-12-07 16:29:27.245459200,8.215459228515625,2.331473588943481,-0.104588508605957,-6.412592887878418
2024-12-07 16:29:27.255487000,8.225487060546875,1.6036051511764526,0.7401113510131836,-3.7270755767822266
2024-12-07 16:29:27.265515000,8.235514892578125,-0.1308679580688476,1.4147663116455078,-1.5548361539840698
2024-12-07 16:29:27.275543000,8.24554296875,-2.227467536926269,1.8816843032836912,0.0429977178573608
2024-12-07 16:29:27.285571000,8.255571044921876,-3.447617053985596,2.1223936080932617,1.4542908668518066
2024-12-07 16:29:27.295598800,8.265598876953124,-3.704354286193848,1.9603900909423828,2.595959424972534
2024-12-07 16:29:27.305627000,8.275626953125,-3.3072381019592285,1.472330093383789,3.763336658477783
2024-12-07 16:29:27.315655000,8.285655029296874,-2.612704277038574,1.054640769958496,4.023039817810059
2024-12-07 16:29:27.325683000,8.295682861328125,-1.906374454498291,0.6498193740844727,3.1897082328796387
2024-12-07 16:29:27.335710700,8.305710693359375,-1.0540107488632202,0.2724437713623047,1.965936303138733
2024-12-07 16:29:27.345738800,8.31573876953125,-0.1044953465461731,-0.0248384475708007,0.6931450366973877
2024-12-07 16:29:27.355766800,8.325766845703125,0.1785418391227722,-0.2371768951416015,-0.4473859667778015
2024-12-07 16:29:27.365794800,8.335794921875,-0.0935267806053161,-0.5213212966918945,-1.4578204154968262
2024-12-07 16:29:27.375822600,8.345822509765625,-0.5338728427886963,-0.8138084411621094,-1.969386100769043
2024-12-07 16:29:27.385850600,8.3558505859375,-1.00734543800354,-0.9226484298706056,-1.9899752140045168
2024-12-07 16:29:27.395878700,8.365878662109376,-1.3222211599349976,-0.9243450164794922,-1.516183614730835
2024-12-07 16:29:27.405906700,8.37590673828125,-1.561704397201538,-0.7093343734741211,-0.8132642507553101
2024-12-07 16:29:27.415934500,8.3859345703125,-1.3056843280792236,-0.5363683700561523,-0.2890453338623047
2024-12-07 16:29:27.425962500,8.39596240234375,-0.7641340494155884,-0.4012508392333984,0.1065531969070434
2024-12-07 16:29:27.435990500,8.405990478515625,-0.3240495026111603,-0.3380956649780273,0.2409722805023193
2024-12-07 16:29:27.446018600,8.4160185546875,-0.1556449234485626,-0.2850141525268554,-0.1880629062652588
2024-12-07 16:29:27.456046300,8.42604638671875,-0.312309592962265,-0.1651868820190429,-0.4692373275756836
2024-12-07 16:29:27.466074400,8.436074462890625,-0.4574229717254638,0.07830810546875,-0.3617743253707886
2024-12-07 16:29:27.476102400,8.446102294921875,-0.2511318922042846,0.282419204711914,-0.1947509050369262
2024-12-07 16:29:27.486130400,8.45613037109375,0.0325254797935485,0.2940807342529297,-0.205311119556427
2024-12-07 16:29:27.496158200,8.466158203125,0.2199541479349136,0.3575763702392578,-0.2435682415962219
2024-12-07 16:29:27.506186200,8.476186279296876,0.1417653560638427,0.3963375091552734,-0.2196518778800964
2024-12-07 16:29:27.516214300,8.48621435546875,-0.1409728676080703,0.4487257003784179,-0.2004004120826721
2024-12-07 16:29:27.526242300,8.4962421875,-0.2259937524795532,0.323887825012207,-0.470336377620697
2024-12-07 16:29:27.536270300,8.506270263671874,-0.296681672334671,0.3092584609985351,-0.4327711462974548
2024-12-07 16:29:27.546298400,8.51629833984375,-0.2426914870738983,0.2945261001586914,-0.3097638487815857
2024-12-07 16:29:27.556326400,8.526326416015625,-0.040659561753273,0.1171789169311523,-0.5753840804100037
2024-12-07 16:29:27.566354400,8.5363544921875,0.0683736875653266,-0.0832948684692382,-0.7699953317642212
2024-12-07 16:29:27.576382500,8.546382568359375,0.0485138073563575,-0.2782249450683594,-0.5979974269866943
2024-12-07 16:29:27.586410500,8.556410400390625,0.1630001366138458,-0.4773836135864258,-0.5110154747962952
2024-12-07 16:29:27.596438500,8.5664384765625,0.1655018031597137,-0.5469198226928711,-0.4316977262496948
2024-12-07 16:29:27.606466300,8.57646630859375,0.0288306921720504,-0.5064840316772461,-0.0610798597335815
2024-12-07 16:29:27.616494300,8.586494384765626,-0.0586273521184921,-0.3422536849975586,0.2973020076751709
2024-12-07 16:29:27.626522400,8.5965224609375,-0.0291626304388046,-0.0213575363159179,0.6413291692733765
2024-12-07 16:29:27.636550400,8.60655029296875,0.2126709222793579,0.4460935592651367,0.8693289756774902
2024-12-07 16:29:27.646578400,8.616578369140624,0.5730645656585693,0.8782100677490234,0.92364239692688
2024-12-07 16:29:27.656606500,8.6266064453125,0.8540364503860474,1.0219125747680664,0.8280086517333984
2024-12-07 16:29:27.666634500,8.636634521484375,0.9789770841598512,0.8684568405151367,0.550087571144104
2024-12-07 16:29:27.676662500,8.64666259765625,1.0102380514144895,0.4474163055419922,0.2017990350723266
2024-12-07 16:29:27.686690600,8.656690673828125,0.919807493686676,0.0271921157836914,-0.3146378397941589
2024-12-07 16:29:27.696718600,8.666718505859375,0.3323579728603363,-0.1912574768066406,-0.6418524980545044
2024-12-07 16:29:27.706746600,8.67674658203125,0.0397469699382782,-0.2087173461914062,-0.6338081955909729
2024-12-07 16:29:27.716774700,8.686774658203126,0.0598080158233642,-0.1016702651977539,-1.1475486755371094
2024-12-07 16:29:27.726802700,8.696802734375,-0.1028744876384735,0.1389570236206054,-0.5345571637153625
2024-12-07 16:29:27.736830700,8.706830810546874,0.0737068057060241,0.2591924667358398,-0.0094221830368042
2024-12-07 16:29:27.746858800,8.716858642578124,0.4065179824829101,0.2208271026611328,0.5930056571960449
2024-12-07 16:29:27.756886800,8.72688671875,0.8690991997718811,0.1912193298339843,0.8739051818847656
2024-12-07 16:29:27.766914800,8.736914794921875,1.2664070129394531,0.0941553115844726,0.738976240158081
2024-12-07 16:29:27.776942800,8.74694287109375,1.267397403717041,0.1355476379394531,0.3106160163879394
2024-12-07 16:29:27.786971000,8.756970947265625,0.8224043250083923,0.2484617233276367,-0.2404451370239257
2024-12-07 16:29:27.796999000,8.7669990234375,0.2724313139915466,0.3085689544677734,-0.6769770383834839
2024-12-07 16:29:27.807027000,8.77702685546875,0.0576446056365966,0.2631044387817383,-0.8412647843360901
2024-12-07 16:29:27.817055000,8.787054931640625,0.3299082815647125,0.0308094024658203,-0.9266492128372192
2024-12-07 16:29:27.827083000,8.7970830078125,0.9021832942962646,-0.2683382034301758,-1.0298566818237305
2024-12-07 16:29:27.837110800,8.80711083984375,1.4232698678970337,-0.4855289459228515,-1.036012887954712
2024-12-07 16:29:27.847138800,8.817138916015624,1.2834831476211548,-0.5396595001220703,-0.7320815324783325
2024-12-07 16:29:27.857166800,8.827166748046874,1.3483495712280271,-0.6788263320922852,-0.9750429391860962
2024-12-07 16:29:27.867195000,8.83719482421875,1.3362507820129397,-0.568572998046875,-0.4842700958251953
2024-12-07 16:29:27.877223000,8.847222900390625,1.3686754703521729,-0.3629951477050781,-0.0528215169906616
2024-12-07 16:29:27.887251000,8.8572509765625,1.6720834970474243,-0.4066858291625976,0.0217478275299072
2024-12-07 16:29:27.897279000,8.867279052734375,1.920361042022705,-0.5505142211914062,0.3539698123931885
2024-12-07 16:29:27.907307000,8.87730712890625,1.943300724029541,-0.953012466430664,0.736501932144165
2024-12-07 16:29:27.917335000,8.8873349609375,2.213951587677002,-1.5459108352661133,0.367830753326416
2024-12-07 16:29:27.927363000,8.897363037109375,1.8971061706542969,-2.108345031738281,0.0107619762420654
2024-12-07 16:29:27.937391000,8.90739111328125,1.2282068729400637,-2.544370651245117,-0.6520198583602905
2024-12-07 16:29:27.947419100,8.917419189453126,0.2272336483001709,-2.84952449798584,-1.100613713264465
2024-12-07 16:29:27.957447200,8.927447265625,-0.4873338937759399,-3.0441999435424805,-1.2173784971237185
2024-12-07 16:29:27.967475200,8.93747509765625,-0.5010818243026733,-3.02880859375,-1.3832372426986694
2024-12-07 16:29:27.977503200,8.947503173828125,-0.068360686302185,-2.864886283874512,-1.7653864622116089
2024-12-07 16:29:27.987531300,8.95753125,-0.1241523027420044,-2.6422319412231445,-2.294063091278076
2024-12-07 16:29:27.997559300,8.967559326171875,-0.924445629119873,-2.3647661209106445,-2.4917242527008057
2024-12-07 16:29:28.007587300,8.97758740234375,-1.952839493751526,-1.8908262252807613,-1.0280117988586426
2024-12-07 16:29:28.017615400,8.987615478515625,-1.0006303787231443,-1.3040390014648438,0.6103588342666626
2024-12-07 16:29:28.027643400,8.997643310546875,0.5786564350128174,-0.5231399536132812,2.3460001945495605
2024-12-07 16:29:28.037671400,9.00767138671875,2.0875566005706787,0.2127542495727539,3.7559022903442383
2024-12-07 16:29:28.047699500,9.017699462890626,2.549730062484741,0.9175310134887696,4.633368492126465
2024-12-07 16:29:28.057727500,9.0277275390625,2.111589193344116,1.4946441650390625,4.478955268859863
2024-12-07 16:29:28.067755300,9.03775537109375,1.4969509840011597,1.9392385482788088,3.078364372253418
2024-12-07 16:29:28.077783300,9.047783203125,1.0722715854644775,2.156690120697021,1.3291528224945068
2024-12-07 16:29:28.087811300,9.057811279296876,0.5749789476394653,2.267763614654541,-0.2612453699111938
2024-12-07 16:29:28.097839400,9.06783935546875,0.0839295387268066,2.302296161651612,-1.5968315601348877
2024-12-07 16:29:28.107867400,9.077867431640623,-0.2827268838882446,2.251753330230713,-2.601678371429444
2024-12-07 16:29:28.117895400,9.0878955078125,-0.2845237255096435,2.1266512870788574,-3.268528699874878
2024-12-07 16:29:28.127923500,9.09792333984375,-0.0997265577316284,1.846710205078125,-3.653311729431152
2024-12-07 16:29:28.137951500,9.107951416015624,-0.0201333761215209,1.4366111755371094,-3.6599297523498535
2024-12-07 16:29:28.147979500,9.1179794921875,0.1795453429222107,0.9679059982299804,-3.2386279106140137
2024-12-07 16:29:28.158007600,9.128007568359376,0.6534672379493713,0.4508552551269531,-2.990621328353882
2024-12-07 16:29:28.168035600,9.13803564453125,0.7629050016403198,0.1528377532958984,-1.9419856071472168
2024-12-07 16:29:28.178063600,9.148063720703124,1.017651081085205,-0.1094007492065429,-0.9065252542495728
2024-12-07 16:29:28.188091600,9.158091552734374,1.2513697147369385,-0.3080224990844726,0.0608291625976562
2024-12-07 16:29:28.198119700,9.16811962890625,1.4046674966812134,-0.4154500961303711,0.9194254875183104
2024-12-07 16:29:28.208147700,9.178147705078125,1.3529034852981567,-0.4090185165405273,1.5715501308441162
2024-12-07 16:29:28.218175700,9.18817578125,1.0586382150650024,-0.4379634857177734,1.9442360401153564
2024-12-07 16:29:28.228203800,9.198203857421875,0.6083245873451233,-0.3736524581909179,2.1485090255737305
2024-12-07 16:29:28.238231800,9.208231689453124,0.184939444065094,-0.3217763900756836,2.2237439155578613
2024-12-07 16:29:28.248259800,9.218259765625,-0.2324966788291931,-0.3015556335449219,2.2670936584472656
2024-12-07 16:29:28.258287900,9.228287841796876,-0.3548173606395721,-0.3225622177124023,2.284329414367676
2024-12-07 16:29:28.268316000,9.23831591796875,-0.348061740398407,-0.4468975067138672,2.1518869400024414
2024-12-07 16:29:28.278344000,9.248343994140624,-0.2389618158340454,-0.6789779663085938,1.8280420303344729
2024-12-07 16:29:28.288372000,9.2583720703125,-0.2337533235549926,-0.955984115600586,1.2805551290512085
2024-12-07 16:29:28.298399700,9.268399658203125,-0.2719169855117798,-1.247990608215332,0.5195596218109131
2024-12-07 16:29:28.308427800,9.278427734375,-0.0725154876708984,-1.6683883666992188,-0.0949732065200805
2024-12-07 16:29:28.318455800,9.288455810546877,-0.465360164642334,-2.0202178955078125,-0.5444048643112183
2024-12-07 16:29:28.328483800,9.29848388671875,-1.381988763809204,-2.1533498764038086,-1.460726261138916
2024-12-07 16:29:28.338512000,9.308511962890623,-0.6980189085006714,-2.10030746459961,-2.693118095397949
2024-12-07 16:29:28.348540000,9.318539794921875,-0.158598780632019,-1.8055896759033203,-3.8916969299316406
2024-12-07 16:29:28.358568000,9.32856787109375,-0.0839896202087402,-1.5906696319580078,-4.16471004486084
2024-12-07 16:29:28.368596000,9.338595947265626,-0.1562671661376953,-1.356398582458496,-3.731764316558838
2024-12-07 16:29:28.378624000,9.3486240234375,-0.3801370859146118,-1.1086673736572266,-2.3339767456054688
2024-12-07 16:29:28.388652000,9.358652099609374,-0.2983112335205078,-1.048870086669922,-1.4437521696090698
2024-12-07 16:29:28.398680000,9.36868017578125,-0.1007306575775146,-0.7859077453613281,0.0089721083641052
2024-12-07 16:29:28.408708000,9.3787080078125,0.2792179584503174,-0.4505023956298828,1.1752690076828003
2024-12-07 16:29:28.418736000,9.388736083984377,0.6673152446746826,-0.1159114837646484,1.8510316610336304
2024-12-07 16:29:28.428764200,9.39876416015625,0.7774949073791504,0.2839231491088867,2.1089835166931152
2024-12-07 16:29:28.438792200,9.408792236328123,0.196772813796997,0.4866857528686523,2.5188019275665283
2024-12-07 16:29:28.448820200,9.4188203125,-0.0898435115814209,0.7805891036987305,2.3787312507629395
2024-12-07 16:29:28.458848300,9.42884814453125,-0.6465871334075928,1.176377296447754,1.9743825197219849
2024-12-07 16:29:28.468876300,9.438876220703126,-1.5861332416534424,1.2505950927734375,2.089174509048462
2024-12-07 16:29:28.478904300,9.448904296875,-1.947431325912476,1.3687467575073242,1.9530366659164429
2024-12-07 16:29:28.488932400,9.458932373046874,-1.930627942085266,1.493366241455078,1.773584485054016
2024-12-07 16:29:28.498960400,9.46896044921875,-2.061952352523804,1.3620223999023438,2.1768829822540283
2024-12-07 16:29:28.508988400,9.478988525390625,-1.844179391860962,1.3338823318481443,2.3847532272338867
2024-12-07 16:29:28.519016400,9.489016357421876,-1.4711086750030518,1.2841176986694336,2.433884382247925
2024-12-07 16:29:28.529044200,9.499044189453125,-1.2744147777557373,1.169377326965332,2.3777124881744385
2024-12-07 16:29:28.539072300,9.509072265625,-1.2014834880828855,1.004136085510254,2.2366623878479004
2024-12-07 16:29:28.549100300,9.519100341796875,-1.0698766708374023,0.8222627639770508,1.9447487592697144
2024-12-07 16:29:28.559128300,9.52912841796875,-0.9175379276275636,0.619236946105957,1.6852225065231323
2024-12-07 16:29:28.569156400,9.53915625,-0.7202038764953613,0.4382972717285156,1.506920337677002
2024-12-07 16:29:28.579184400,9.549184326171876,-0.3506069183349609,0.3552808761596679,1.2812995910644531
2024-12-07 16:29:28.589212400,9.55921240234375,-0.0451090335845947,0.2594375610351562,1.1991924047470093
2024-12-07 16:29:28.599240400,9.569240478515624,0.1272780895233154,0.1929883956909179,1.0587775707244873
2024-12-07 16:29:28.609268500,9.5792685546875,0.0706551074981689,0.1842832565307617,0.926628351211548
2024-12-07 16:29:28.619296500,9.589296630859376,-0.0850956439971923,0.3097295761108398,0.8793033957481384
2024-12-07 16:29:28.629324500,9.599324462890625,-0.1242873668670654,0.5119104385375977,0.981919527053833
2024-12-07 16:29:28.639352600,9.6093525390625,-0.0378158092498779,0.8002071380615234,0.9594452381134032
2024-12-07 16:29:28.649380600,9.619380615234377,0.0445349216461181,1.088273048400879,0.854371190071106
2024-12-07 16:29:28.659408400,9.629408447265623,0.1421167850494384,1.2424678802490234,0.880988597869873
2024-12-07 16:29:28.669436400,9.6394365234375,0.2461051940917968,1.3063898086547852,0.785162091255188
2024-12-07 16:29:28.679464400,9.64946435546875,0.3430628776550293,1.3760595321655271,0.5921130776405334
2024-12-07 16:29:28.689492500,9.659492431640626,0.4049773216247558,1.44683837890625,0.4609569907188415
2024-12-07 16:29:28.699520500,9.6695205078125,0.513059139251709,1.504312515258789,0.4104588627815246
2024-12-07 16:29:28.709548300,9.67954833984375,0.5850093364715576,1.5719738006591797,0.3629897534847259
2024-12-07 16:29:28.719576300,9.689576416015624,0.5486178398132324,1.6637911796569824,0.3709011971950531
2024-12-07 16:29:28.729604400,9.699604248046874,0.4756636619567871,1.7460999488830566,0.3621514439582824
2024-12-07 16:29:28.739632400,9.70963232421875,0.3334701061248779,1.799924373626709,0.2986330091953277
2024-12-07 16:29:28.749660200,9.71966015625,0.3142523765563965,1.7921013832092283,0.1329940110445022
2024-12-07 16:29:28.759688200,9.729688232421877,0.2467570304870605,1.689563274383545,-0.1478022336959839
2024-12-07 16:29:28.769716200,9.73971630859375,0.328751802444458,1.43572998046875,-0.41839200258255
2024-12-07 16:29:28.779744300,9.749744140625,0.5894396305084229,1.059849739074707,-0.8013488054275513
2024-12-07 16:29:28.789772000,9.75977197265625,1.1906323432922363,0.5907325744628906,-1.1424577236175537
2024-12-07 16:29:28.799800000,9.769800048828126,1.9763202667236328,0.161503791809082,-1.617361307144165
2024-12-07 16:29:28.809828000,9.779828125,2.61829686164856,-0.2907829284667969,-2.326393842697144
2024-12-07 16:29:28.819856100,9.789856201171874,3.11429500579834,-0.8667593002319336,-2.996479749679565
2024-12-07 16:29:28.829884000,9.7998837890625,3.43658447265625,-1.5190887451171875,-3.8520779609680176
2024-12-07 16:29:28.839912000,9.809911865234374,3.4947855472564697,-2.085851669311523,-4.6856184005737305
2024-12-07 16:29:28.849940000,9.81993994140625,3.1805508136749268,-2.247793197631836,-4.929099082946777
2024-12-07 16:29:28.859968000,9.829968017578125,2.638735771179199,-1.900782585144043,-4.458341121673584
2024-12-07 16:29:28.869995800,9.839995849609377,2.151615858078003,-1.212336540222168,-3.524846076965332
2024-12-07 16:29:28.880023800,9.85002392578125,1.8629608154296875,-0.5021162033081055,-2.5551400184631348
2024-12-07 16:29:28.890051800,9.8600517578125,1.7142040729522705,0.2545976638793945,-1.825705409049988
2024-12-07 16:29:28.900079900,9.870079833984375,1.6465442180633545,0.9822063446044922,-1.2333836555480957
2024-12-07 16:29:28.910107600,9.880107666015626,1.7054200172424316,1.7721295356750488,-0.7051639556884766
2024-12-07 16:29:28.920135700,9.8901357421875,1.8631925582885744,2.595778465270996,-0.30174720287323
2024-12-07 16:29:28.930163700,9.900163818359376,1.6947827339172363,3.142469882965088,0.3597598671913147
2024-12-07 16:29:28.940191700,9.910191650390624,1.1587128639221191,3.112006664276123,1.164968967437744
2024-12-07 16:29:28.950219500,9.920219482421874,0.4393594264984131,2.458468437194824,1.9911417961120603
2024-12-07 16:29:28.960247600,9.93024755859375,-0.1842398643493652,1.336416244506836,3.0175700187683105
2024-12-07 16:29:28.970275600,9.940275634765625,-0.8616867065429688,-0.3254871368408203,4.299643039703369
2024-12-07 16:29:28.980303600,9.9503037109375,-1.8344639539718628,-2.640528678894043,5.750509738922119
2024-12-07 16:29:28.990331600,9.96033154296875,-2.386857748031616,-4.92368221282959,6.160059452056885
2024-12-07 16:29:29.000359400,9.970359375,-1.596405029296875,-6.126169204711914,4.860515594482422
2024-12-07 16:29:29.010387500,9.980387451171875,-0.2813129425048828,-6.27786922454834,2.796987533569336
2024-12-07 16:29:29.020415500,9.99041552734375,1.2808279991149902,-6.147923469543457,1.0595371723175049
2024-12-07 16:29:29.030443500,10.000443603515626,4.187080383300781,-6.269570350646973,-0.3261676430702209
2024-12-07 16:29:29.040471600,10.010471435546876,6.692101001739502,-6.500541687011719,-2.677349805831909
2024-12-07 16:29:29.050499600,10.02049951171875,4.378139019012451,-5.570106506347656,-4.465508937835693
2024-12-07 16:29:29.060527600,10.030527587890624,1.716142177581787,-2.9162654876708984,-4.3989033699035645
2024-12-07 16:29:29.070555600,10.0405556640625,-0.0016939640045166,0.4833965301513672,-2.92972469329834
2024-12-07 16:29:29.080583700,10.050583740234377,-1.4749658107757568,3.5327911376953125,-0.9263530969619752
2024-12-07 16:29:29.090611700,10.06061181640625,-3.238853454589844,5.926836967468262,1.1493468284606934
2024-12-07 16:29:29.100639700,10.0706396484375,-5.219897270202637,7.371878623962402,2.243079662322998
2024-12-07 16:29:29.110667800,10.080667724609375,-6.648846626281738,7.790509223937988,2.7763566970825195
2024-12-07 16:29:29.120695800,10.09069580078125,-6.639510154724121,7.174868106842041,3.888235092163086
2024-12-07 16:29:29.130723800,10.100723876953126,-5.625765800476074,5.471954345703125,4.743073463439941
2024-12-07 16:29:29.140752000,10.110751953125,-3.977743625640869,2.996333599090576,4.5306596755981445
2024-12-07 16:29:29.150780000,10.12077978515625,-2.46277379989624,0.9329061508178712,3.164644718170166
2024-12-07 16:29:29.160808000,10.130807861328124,-1.43388032913208,-0.8615264892578125,1.7082170248031616
2024-12-07 16:29:29.170836000,10.1408359375,-1.0239604711532593,-2.40937614440918,0.951197385787964
2024-12-07 16:29:29.180864000,10.150864013671876,-0.5696561336517334,-3.652048110961914,-0.4029146432876587
2024-12-07 16:29:29.190892000,10.16089208984375,-0.0496354103088378,-4.520647048950195,-2.5451793670654297
2024-12-07 16:29:29.200920000,10.170920166015623,0.6273452043533325,-4.521815299987793,-4.366678714752197
2024-12-07 16:29:29.210948000,10.180947998046875,1.3652845621109009,-3.3475170135498047,-4.842496871948242
2024-12-07 16:29:29.220976000,10.19097607421875,1.615809679031372,-1.662029266357422,-4.053250312805176
2024-12-07 16:29:29.231004000,10.20100390625,1.9146034717559817,-0.5669784545898438,-3.052384853363037
2024-12-07 16:29:29.241032000,10.211031982421876,1.7324622869491575,0.1472091674804687,-1.7281793355941772
2024-12-07 16:29:29.251060000,10.22106005859375,1.0466920137405396,0.5849294662475586,-0.3489928245544433
2024-12-07 16:29:29.261088000,10.231087890625,0.2741761207580566,0.8513431549072266,0.5448038578033447
2024-12-07 16:29:29.271116000,10.241115966796874,-0.5326550602912903,0.9949769973754884,1.0743144750595093
2024-12-07 16:29:29.281144000,10.25114404296875,-1.5836241245269775,0.9357452392578124,1.487204670906067
2024-12-07 16:29:29.291172000,10.261172119140625,-2.537272930145264,0.6560831069946289,2.040523052215576
2024-12-07 16:29:29.301200100,10.2712001953125,-3.144536018371582,0.6158084869384766,2.259357452392578
2024-12-07 16:29:29.311228200,10.281228271484377,-2.885868549346924,0.6859006881713867,1.7056241035461426
2024-12-07 16:29:29.321256200,10.291256103515623,-2.2619009017944336,0.4933834075927734,1.1530392169952393
2024-12-07 16:29:29.331284200,10.3012841796875,-1.796755075454712,0.2250261306762695,0.7901965379714966
2024-12-07 16:29:29.341312300,10.311312255859375,-1.3423079252243042,-0.1663150787353515,0.0907601118087768
2024-12-07 16:29:29.351340300,10.32134033203125,-0.9890453219413756,-0.5219955444335938,-0.4513798356056213
2024-12-07 16:29:29.361368300,10.331368408203126,-0.5894726514816284,-0.6508522033691406,-0.6664989590644836
2024-12-07 16:29:29.371396400,10.341396240234374,-0.1998549699783325,-0.5730228424072266,-0.6746330857276917
2024-12-07 16:29:29.381424400,10.35142431640625,0.2035432457923889,-0.3661146163940429,-0.5582976341247559
2024-12-07 16:29:29.391452400,10.361452392578125,0.4017471671104431,-0.1027603149414062,-0.1529945135116577
2024-12-07 16:29:29.401480400,10.37148046875,0.4242604374885559,0.0444288253784179,0.1054062843322753
2024-12-07 16:29:29.411508500,10.381508544921877,0.4814475178718567,0.1472024917602539,0.4204148054122925
2024-12-07 16:29:29.421536500,10.39153662109375,0.3634871244430542,0.2483797073364257,0.7498552799224854
2024-12-07 16:29:29.431564500,10.401564453125,0.1310040354728698,0.3337898254394531,0.8817322254180908
2024-12-07 16:29:29.441592600,10.411592529296875,-0.0598527193069458,0.4274702072143554,0.9721243381500244
2024-12-07 16:29:29.451620600,10.42162060546875,-0.0267695784568786,0.2860698699951172,0.6260700225830078
2024-12-07 16:29:29.461648400,10.4316484375,-0.0325111746788024,0.2637891769409179,0.5285490155220032
2024-12-07 16:29:29.471676400,10.441676513671876,-0.0523022413253784,0.1406593322753906,0.3299688696861267
2024-12-07 16:29:29.481704400,10.451704345703124,-0.1055575609207153,0.0316686630249023,0.017471432685852
2024-12-07 16:29:29.491732500,10.461732421875,-0.3065053224563598,-0.1775960922241211,-0.2296037077903747
2024-12-07 16:29:29.501760500,10.471760498046876,-0.5533232092857361,-0.3576860427856445,-0.4146094918251037
2024-12-07 16:29:29.511788500,10.48178857421875,-0.8260541558265686,-0.4223833084106445,-0.6352611780166626
2024-12-07 16:29:29.521816800,10.49181689453125,-1.0377082824707031,-0.3478145599365234,-0.7458494901657104
2024-12-07 16:29:29.531844900,10.501844970703123,-1.0588198900222778,-0.1102657318115234,-0.7401317954063416
2024-12-07 16:29:29.541873000,10.511872802734375,-0.9127950072288512,0.1990032196044922,-0.3853892087936401
2024-12-07 16:29:29.551901000,10.52190087890625,-0.733612596988678,0.3837499618530273,0.0626336932182312
2024-12-07 16:29:29.561929000,10.531928955078126,-0.4172968864440918,0.4248332977294922,0.615638017654419
2024-12-07 16:29:29.571957000,10.54195703125,-0.0663435459136962,0.4177112579345703,1.1554983854293823
2024-12-07 16:29:29.581985300,10.5519853515625,0.2402135133743286,0.3478517532348633,1.4983892440795898
2024-12-07 16:29:29.592013300,10.562013427734374,0.4100255966186523,0.2391490936279297,1.6483368873596191
2024-12-07 16:29:29.602041300,10.572041259765625,0.4711932241916656,0.0725831985473632,1.6534051895141602
2024-12-07 16:29:29.612069400,10.5820693359375,0.4620709419250488,-0.0513257980346679,1.5860644578933716
2024-12-07 16:29:29.622097400,10.592097412109377,0.440182089805603,-0.0848140716552734,1.4139432907104492
2024-12-07 16:29:29.632125400,10.60212548828125,0.4052499234676361,-0.0709857940673828,1.1765984296798706
2024-12-07 16:29:29.642153700,10.61215380859375,0.3813157081604004,-0.0433292388916015,0.9033546447753906
2024-12-07 16:29:29.652181800,10.622181640625,0.3546433746814728,0.0316324234008789,0.5853318572044373
2024-12-07 16:29:29.662209800,10.632209716796876,0.2259266525506973,0.0296964645385742,0.2903270721435547
2024-12-07 16:29:29.672237800,10.64223779296875,0.0587542653083801,0.0323600769042968,-0.0334160327911376
2024-12-07 16:29:29.682265900,10.652265869140624,-0.1694692969322204,0.015817642211914,-0.2609248757362366
2024-12-07 16:29:29.692294000,10.6622939453125,-0.4473030567169189,-0.0007686614990234,-0.3733447194099426
2024-12-07 16:29:29.702322200,10.672322265625,-0.6208102703094482,-0.0891981124877929,-0.6253535747528076
2024-12-07 16:29:29.712350200,10.68235009765625,-0.6158949732780457,-0.1579017639160156,-1.0536620616912842
2024-12-07 16:29:29.722378200,10.692378173828123,-0.8286551833152771,-0.0923414230346679,-0.8750373125076294
2024-12-07 16:29:29.732406300,10.70240625,-0.789469301700592,-0.0553627014160156,-0.7223548293113708
2024-12-07 16:29:29.742434300,10.712434326171875,-0.3038296699523926,-0.0947742462158203,-0.4292448759078979
2024-12-07 16:29:29.752462300,10.72246240234375,0.2860062718391418,-0.1054916381835937,-0.2795182466506958
2024-12-07 16:29:29.762490400,10.732490478515626,0.6674753427505493,-0.1402139663696289,-0.3741273283958435
2024-12-07 16:29:29.772518700,10.7425185546875,0.7396134734153748,-0.1271619796752929,-0.530658483505249
2024-12-07 16:29:29.782546700,10.752546630859374,0.570934534072876,-0.0711812973022461,-0.7247228622436523
2024-12-07 16:29:29.792574700,10.76257470703125,0.4066261351108551,-0.0918340682983398,-0.8323338031768799
2024-12-07 16:29:29.802602800,10.772602783203125,0.3654876351356506,-0.0982198715209961,-0.9115556478500366
2024-12-07 16:29:29.812630800,10.782630859375,0.2520594298839569,-0.1525859832763672,-0.8296055793762207
2024-12-07 16:29:29.822658800,10.792658935546877,0.2819013595581054,-0.2448968887329101,-0.7414774894714355
2024-12-07 16:29:29.832687000,10.80268701171875,0.3696044981479645,-0.3179378509521484,-0.3810900449752807
2024-12-07 16:29:29.842715100,10.812715087890624,0.548809289932251,-0.2859325408935547,-0.1705101728439331
2024-12-07 16:29:29.852743200,10.8227431640625,0.7778019905090332,-0.1685447692871093,-0.0872715711593627
2024-12-07 16:29:29.862771200,10.832771240234376,1.1880711317062378,0.1157989501953125,-0.4374105334281921
2024-12-07 16:29:29.872799200,10.84279931640625,1.1056643724441528,0.518585205078125,-0.3770380020141601
2024-12-07 16:29:29.882827300,10.8528271484375,1.299481987953186,0.6717233657836914,-1.1543349027633667
2024-12-07 16:29:29.892855600,10.86285546875,1.0335752964019775,0.7338247299194336,-1.5463615655899048
2024-12-07 16:29:29.902883600,10.872883544921876,0.6564889550209045,0.6521978378295898,-1.8135244846343992
2024-12-07 16:29:29.912911600,10.88291162109375,0.8279411792755127,0.4893112182617187,-1.931796908378601
2024-12-07 16:29:29.922939600,10.892939697265623,1.0677828788757324,0.2787036895751953,-1.7640435695648191
2024-12-07 16:29:29.932967700,10.9029677734375,1.1651923656463623,-0.0083065032958984,-1.5891488790512085
2024-12-07 16:29:29.942995700,10.91299560546875,1.17817485332489,-0.2858304977416992,-1.2464042901992798
2024-12-07 16:29:29.953024000,10.92302392578125,1.322033405303955,-0.5972566604614258,-1.182753324508667
2024-12-07 16:29:29.963052000,10.933052001953126,1.5377384424209597,-0.7461042404174805,-1.140679121017456
2024-12-07 16:29:29.973080000,10.943080078125,1.5957138538360596,-0.7759284973144531,-0.9348428249359132
2024-12-07 16:29:29.983108000,10.953108154296874,1.6067955493927002,-0.5962429046630859,-0.7798042893409729
2024-12-07 16:29:29.993136000,10.96313623046875,1.691765546798706,-0.4181528091430664,-0.4574662446975708
2024-12-07 16:29:30.003164200,10.9731640625,2.053361415863037,-0.2792568206787109,-0.4763667583465576
2024-12-07 16:29:30.013192200,10.983192138671876,2.034064054489136,-0.2752523422241211,-0.0935943126678466
2024-12-07 16:29:30.023220500,10.993220458984377,1.9958345890045168,-0.5107221603393555,-0.0601073503494262
2024-12-07 16:29:30.033248500,11.00324853515625,1.8177814483642576,-1.0807256698608398,-0.1807693243026733
2024-12-07 16:29:30.043276500,11.013276611328124,1.4271636009216309,-1.8644952774047847,-0.8875433206558228
2024-12-07 16:29:30.053304600,11.0233046875,1.0457825660705566,-2.816869735717773,-1.9426636695861816
2024-12-07 16:29:30.063332600,11.03333251953125,0.2400537133216858,-3.190082550048828,-3.078237533569336
2024-12-07 16:29:30.073360600,11.043360595703126,-0.8070712089538574,-3.051708221435547,-3.815207004547119
2024-12-07 16:29:30.083389000,11.053388916015624,-1.546483039855957,-2.408663749694824,-3.870250225067138
2024-12-07 16:29:30.093417000,11.0634169921875,-1.0875970125198364,-1.582951545715332,-3.344724416732788
2024-12-07 16:29:30.103445000,11.073445068359376,-0.0571805238723754,-0.8052082061767578,-1.9113662242889404
2024-12-07 16:29:30.113473000,11.08347314453125,1.041934847831726,-0.3196229934692383,-0.4217901229858398
2024-12-07 16:29:30.123501000,11.0935009765625,1.4760048389434814,0.0315771102905273,1.206831693649292
2024-12-07 16:29:30.133529000,11.103529052734377,1.358769178390503,0.3097906112670898,2.450244903564453
2024-12-07 16:29:30.143557400,11.113557373046875,0.9791869521141052,0.6339492797851562,3.0142641067504883
2024-12-07 16:29:30.153585400,11.12358544921875,0.4687883257865906,0.8842296600341797,3.114809989929199
2024-12-07 16:29:30.163613400,11.133613525390626,0.3934563398361206,0.9605178833007812,2.7449183464050293
2024-12-07 16:29:30.173641500,11.143641357421876,0.6175870895385742,0.8206539154052734,1.970178723335266
2024-12-07 16:29:30.183669500,11.15366943359375,0.5714584589004517,0.5611810684204102,1.1004036664962769
2024-12-07 16:29:30.193697500,11.163697509765624,0.4908831715583801,0.3259553909301758,0.4443299770355224
2024-12-07 16:29:30.203725800,11.173725830078125,0.5071916580200195,0.1389474868774414,-0.0772845745086669
2024-12-07 16:29:30.213753900,11.18375390625,0.5642215013504028,0.0479583740234375,-0.5536965131759644
2024-12-07 16:29:30.223782000,11.193781982421877,0.7851946353912354,0.0341081619262695,-1.0399699211120603
2024-12-07 16:29:30.233810000,11.203809814453123,0.9715621471405028,0.0450439453125,-1.2958117723464966
2024-12-07 16:29:30.243838000,11.213837890625,1.02720046043396,0.1474361419677734,-1.374842882156372
2024-12-07 16:29:30.253866000,11.223865966796875,1.095317840576172,0.3026838302612304,-1.449804663658142
2024-12-07 16:29:30.263894000,11.23389404296875,1.2321234941482544,0.3578042984008789,-1.462879657745361
2024-12-07 16:29:30.273922300,11.24392236328125,1.3075096607208252,0.2986764907836914,-1.4135510921478271
2024-12-07 16:29:30.283950300,11.253950439453124,1.2194483280181885,0.144693374633789,-1.2387399673461914
2024-12-07 16:29:30.293978400,11.263978271484374,0.9528751969337464,0.0249052047729492,-0.9377408623695374
2024-12-07 16:29:30.304006400,11.27400634765625,0.7894718050956726,-0.1135501861572265,-0.5145182609558105
2024-12-07 16:29:30.314034400,11.284034423828125,0.5419888496398926,-0.2759103775024414,0.0498844385147094
2024-12-07 16:29:30.324062500,11.2940625,0.5161383152008057,-0.62005615234375,0.4034717082977295
2024-12-07 16:29:30.334090800,11.3040908203125,0.2785296142101288,-1.01690673828125,1.0740615129470823
2024-12-07 16:29:30.344118800,11.314118896484375,-0.1429435610771179,-1.1857328414916992,2.0515952110290527
2024-12-07 16:29:30.354146800,11.324146728515624,-0.2691864371299743,-1.1663312911987305,2.748656272888184
2024-12-07 16:29:30.364174800,11.3341748046875,-0.2574598789215088,-1.5671157836914062,3.400996685028076
2024-12-07 16:29:30.374203000,11.344202880859376,-0.4017980694770813,-1.8672962188720703,3.5171823501586914
2024-12-07 16:29:30.384231200,11.354231201171874,-0.6646873950958252,-1.4118671417236328,3.089343309402466
2024-12-07 16:29:30.394259200,11.36425927734375,-0.5104680061340332,-0.931865692138672,2.3883087635040283
2024-12-07 16:29:30.404287200,11.374287353515625,-0.1591989994049072,-0.7234821319580078,1.6378093957901
2024-12-07 16:29:30.414315500,11.3843154296875,-0.4071576595306396,-0.6862096786499023,0.0480563640594482
2024-12-07 16:29:30.424343600,11.394343505859377,-1.1996705532073977,-0.7990589141845703,-1.8971130847930908
2024-12-07 16:29:30.434371600,11.40437158203125,-1.701188087463379,-0.8399667739868164,-3.218564033508301
2024-12-07 16:29:30.444399900,11.41439990234375,-1.681224703788757,-0.9943161010742188,-3.274902820587158
2024-12-07 16:29:30.454428000,11.424427978515626,-1.5163373947143557,-1.1085519790649414,-2.745956420898437
2024-12-07 16:29:30.464456000,11.4344560546875,-1.251621961593628,-1.1007709503173828,-2.147411346435547
2024-12-07 16:29:30.474484200,11.444484130859376,-0.8865411281585693,-0.9853811264038086,-1.445456624031067
2024-12-07 16:29:30.484512300,11.45451220703125,-0.5098693370819092,-0.7967014312744141,-0.9210458397865297
2024-12-07 16:29:30.494540500,11.46454052734375,-0.2805087566375732,-0.5506839752197266,-0.6174427270889282
2024-12-07 16:29:30.504568600,11.474568603515625,-0.3647418022155761,-0.2484102249145507,-0.6903166770935059
2024-12-07 16:29:30.514596600,11.4845966796875,-0.6164982318878174,-0.0338106155395507,-0.844157338142395
2024-12-07 16:29:30.524625000,11.494625,-0.9922831058502196,0.0887737274169921,-0.7849302887916565
2024-12-07 16:29:30.534653000,11.50465283203125,-1.3273773193359375,0.1823663711547851,-0.4500211775302887
2024-12-07 16:29:30.544681000,11.514680908203124,-1.6471247673034668,0.2243251800537109,-0.0594270229339599
2024-12-07 16:29:30.554709200,11.524709228515626,-1.9438903331756592,0.2397670745849609,0.277505099773407
2024-12-07 16:29:30.564737300,11.5347373046875,-2.24440860748291,0.2629690170288086,0.5655677914619446
2024-12-07 16:29:30.574765300,11.544765380859374,-2.356986284255981,0.3418684005737304,0.9984717965126038
2024-12-07 16:29:30.584793600,11.554793701171874,-2.055189371109009,0.5183658599853516,1.37098491191864
2024-12-07 16:29:30.594821600,11.564821533203125,-1.5881574153900146,0.7046184539794922,1.737650752067566
2024-12-07 16:29:30.604850000,11.574849853515625,-1.1996510028839111,0.8178043365478516,2.025068521499634
2024-12-07 16:29:30.614878000,11.5848779296875,-0.910874605178833,0.8907527923583984,2.285311698913574
2024-12-07 16:29:30.624906000,11.594906005859375,-0.9558475017547609,0.9091901779174804,2.47546935081482
2024-12-07 16:29:30.634934300,11.604934326171875,-1.3126306533813477,0.9504594802856444,2.543898105621338
