time,seconds_elapsed,z,y,x
2024-12-07 20:12:55.246878700,0.011878662109375,0.0278168122082948,-0.0209387431323528,0.0130038584798574
2024-12-07 20:12:55.256892700,0.021892578125,-0.0659487552691251,0.0381955828815698,-0.0284288066267967
2024-12-07 20:12:55.266906600,0.03190673828125,-0.0950198783874511,0.0666430942088365,-0.0882499458611011
2024-12-07 20:12:55.276920600,0.041920654296875,-0.0676215838521718,0.0184586167544126,-0.1432762520343065
2024-12-07 20:12:55.286934500,0.0519345703125,-0.0244622410833835,0.0015682722300291,-0.155724230197072
2024-12-07 20:12:55.296948700,0.06194873046875,0.0472025537449866,-0.1038034888237714,-0.1570242068797349
2024-12-07 20:12:55.306961700,0.071961669921875,0.1130688183624297,-0.1985463038355112,-0.1175052664399147
2024-12-07 20:12:55.316975600,0.0819755859375,0.210359491226077,-0.3659750003516673,-0.2695867562204599
2024-12-07 20:12:55.326989600,0.091989501953125,0.1025666405051946,-0.2718482714116573,-0.0963484966427087
2024-12-07 20:12:55.337003500,0.10200341796875,-0.0354319633871316,-0.324516616281867,-0.2315577620774507
2024-12-07 20:12:55.347017500,0.112017578125,-0.0326093071818351,-0.5245470211952924,-0.5455635057389736
2024-12-07 20:12:55.357031700,0.12203173828125,0.198257550022006,-0.8477712595790624,-0.6276257028758525
2024-12-07 20:12:55.367044600,0.132044677734375,0.2636369079053401,-1.01618604452312,-0.2897632828086614
2024-12-07 20:12:55.377058600,0.14205859375,0.004875570147112,-0.9007190059125423,0.0125058458298444
2024-12-07 20:12:55.387072500,0.152072509765625,0.2409352832863107,-0.92317809047997,-0.8072329129636288
2024-12-07 20:12:55.397086700,0.162086669921875,0.599015694463253,-0.6406020888268947,-0.6759516346275806
2024-12-07 20:12:55.407100700,0.1721005859375,0.6256137785315513,0.2696335179716349,0.6848994957149028
2024-12-07 20:12:55.417114600,0.182114501953125,0.3007815569618716,0.4996867207050323,0.9088912064522504
2024-12-07 20:12:55.427127600,0.19212744140625,-0.0032815058887004,0.5608434924572706,0.8883955309122801
2024-12-07 20:12:55.437141800,0.202141845703125,-0.1091191674211993,0.4742763851165771,1.0757312894254922
2024-12-07 20:12:55.447156000,0.212156005859375,-0.0421446310346014,0.7916817080885171,1.698251778116822
2024-12-07 20:12:55.457170000,0.222169921875,0.061298792305123,1.1989502573370934,2.064106366959214
2024-12-07 20:12:55.467183900,0.232183837890625,0.2415910803139209,0.8104945451080798,2.1863684725373984
2024-12-07 20:12:55.477197800,0.24219775390625,0.6320937882006168,-0.8743453782498836,1.6751923895686864
2024-12-07 20:12:55.487212000,0.2522119140625,0.7926578596442937,-2.3582822055131194,0.9838029473125934
2024-12-07 20:12:55.497225000,0.262224853515625,0.6114058049589395,-3.542375085458159,-0.5524918436974287
2024-12-07 20:12:55.507239000,0.272239013671875,-0.0432534507930278,-3.4101340221792458,-1.2044576225817205
2024-12-07 20:12:55.517252900,0.2822529296875,-0.7492600319445133,-2.938109215381741,-1.4585004804506898
2024-12-07 20:12:55.527267000,0.29226708984375,-0.9052157328099012,-2.33480137668252,-2.235237425124645
2024-12-07 20:12:55.537281000,0.302281005859375,-0.7109376078128814,-0.3876648541122675,-2.5225384094730017
2024-12-07 20:12:55.547295000,0.312294921875,-0.3846767782121896,0.400026907557249,-2.555463066214323
2024-12-07 20:12:55.557308000,0.322307861328125,0.0956347954154014,0.399566304308176,-2.857811689829826
2024-12-07 20:12:55.567322000,0.332322021484375,0.5415636224478483,0.1114133793056011,-3.148071231722831
2024-12-07 20:12:55.577335800,0.342335693359375,0.4893541272610425,0.1719376983731985,-3.064403645215928
2024-12-07 20:12:55.587350000,0.35235009765625,0.2001718592107295,0.331226927575469,-3.1640883005440235
2024-12-07 20:12:55.597364000,0.362364013671875,-0.0170820585710462,0.3748445355057716,-2.5411232829555868
2024-12-07 20:12:55.607378000,0.3723779296875,-0.0469148959100246,-0.1604378147155046,-1.2101570032671094
2024-12-07 20:12:55.617390800,0.382390869140625,-0.222332837614417,-0.2567845577925443,-0.3374636300079524
2024-12-07 20:12:55.627405000,0.392405029296875,-0.1875824267506599,0.0229430686920881,0.0909428382068872
2024-12-07 20:12:55.637419000,0.4024189453125,-0.2098012728214263,0.1421247439116239,0.5373284690961242
2024-12-07 20:12:55.647433000,0.412432861328125,-0.1464367618918418,-0.0865618466436862,1.0682679678075016
2024-12-07 20:12:55.657447000,0.422447021484375,0.0275403424876276,-0.4474415696829557,1.343604227465391
2024-12-07 20:12:55.667460900,0.4324609375,0.5110147549271583,-1.3592495403647422,1.3668746284157036
2024-12-07 20:12:55.677475000,0.44247509765625,0.5091770181059837,-2.6681495341956616,1.028732295428589
2024-12-07 20:12:55.687487700,0.45248779296875,0.3745803316116333,-3.677048344320059,0.6756403767213225
2024-12-07 20:12:55.697502000,0.462501953125,0.0681692625964991,-3.2565742765396832,0.2924596092205494
2024-12-07 20:12:55.707516000,0.472515869140625,-0.19547113417387,-2.073739872223139,0.1760917858453467
2024-12-07 20:12:55.717530000,0.482530029296875,-0.1509153686106205,-1.1510235540360212,0.1018207540413364
2024-12-07 20:12:55.727543800,0.492543701171875,-0.0565583197797648,0.1085726029217243,-0.09592059008684
2024-12-07 20:12:55.737558000,0.50255810546875,0.2403144845068454,1.4859171874254942,-0.2281854361001402
2024-12-07 20:12:55.747571000,0.512571044921875,0.6864087312340736,2.4850837080866097,-0.3671162062760442
2024-12-07 20:12:55.757585200,0.522585205078125,0.5552151311814785,3.564223929172754,-0.5171295845456421
2024-12-07 20:12:55.767598800,0.532598876953125,0.2465127180924639,4.546196738448739,-0.4049077749339863
2024-12-07 20:12:55.777612800,0.54261279296875,0.1163444059669971,3.9912048946291208,0.118703499781154
2024-12-07 20:12:55.787627000,0.552626953125,1.1216904920458792,-0.7649474304199219,0.8779740901410579
2024-12-07 20:12:55.797641000,0.562640869140625,1.093675526916981,-3.5193045909941194,0.9112574971921742
2024-12-07 20:12:55.807654000,0.57265380859375,0.5783143402833492,-0.1848755058795213,1.3410033973172306
2024-12-07 20:12:55.817667800,0.582667724609375,0.2025835965275764,2.184670436447859,1.5285688729330895
2024-12-07 20:12:55.827682000,0.59268212890625,-0.1043791698198765,2.51964239577055,1.7362305033773182
2024-12-07 20:12:55.837695700,0.60269580078125,-0.4317618430573493,1.6323615481019018,1.519325243769586
2024-12-07 20:12:55.847710000,0.6127099609375,-0.8184932157117873,1.1244091033548116,1.1458950320411472
2024-12-07 20:12:55.857724000,0.622723876953125,-1.3306991531848906,0.6513672284692525,0.2957688981653191
2024-12-07 20:12:55.867738000,0.632738037109375,-1.6158276157997549,1.713636394253373,0.0469381671877577
2024-12-07 20:12:55.877750800,0.642750732421875,-1.3992730693258344,1.4757166959285737,-0.0186774836694821
2024-12-07 20:12:55.887765000,0.652764892578125,-1.08721663310118,0.6755179193854332,-0.2879281032707542
2024-12-07 20:12:55.897779000,0.662779052734375,-0.7185236059624701,0.2605564775466918,-0.2992095218721777
2024-12-07 20:12:55.907793200,0.672793212890625,-0.3108348585404455,-0.009136661657691,-0.2582379349386319
2024-12-07 20:12:55.917806800,0.682806884765625,-0.3851648539900779,0.0889361745595932,-0.2376179388992488
2024-12-07 20:12:55.927820800,0.69282080078125,-0.794451830388978,0.5030979904532432,-0.3313216201215982
2024-12-07 20:12:55.937834000,0.702833984375,-0.9671825788360088,0.8415420098006725,-0.7702716211173682
2024-12-07 20:12:55.947848000,0.712847900390625,-0.7945944537300617,1.211405249762535,-1.4106589712150397
2024-12-07 20:12:55.957862000,0.72286181640625,-0.4172656271278858,1.5678350076556204,-1.9327344877302648
2024-12-07 20:12:55.967875800,0.732875732421875,-0.0219979698617011,1.7434645462840794,-2.430414544788003
2024-12-07 20:12:55.977890000,0.74289013671875,0.3101215957045555,1.5529729540884494,-2.813058940389752
2024-12-07 20:12:55.987903700,0.75290380859375,0.3015221827287226,0.9691899000704288,-2.411427666375786
2024-12-07 20:12:55.997917000,0.7629169921875,-0.3246446265757083,0.3089297555714845,-1.0433576906956732
2024-12-07 20:12:56.007931000,0.772930908203125,-0.8836042049825191,0.1145049155801534,-0.0849046540211886
2024-12-07 20:12:56.017945000,0.782945068359375,-0.9746177703380584,0.085890815514326,0.064768313312903
2024-12-07 20:12:56.027958800,0.792958740234375,-0.7290589554369449,0.1409510239571333,0.0398890158612281
2024-12-07 20:12:56.037973000,0.802972900390625,-0.4111374265711754,0.1372206052571535,-0.0331799466766417
2024-12-07 20:12:56.047987000,0.812987060546875,-0.2272480091195553,-0.0463625227242708,-0.1408775203295052
2024-12-07 20:12:56.058000000,0.822999755859375,-0.2077658945363014,-0.1690641887634992,-0.1529598800502717
2024-12-07 20:12:56.068013800,0.833013916015625,-0.2923732461113482,-0.3483575105965137,-0.2234542428597807
2024-12-07 20:12:56.078028000,0.843028076171875,-0.4687890397466719,-0.3801069860786199,-0.2607733351677656
2024-12-07 20:12:56.088042000,0.8530419921875,-0.460992613716796,-0.2491846041828394,-0.2246824694804847
2024-12-07 20:12:56.098056000,0.863055908203125,-0.2965432252723723,-0.0980517934292554,-0.1530897900402545
2024-12-07 20:12:56.108070000,0.87306982421875,-0.2338275336403399,-0.0316208806663751,-0.1822360972866415
2024-12-07 20:12:56.118083800,0.883083740234375,0.4527051162343471,-0.2546872932523489,-0.1583802976638078
2024-12-07 20:12:56.128097000,0.893096923828125,1.191255611181259,-0.56740942684412,-0.0465820106938481
2024-12-07 20:12:56.138111000,0.903111083984375,-0.1157400103330612,-0.5396007979422808,-0.0510199931412935
2024-12-07 20:12:56.148125000,0.913125,-1.097843167990446,-0.5892208611577749,0.0399772056013345
2024-12-07 20:12:56.158139000,0.923138916015625,-1.1158453462142497,-0.4674719657987355,0.4085999439828097
2024-12-07 20:12:56.168153000,0.933153076171875,-0.3851567437488585,-0.0679296268880367,0.7039180844396352
2024-12-07 20:12:56.178166800,0.943166748046875,0.1778419539809227,0.1901788729846477,0.5220553505100309
2024-12-07 20:12:56.188180000,0.953179931640625,0.2791442736387252,0.2254933474719524,0.3587039864353835
2024-12-07 20:12:56.198194000,0.96319384765625,0.0852852508366107,0.0085310969799757,0.4476341696456074
2024-12-07 20:12:56.208208000,0.973207763671875,-0.1906933253128081,-0.153113170915842,0.4961389650955796
2024-12-07 20:12:56.218221800,0.983221923828125,-0.2895183681368827,-0.1365969204008579,0.6644333385303616
2024-12-07 20:12:56.228236000,0.993236083984375,-0.0797322928845882,-0.1231722061604261,0.6793633427672088
2024-12-07 20:12:56.238250000,1.00325,0.1197708732843399,-0.2555640760868787,0.5151259896382689
2024-12-07 20:12:56.248263000,1.013262939453125,0.1418236420731991,-0.3683323771327734,0.4602424529366195
2024-12-07 20:12:56.258276900,1.02327685546875,0.2078781227391213,-0.3282721694231033,0.2915155333034694
2024-12-07 20:12:56.268291000,1.033291015625,0.505312159371376,0.0143821610957384,0.1530250542409718
2024-12-07 20:12:56.278305000,1.043304931640625,0.2675766585070639,0.1424818867862224,0.2823787255153059
2024-12-07 20:12:56.288319000,1.053319091796875,0.0289396787583827,0.13605214599967,-0.0431825775139033
2024-12-07 20:12:56.298333000,1.0633330078125,0.0189549489039927,0.1109744033664464,-0.2757584305927157
2024-12-07 20:12:56.308346000,1.07334619140625,0.0571510432422161,0.003289689195156,-0.4092961095534265
2024-12-07 20:12:56.318359800,1.08335986328125,0.0598561374824494,-0.1119914714545011,-0.4720421963237226
2024-12-07 20:12:56.328374000,1.0933740234375,0.1167582474648952,-0.1598369262129068,-0.4515913828387856
2024-12-07 20:12:56.338388000,1.103387939453125,0.2196048008900135,-0.1622176838696002,-0.4215139322221279
2024-12-07 20:12:56.348402000,1.11340185546875,0.3165010676085948,-0.1717342847555875,-0.4498356252126395
2024-12-07 20:12:56.358416000,1.123415771484375,0.3704944505374878,-0.1947030724108219,-0.4884275139354169
2024-12-07 20:12:56.368429000,1.133428955078125,0.3799835058294236,-0.150304543235898,-0.4549781026676296
2024-12-07 20:12:56.378443000,1.143443115234375,0.4447520383380353,-0.0247439806342124,-0.3556729481764137
2024-12-07 20:12:56.388457000,1.15345703125,0.5244694259144366,0.1875736589223146,-0.2845021474100649
2024-12-07 20:12:56.398471000,1.163470947265625,0.5927835220754146,0.347926133441925,-0.2831761595033109
2024-12-07 20:12:56.408484900,1.17348486328125,0.5691080474555492,0.4054232136428355,-0.3108867348581552
2024-12-07 20:12:56.418499000,1.1834990234375,0.4605260921835899,0.3056681234270334,-0.308099880618602
2024-12-07 20:12:56.428511700,1.19351171875,0.3863512872956693,0.0721007750928401,-0.2935951160565018
2024-12-07 20:12:56.438526000,1.20352587890625,0.3818270878694951,-0.1691203028649091,-0.2211949196256697
2024-12-07 20:12:56.448539400,1.213539306640625,0.4364647600512951,-0.3174661132484674,-0.0582885228395462
2024-12-07 20:12:56.458553600,1.2235537109375,0.4751402354042977,-0.4177046030670404,0.1296158293418586
2024-12-07 20:12:56.468567600,1.233567626953125,0.4623683590494096,-0.4955336926788091,0.2626078571185469
2024-12-07 20:12:56.478581800,1.243581787109375,0.3930897287052124,-0.5405097294807434,0.3288029152989387
2024-12-07 20:12:56.488595500,1.253595458984375,0.2291780273340642,-0.5392945084720849,0.4837883098274469
2024-12-07 20:12:56.498608600,1.263608642578125,0.1240355449914932,-0.4789169043987989,0.6867844326786696
2024-12-07 20:12:56.508622600,1.27362255859375,0.1790926116291433,-0.3663245444417,0.8474562022805213
2024-12-07 20:12:56.518636500,1.283636474609375,0.1792447334509342,-0.189973121279478,0.8187091234847903
2024-12-07 20:12:56.528650500,1.293650390625,0.1921918202422559,-0.0372580097705125,0.6753944391362369
2024-12-07 20:12:56.538664700,1.303664794921875,0.320025734603405,0.0410942269325256,0.6151654497534036
2024-12-07 20:12:56.548678700,1.3136787109375,0.6109503162764013,0.0958411316424608,0.634198213133961
2024-12-07 20:12:56.558691600,1.323691650390625,0.8715643692292272,0.1201297697246074,0.6441847696192562
2024-12-07 20:12:56.568705500,1.33370556640625,1.0234580082874745,0.1096662433773279,0.571744679569453
2024-12-07 20:12:56.578719500,1.343719482421875,0.9924713338714092,0.066069678235054,0.4837064767628908
2024-12-07 20:12:56.588733700,1.353733642578125,0.9384580771982668,-0.0913613558799028,0.3839512404166161
2024-12-07 20:12:56.598747400,1.363747314453125,0.890534223441407,-0.1875011782079935,0.3923483357533812
2024-12-07 20:12:56.608761600,1.37376171875,0.5374138823572546,-0.1150870993822813,0.2324425820879638
2024-12-07 20:12:56.618774500,1.3837744140625,0.1572246978878974,-0.1038245316118001,-0.1754826775036752
2024-12-07 20:12:56.628788500,1.39378857421875,-0.0814845433793962,-0.0229109199881553,-0.6040352761909366
2024-12-07 20:12:56.638802400,1.403802490234375,-0.3097252898633479,0.1853922232300043,-0.9272317497849464
2024-12-07 20:12:56.648816600,1.413816650390625,-0.4946002112209796,0.3614332652688026,-1.095769284325838
2024-12-07 20:12:56.658830600,1.42383056640625,-0.6230069570340215,0.4627811776340007,-1.3827877984710035
2024-12-07 20:12:56.668844500,1.433844482421875,-0.7410323018252849,0.5215308882445097,-1.5089619629263875
2024-12-07 20:12:56.678857500,1.443857421875,-0.7764112198509275,0.49178340023458,-1.3510041284583507
2024-12-07 20:12:56.688871700,1.45387158203125,-0.7671335422873496,0.3128349463164806,-0.9391359764598308
2024-12-07 20:12:56.698885600,1.4638857421875,-0.4941186382491141,-0.0001525602132081,-0.3425323115743696
2024-12-07 20:12:56.708899600,1.473899658203125,0.0730406862914562,-0.2826046432256698,0.2039760737992823
2024-12-07 20:12:56.718913500,1.48391357421875,0.5874222873032092,-0.4212023820549249,0.7184564590103923
2024-12-07 20:12:56.728927500,1.493927490234375,0.9904968919932842,-0.5867892500966787,1.073044096168131
2024-12-07 20:12:56.738940400,1.5039404296875,1.2147547063209116,-0.7055489005118608,1.1752638229317962
2024-12-07 20:12:56.748954600,1.51395458984375,1.2391922513544558,-0.7085182717114686,1.1456783936157822
2024-12-07 20:12:56.758968600,1.523968505859375,1.1236871457558124,-0.6080763682752848,1.0860336338616907
2024-12-07 20:12:56.768982500,1.533982421875,0.8262672837793826,-0.3704705582052469,0.9244840585120022
2024-12-07 20:12:56.778996500,1.54399658203125,0.4210766367834061,-0.1492448050498962,0.5506747112728655
2024-12-07 20:12:56.789010400,1.554010498046875,-0.0081564915139228,-0.0127449152827262,0.1243223991088569
2024-12-07 20:12:56.799023600,1.564023681640625,-0.4741770163953304,0.056933016577363,-0.157563136062026
2024-12-07 20:12:56.809037600,1.57403759765625,-0.8135081938408315,0.0817377874881029,-0.3118029729202389
2024-12-07 20:12:56.819051500,1.584051513671875,-0.8376641454540192,-0.0018377368211746,-0.4569298212572932
2024-12-07 20:12:56.829065500,1.5940654296875,-0.6269606630958616,-0.0664578007698059,-0.4921621704190969
2024-12-07 20:12:56.839079700,1.60407958984375,-0.3006055793404579,-0.1247609366565942,-0.4487207958385348
2024-12-07 20:12:56.849093600,1.61409375,0.0064461073994636,-0.1410597450286149,-0.3296035641573369
2024-12-07 20:12:56.859106600,1.6241064453125,0.1991432468153536,-0.1895446667343377,-0.1912296972118318
2024-12-07 20:12:56.869120500,1.63412060546875,0.25851313515082,-0.2411842530786991,-0.0394210330232977
2024-12-07 20:12:56.879134700,1.644134765625,0.2088882496297359,-0.276690450745821,0.0810647105321288
2024-12-07 20:12:56.889148400,1.6541484375,0.0479106289491057,-0.2392553308427333,0.2579636845745146
2024-12-07 20:12:56.899162600,1.66416259765625,-0.1150257245838642,-0.200284671935439,0.3662177230663597
2024-12-07 20:12:56.909176600,1.674176513671875,-0.2815723775684833,-0.1763882480412721,0.4065162695765495
2024-12-07 20:12:56.919190500,1.6841904296875,-0.4280057784594595,-0.1679769780486822,0.5181120197117328
2024-12-07 20:12:56.929203500,1.694203369140625,-0.5279227812387048,-0.2138654535204172,0.6280597103789448
2024-12-07 20:12:56.939217700,1.7042177734375,-0.6067910046398639,-0.3174041539281606,0.6663532006770372
2024-12-07 20:12:56.949231600,1.714231689453125,-0.582922637796402,-0.3479910153716802,0.6320012876115739
2024-12-07 20:12:56.959245600,1.72424560546875,-0.5084101253867149,-0.2814519660592079,0.6097080611303448
2024-12-07 20:12:56.969259500,1.734259521484375,-0.4251823916018009,-0.1509632994055748,0.6333040407732129
2024-12-07 20:12:56.979273500,1.7442734375,-0.4125530655227601,-0.0660357759654522,0.6348891180075704
2024-12-07 20:12:56.989286700,1.75428662109375,-0.5428069005072117,-0.0003811082720756,0.6037311786778271
2024-12-07 20:12:56.999300400,1.76430029296875,-0.8126412017479538,0.0266933611363172,0.5712535350516438
2024-12-07 20:12:57.009314600,1.774314453125,-1.1947006370685993,-0.0289192204922437,0.6018139468796551
2024-12-07 20:12:57.019328500,1.78432861328125,-1.4521861827373503,-0.075042089241743,0.7670897031456232
2024-12-07 20:12:57.029342700,1.7943427734375,-1.4375953473269938,-0.031951135534048,1.070662607859075
2024-12-07 20:12:57.039356400,1.8043564453125,-1.0866986736416815,0.0828121387213468,1.3151007481671868
2024-12-07 20:12:57.049369600,1.81436962890625,-0.6722378748014569,0.1205471183538436,1.2361772874474524
2024-12-07 20:12:57.059383600,1.824383544921875,-0.469889109943062,0.0658101505160331,1.0669641917325556
2024-12-07 20:12:57.069397800,1.834397705078125,-0.4040061864517629,0.0268961902320384,0.9837306127287448
2024-12-07 20:12:57.079411500,1.844411376953125,-0.4982717393405735,-0.1039502038180828,0.6943520183887332
2024-12-07 20:12:57.089425700,1.85442578125,-0.5776804993592203,-0.2266080307155847,0.3778185828804969
2024-12-07 20:12:57.099439600,1.864439697265625,-0.5873663193322718,-0.2952782468378543,0.2225339862097054
2024-12-07 20:12:57.109452500,1.87445263671875,-0.4783144084610045,-0.3118687316328287,0.1477740749102085
2024-12-07 20:12:57.119466500,1.884466552734375,-0.2722038068510591,-0.2589116329491138,0.1211273293945938
2024-12-07 20:12:57.129480700,1.894480712890625,-0.0382718629881739,-0.1881020667105913,0.1120103222854435
2024-12-07 20:12:57.139494700,1.90449462890625,0.1172210426710546,-0.0797358000159263,0.1774860532153397
2024-12-07 20:12:57.149508400,1.91450830078125,0.1572775971189141,0.0236275438249111,0.2625362531870603
2024-12-07 20:12:57.159522600,1.9245224609375,0.1129509641364216,0.1034971993535757,0.3593651537578552
2024-12-07 20:12:57.169535700,1.93453564453125,0.1108490234211087,0.1923135469257831,0.4997638045292347
2024-12-07 20:12:57.179549400,1.944549560546875,0.1830935908988118,0.3341939606875181,0.6761009069051593
2024-12-07 20:12:57.189563400,1.9545634765625,0.30117051974684,0.5281365701198577,0.9462489502701908
2024-12-07 20:12:57.199577600,1.96457763671875,0.5088892872057855,0.8529127141207457,1.3411068576917051
2024-12-07 20:12:57.209591600,1.974591552734375,0.7633633760988712,1.1884148347973822,1.7383716070592403
2024-12-07 20:12:57.219605800,1.984605712890625,0.9347413947626948,1.425849379953742,1.9902537797629831
2024-12-07 20:12:57.229618400,1.994618408203125,0.9054441347382962,1.5682114397525786,2.136769013718516
2024-12-07 20:12:57.239632600,2.004632568359375,0.6306336525201797,1.6081594192594288,2.241724156795442
2024-12-07 20:12:57.249646600,2.014646484375,0.205740014731884,1.389936355051398,1.855856415233016
2024-12-07 20:12:57.259660500,2.02466064453125,-0.3161635062173009,1.0800000527858733,1.1680492884431033
2024-12-07 20:12:57.269674500,2.034674560546875,-0.8667430865526199,0.8042080121845007,0.3437435139950364
2024-12-07 20:12:57.279688700,2.044688720703125,-1.4006490338541566,0.461506919914484,-0.5856173567730933
2024-12-07 20:12:57.289701400,2.054701416015625,-1.7345653466440736,0.2196411143124103,-1.4327400162503123
2024-12-07 20:12:57.299715600,2.064715576171875,-1.79693792392686,0.1278425360590219,-1.947866882671416
2024-12-07 20:12:57.309729500,2.0747294921875,-1.5407719364240764,0.1828214959591627,-1.8464175557583569
2024-12-07 20:12:57.319743700,2.08474365234375,-1.0252855890408157,0.2478893036752939,-1.0017643551345914
2024-12-07 20:12:57.329757400,2.09475732421875,-0.4148530130282044,0.1604173564493656,-0.0034388153422623
2024-12-07 20:12:57.339771400,2.104771484375,-0.087031363851577,0.0251151520341634,0.7904271779827773
2024-12-07 20:12:57.349784600,2.11478466796875,0.0053882689096033,-0.1606184319794178,1.3187912732481957
2024-12-07 20:12:57.359798800,2.124798828125,0.0355284094989299,-0.3832639888048171,1.40048872872591
2024-12-07 20:12:57.369812500,2.1348125,-0.0111748894870281,-0.5455839640051127,1.3122982579670843
2024-12-07 20:12:57.379826400,2.144826416015625,-0.1144844573140144,-0.6784639097094536,1.1097232831373811
2024-12-07 20:12:57.389840600,2.154840576171875,-0.2942857286691665,-0.6772720695763826,0.8711397871416061
2024-12-07 20:12:57.399854600,2.1648544921875,-0.509984973488003,-0.530316252246499,0.5978565144907683
2024-12-07 20:12:57.409868500,2.17486865234375,-0.7224120647683739,-0.2184071886032819,0.4427139566391706
2024-12-07 20:12:57.419881500,2.184881591796875,-0.8702234760142862,0.1900730745226144,0.3411734443113207
2024-12-07 20:12:57.429895700,2.194895751953125,-0.9802090144738554,0.5198392818957567,0.3020462796680629
2024-12-07 20:12:57.439909400,2.204909423828125,-1.0158780745524914,0.7702069583833218,0.2433630584225058
2024-12-07 20:12:57.449923800,2.214923828125,-0.92374924143143,0.9534943182885648,0.1536019042808562
2024-12-07 20:12:57.459937800,2.224937744140625,-0.8281108658194541,1.071251513662934,-0.027060660078749
2024-12-07 20:12:57.469951700,2.23495166015625,-0.8161329163212329,1.1044389129936694,-0.2261257270913571
2024-12-07 20:12:57.479964700,2.244964599609375,-0.9373241777975112,1.1045102246642111,-0.4771024753879755
2024-12-07 20:12:57.489979000,2.254978759765625,-1.1894786646366118,0.9848077404409646,-0.7190728373430669
2024-12-07 20:12:57.499992800,2.264992919921875,-1.4000269564330576,0.7457733588725328,-0.8351722555730492
2024-12-07 20:12:57.510006800,2.2750068359375,-1.4542285022199153,0.4485679433643817,-0.8286995524276047
2024-12-07 20:12:57.520020700,2.285020751953125,-1.2111866385757923,0.2137093861758708,-0.7562188381064683
2024-12-07 20:12:57.530034700,2.29503466796875,-0.7597147904634475,0.086955814397335,-0.689225834481418
2024-12-07 20:12:57.540047600,2.305047607421875,-0.3414776879549026,0.0902647928148508,-0.6418488740175962
2024-12-07 20:12:57.550061800,2.315061767578125,-0.0761953326637856,0.1535211671948433,-0.6370344594731927
2024-12-07 20:12:57.560075800,2.32507568359375,0.0695370255520567,0.2655161457806825,-0.5848771328650415
2024-12-07 20:12:57.570089700,2.33508984375,0.235229107533954,0.3910083193212747,-0.6190387840554118
2024-12-07 20:12:57.580103700,2.345103759765625,0.4700941309958696,0.4568967957705259,-0.6900535174772143
2024-12-07 20:12:57.590117600,2.35511767578125,0.7281740623611956,0.4677279863864183,-0.7747678365580737
2024-12-07 20:12:57.600130800,2.365130859375,0.8630437205780297,0.3976782986044883,-0.8191193117208778
2024-12-07 20:12:57.610144800,2.375144775390625,0.944536593394354,0.352955944302678,-0.6684075028583407
2024-12-07 20:12:57.620158700,2.38515869140625,1.0744150922603906,0.459227869066596,-0.2045446674674749
2024-12-07 20:12:57.630172700,2.395172607421875,1.253306701424718,0.6980348716199397,0.2777250544905662
2024-12-07 20:12:57.640187000,2.405186767578125,1.328095838818699,0.965972107067704,0.4312126116767525
2024-12-07 20:12:57.650200800,2.415200927734375,1.3752882364958523,1.0228466714560984,0.2307106437288224
2024-12-07 20:12:57.660213800,2.4252138671875,1.4059886413164435,0.9536059619694948,-0.1373154439337551
2024-12-07 20:12:57.670227700,2.435227783203125,1.2433031938046215,0.8603490016013383,-0.3352265186056494
2024-12-07 20:12:57.680242000,2.445241943359375,1.2133528766989707,0.5856728132873773,-0.4971494573123752
2024-12-07 20:12:57.690255600,2.455255615234375,1.2257272051036356,0.1883113255470991,-0.4374963681213557
2024-12-07 20:12:57.700269800,2.465269775390625,1.155107462348789,-0.2257517061471939,-0.3645475978970527
2024-12-07 20:12:57.710283800,2.47528369140625,1.105929005420953,-0.5798802013605833,-0.4068240203514695
2024-12-07 20:12:57.720296700,2.485296630859375,1.1658074278004469,-0.8674024272441864,-0.6749509331524371
2024-12-07 20:12:57.730310700,2.495310546875,1.354567520028353,-1.022674237498641,-1.0546315105125308
2024-12-07 20:12:57.740324600,2.50532470703125,1.5662119364984333,-1.0748574292004107,-1.358195939658582
2024-12-07 20:12:57.750338800,2.5153388671875,1.701022558004409,-1.0229121379077435,-1.58004245506078
2024-12-07 20:12:57.760352800,2.525352783203125,1.716803333851695,-0.9385293888688088,-1.7462258276909588
2024-12-07 20:12:57.770366700,2.53536669921875,1.598571945094317,-0.7978028213173151,-1.9123519171759484
2024-12-07 20:12:57.780379600,2.545379638671875,1.45895246200189,-0.6641437079340219,-1.9838892131671308
2024-12-07 20:12:57.790393900,2.555393798828125,1.231334085199982,-0.5355635052502155,-1.981882257258892
2024-12-07 20:12:57.800407600,2.565407470703125,0.940465763758868,-0.3986100264966488,-1.9735969517335288
2024-12-07 20:12:57.810421800,2.575421875,0.6578530833572149,-0.2870528548061847,-1.919745242297649
2024-12-07 20:12:57.820435700,2.585435791015625,0.426467170715332,-0.1949462335169315,-1.803753595291078
2024-12-07 20:12:57.830450000,2.595449951171875,0.1872239687018096,-0.1154179387718439,-1.703689877517521
2024-12-07 20:12:57.840462600,2.605462646484375,-0.0712251613020896,-0.0667255117952823,-1.561632938145101
2024-12-07 20:12:57.850476800,2.615476806640625,-0.3051560822516679,-0.0438911641746759,-1.3193857320100069
2024-12-07 20:12:57.860490800,2.62549072265625,-0.431046753590554,-0.0185158998996019,-1.0394316032931208
2024-12-07 20:12:57.870505000,2.6355048828125,-0.3794550980411469,-0.0125561147123575,-0.7679846061587333
2024-12-07 20:12:57.880518700,2.6455185546875,-0.2730551629833876,-0.0474134930819273,-0.4986205527782439
2024-12-07 20:12:57.890532600,2.65553271484375,-0.1983865832291543,-0.1629308005750179,-0.2550944127485156
2024-12-07 20:12:57.900546800,2.665546875,-0.1308253512620925,-0.2910463083565235,0.043855508339405
2024-12-07 20:12:57.910559700,2.675559814453125,-0.0161624686412513,-0.4053542400598526,0.2145870457932353
2024-12-07 20:12:57.920573700,2.68557373046875,-0.0482509668193757,-0.4421732738912105,0.2031479524120688
2024-12-07 20:12:57.930587600,2.695587646484375,-0.2153431248575449,-0.4218547084838152,0.0326832492008805
2024-12-07 20:12:57.940601900,2.705601806640625,-0.3171374658159911,-0.414611313226819,-0.2912587820634246
2024-12-07 20:12:57.950615600,2.715615478515625,-0.3374770740114152,-0.506544916036725,-0.8074661371976136
2024-12-07 20:12:57.960629800,2.725629638671875,-0.3428272028677165,-0.5667115077078342,-1.109441835847497
2024-12-07 20:12:57.970642700,2.735642578125,-0.3764408647865057,-0.5806149453759193,-1.1716817266613244
2024-12-07 20:12:57.980656600,2.74565673828125,-0.4014011185199022,-0.5794102457612753,-1.1144468045279383
2024-12-07 20:12:57.990670600,2.755670654296875,-0.4750438623577356,-0.5545891082376241,-0.8867775743216275
2024-12-07 20:12:58.000684800,2.765684814453125,-0.4973673378467559,-0.4895359135687351,-0.4586918624937534
2024-12-07 20:12:58.010698800,2.77569873046875,-0.4603710477523505,-0.4276572572827339,0.1245274201616644
2024-12-07 20:12:58.020713000,2.785712890625,-0.4028868270330131,-0.4139741843670606,0.7758212911337614
2024-12-07 20:12:58.030725600,2.7957255859375,-0.4145779954791069,-0.453916318655014,1.3200780981883409
2024-12-07 20:12:58.040739800,2.80573974609375,-0.3815063314825296,-0.5108610256701708,1.6872893623366951
2024-12-07 20:12:58.050753800,2.81575390625,-0.3678137600861489,-0.4552221405565738,1.82054427883327
2024-12-07 20:12:58.060767700,2.825767822265625,-0.3011718349210918,-0.3086842563778161,1.673380663971603
2024-12-07 20:12:58.070781700,2.83578173828125,-0.1731482432067394,-0.1852355713635683,1.2482695840403435
2024-12-07 20:12:58.080795600,2.845795654296875,-0.0831703045092523,-0.0711959352076053,0.629390958982706
2024-12-07 20:12:58.090808600,2.85580859375,-0.1384106918245554,-0.0237865337789058,0.0893646291047334
2024-12-07 20:12:58.100822800,2.86582275390625,-0.2649088275372981,-0.0471171404838562,-0.173900522878766
2024-12-07 20:12:58.110836700,2.875836669921875,-0.4264147098757326,-0.2183206793636083,-0.1755629031330347
2024-12-07 20:12:58.120850700,2.8858505859375,-0.5345283169835806,-0.529945080846548,-0.0640036856159567
2024-12-07 20:12:58.130864600,2.89586474609375,-0.6515069292008876,-0.8280237720578908,-0.0731999685063958
2024-12-07 20:12:58.140878600,2.905878662109375,-0.5438806672185659,-1.047516417810321,-0.1872787676289677
2024-12-07 20:12:58.150891800,2.915891845703125,-0.3624791210599243,-1.144352990230918,-0.3540399401471019
2024-12-07 20:12:58.160905700,2.92590576171875,-0.3879122530020773,-1.1689812355309723,-0.4601888230532407
2024-12-07 20:12:58.170919700,2.935919677734375,-0.2632237970598042,-1.165990237021446,-0.3671472590014338
2024-12-07 20:12:58.180933600,2.94593359375,-0.0479657201372087,-1.1512760674923657,-0.3746253397971391
2024-12-07 20:12:58.190947800,2.95594775390625,0.1236417233683168,-1.0480430720329283,-0.6101745095983148
2024-12-07 20:12:58.200961800,2.9659619140625,0.1971564569123089,-0.8855565080940723,-0.9548030627995728
2024-12-07 20:12:58.210974700,2.975974609375,0.2424778000205755,-0.8119646176606417,-1.1228060520723462
2024-12-07 20:12:58.220988700,2.98598876953125,0.1689138205073773,-0.8537403971165418,-0.9692425070405006
2024-12-07 20:12:58.231003000,2.9960029296875,0.0103606504946947,-0.9492132799685,-0.749659844917059
2024-12-07 20:12:58.241016600,3.0060166015625,0.0099731124818325,-0.7943231625080108,-0.767410897924006
2024-12-07 20:12:58.251030800,3.01603076171875,0.1838316228497773,-0.2715367212444544,-0.7981058959171176
2024-12-07 20:12:58.261044700,3.026044677734375,0.2849731259226798,0.5481617055386304,-0.812562583553791
2024-12-07 20:12:58.271058000,3.036057861328125,0.2929518497169017,1.6839409286916256,-0.8478340956822037
2024-12-07 20:12:58.281071600,3.046071533203125,-0.1752033491056412,2.9030332258254288,-0.7811568069428205
2024-12-07 20:12:58.291085800,3.0560859375,-0.9116775492351502,4.033111022466421,-0.4282581457853317
2024-12-07 20:12:58.301099800,3.066099853515625,-1.352418233039975,4.8848669677674765,0.210594469025731
2024-12-07 20:12:58.311113700,3.07611376953125,-1.7019366041094064,5.396663228461146,0.8514888187974691
2024-12-07 20:12:58.321127700,3.086127685546875,-2.0405244158416984,5.413872721937299,1.2550213963881134
2024-12-07 20:12:58.331140900,3.096140869140625,-1.6526549790680407,4.21241486569345,1.314834644576907
2024-12-07 20:12:58.341154800,3.10615478515625,-0.5009943692374974,1.760841797542572,0.7404542096763849
2024-12-07 20:12:58.351168500,3.11616845703125,0.6997579690854996,-0.3210574157387018,-0.3799871590912342
2024-12-07 20:12:58.361182700,3.1261826171875,1.2981453755825758,-1.7816659743845462,-1.5058824093505738
2024-12-07 20:12:58.371196700,3.13619677734375,1.250965691256523,-2.887991139516234,-2.5014956214442847
2024-12-07 20:12:58.381211000,3.1462109375,0.8259137211013585,-3.4716292321056126,-3.167939423014224
2024-12-07 20:12:58.391224600,3.156224609375,0.5256523520886898,-3.334302243864536,-3.179773945453763
2024-12-07 20:12:58.401237800,3.16623779296875,0.6281073489129543,-2.5846190180718898,-2.468525079734623
2024-12-07 20:12:58.411251700,3.176251708984375,1.019319154917076,-1.58137545723021,-1.253864043046534
2024-12-07 20:12:58.421266000,3.186265869140625,1.3554168303340672,-0.6909037045657634,-0.0597197246864438
2024-12-07 20:12:58.431279600,3.196279541015625,1.4325655364662409,0.1005313352853059,0.9722320442453026
2024-12-07 20:12:58.441293800,3.2062939453125,1.141062716513872,0.7685124294251203,1.6381310714140531
2024-12-07 20:12:58.451307300,3.216307373046875,0.5387117401480674,1.1514485014498232,1.8398630195483563
2024-12-07 20:12:58.461320400,3.226320556640625,-0.0258229349773377,1.210339081835747,1.720314849103987
2024-12-07 20:12:58.471334100,3.236334228515625,-0.3598930500894785,0.976450246462226,1.3271131113916634
2024-12-07 20:12:58.481348400,3.246348388671875,-0.4932277538239956,0.659225540754199,0.5377615998163819
2024-12-07 20:12:58.491362300,3.2563623046875,-0.4403074800193309,0.2493178751736879,-0.3032356355831027
2024-12-07 20:12:58.501376500,3.26637646484375,-0.3469961225828156,-0.2187280911207199,-0.8448001348137855
2024-12-07 20:12:58.511390200,3.27639013671875,-0.3093436336020007,-0.5926163488149643,-1.0113064557880165
2024-12-07 20:12:58.521403400,3.2864033203125,-0.163902275955677,-0.7210872459053993,-0.8877984418019652
2024-12-07 20:12:58.531417300,3.296417236328125,0.0996674484649673,-0.5251344656944275,-0.6728054455563426
2024-12-07 20:12:58.541431600,3.306431640625,0.3018027167031541,-0.2265735439240932,-0.4589277170762419
2024-12-07 20:12:58.551445200,3.3164453125,0.5447463806698098,0.0456079049646854,-0.1981985133111476
2024-12-07 20:12:58.561459200,3.326459228515625,0.6018325054496526,0.2456307110935449,0.044612756447494
2024-12-07 20:12:58.571473400,3.336473388671875,0.4815274156907573,0.2965682866483927,0.1834407969012856
2024-12-07 20:12:58.581486300,3.346486328125,0.4237134880930185,0.3045709758400917,0.2044230869144201
2024-12-07 20:12:58.591500300,3.356500244140625,0.2721113062620163,0.2842056486815214,0.0723477355912327
2024-12-07 20:12:58.601514200,3.36651416015625,-0.0721381844937801,0.1759855124592781,-0.2983604307621717
2024-12-07 20:12:58.611528400,3.376528564453125,-0.3813718914479017,0.038954292294383,-0.7165794130921364
2024-12-07 20:12:58.621542100,3.386542236328125,-0.4614321011126041,-0.0557844310641288,-0.9500894782811404
2024-12-07 20:12:58.631556400,3.396556396484375,-0.4310954150378703,-0.1130710833847522,-1.0126055556878446
2024-12-07 20:12:58.641569300,3.4065693359375,-0.2480348313595168,-0.1530436128109693,-0.9315230172380804
2024-12-07 20:12:58.651583500,3.41658349609375,0.064904159853328,-0.1626753645092248,-0.8184571945503354
2024-12-07 20:12:58.661597200,3.42659716796875,0.4161129499614238,-0.0883580824106931,-0.6282204538986087
2024-12-07 20:12:58.671611400,3.436611328125,0.553304329124093,0.068096800148487,-0.5278031003817916
2024-12-07 20:12:58.681625300,3.446625244140625,0.4581652082711458,0.1847983489900827,-0.4622779042869806
2024-12-07 20:12:58.691639300,3.456639404296875,0.3729752345025539,0.2170277169436216,-0.3859074890509247
2024-12-07 20:12:58.701652200,3.46665234375,0.2847749730020761,0.0846416922360658,-0.3838526023477315
2024-12-07 20:12:58.711666400,3.47666650390625,0.1391641405403614,-0.0871376007050275,-0.3468099888935685
2024-12-07 20:12:58.721680400,3.486680419921875,0.027439795589447,-0.1822644465982913,-0.3079176559194922
2024-12-07 20:12:58.731694300,3.4966943359375,-0.0269347686767578,-0.0983849709063768,-0.3543170035228133
2024-12-07 20:12:58.741708300,3.506708251953125,-0.122308867329359,-0.0142120652258396,-0.4345929017648101
2024-12-07 20:12:58.751722200,3.51672216796875,-0.1965057379186153,0.0420201096057891,-0.5281999907448888
2024-12-07 20:12:58.761736400,3.526736328125,-0.1581950042247772,0.0587754295736551,-0.6037208034142851
2024-12-07 20:12:58.771749400,3.536749267578125,-0.0248211466568056,0.0180219789028167,-0.6494876983329654
2024-12-07 20:12:58.781763300,3.546763427734375,0.0855786808252334,0.008972411006689,-0.7288602179944514
2024-12-07 20:12:58.791777300,3.55677734375,0.1598398670886643,0.0102671269923448,-0.769096659053862
2024-12-07 20:12:58.801791500,3.56679150390625,0.1978711810529232,-0.1300175420105457,-0.7992144416809082
2024-12-07 20:12:58.811805200,3.57680517578125,0.32355975394845,-0.1798427724093198,-0.8004188490346074
2024-12-07 20:12:58.821819400,3.5868193359375,0.3882885389685631,-0.1695896739423275,-0.7292974403679371
2024-12-07 20:12:58.831832300,3.596832275390625,0.5494692810058593,-0.2264326741486787,-0.629763883948326
2024-12-07 20:12:58.841846300,3.60684619140625,0.7462801393508911,-0.1884258918374776,-0.6017775603920221
2024-12-07 20:12:58.851860200,3.616860107421875,0.817346310698986,-0.1211012451052665,-0.5762500281646847
2024-12-07 20:12:58.861874400,3.62687451171875,0.8596984287381172,0.0074134911268949,-0.5652469881132245
2024-12-07 20:12:58.871888400,3.636888427734375,0.8499006728231906,0.1563338865280151,-0.611091624443233
2024-12-07 20:12:58.881902300,3.64690234375,0.839191062760353,0.2183013901412487,-0.6283464183658362
2024-12-07 20:12:58.891915300,3.656915283203125,0.8623603414237498,0.3381032430857419,-0.5513195850476622
2024-12-07 20:12:58.901929500,3.666929443359375,0.7917910136818885,0.3348404418975114,-0.4553165408417582
2024-12-07 20:12:58.911943400,3.676943359375,0.7739397151708602,0.2353840423673391,-0.262973183299601
2024-12-07 20:12:58.921957400,3.686957275390625,0.9206792594015598,0.0346042803913354,-0.084799805407226
2024-12-07 20:12:58.931971300,3.696971435546875,1.0580161845147609,-0.0963619406461715,0.0142030051365494
2024-12-07 20:12:58.941985300,3.7069853515625,1.237535716319084,-0.2237035414457321,0.1896887513801455
2024-12-07 20:12:58.951998200,3.716998291015625,1.3975859930217265,-0.1986386582940816,0.3316457375094294
2024-12-07 20:12:58.962012400,3.727012451171875,1.2749065388143062,-0.0777647922039032,0.4675169739842414
2024-12-07 20:12:58.972026400,3.7370263671875,0.881116479820013,0.0192582426995038,0.5813035121619701
2024-12-07 20:12:58.982040300,3.747040283203125,0.50552149127312,0.1101543191552162,0.708990419267863
2024-12-07 20:12:58.992054300,3.75705419921875,0.2464788523554801,0.1569073025017976,0.7507007322721183
2024-12-07 20:12:59.002068200,3.767068115234375,0.0314531228840351,0.1567921516895294,0.6452962379924952
2024-12-07 20:12:59.012081400,3.777081298828125,-0.2040145791787654,0.0719978992402553,0.3372011796794831
2024-12-07 20:12:59.022095000,3.78709521484375,-0.3662369392234831,0.0254196879386901,-0.0480820399932563
2024-12-07 20:12:59.032109300,3.797109375,-0.4299497521340846,-0.0373188000470399,-0.3546130638599395
2024-12-07 20:12:59.042123300,3.807123291015625,-0.3058114043552428,0.00794482152462,-0.4794344985321164
2024-12-07 20:12:59.052137500,3.817137451171875,-0.0757703304510563,0.2418973697841167,-0.4393371736824512
2024-12-07 20:12:59.062151400,3.8271513671875,0.0534357490461319,0.3376695278435945,-0.4105601381398737
2024-12-07 20:12:59.072164400,3.837164306640625,-0.0348865313988178,0.2251759520858526,-0.3471687392033636
2024-12-07 20:12:59.082178300,3.84717822265625,-0.1929717916388064,-0.0205886145204305,-0.2236243387296795
2024-12-07 20:12:59.092192500,3.857192626953125,-0.0985867040235549,-0.2390817278414964,-0.1209217968851327
2024-12-07 20:12:59.102206200,3.867206298828125,-0.0689958678800612,-0.370522580653429,-0.0647363838046789
2024-12-07 20:12:59.112220200,3.87722021484375,-0.0029682021558284,-0.3726420570254325,0.0503784803673625
2024-12-07 20:12:59.122234400,3.887234375,0.1493981689807027,-0.3417114967107773,0.2890289771847427
2024-12-07 20:12:59.132248300,3.897248291015625,0.2535387077391147,-0.3385954105168581,0.5368609977148473
2024-12-07 20:12:59.142261200,3.90726123046875,0.3896328662496059,-0.3545493509739637,0.7499801629126072
2024-12-07 20:12:59.152275200,3.917275146484375,0.4863724811017513,-0.3358814753830432,0.9016063101410864
2024-12-07 20:12:59.162289400,3.927289306640625,0.5404126988470555,-0.3338338952034712,0.9322165524601936
2024-12-07 20:12:59.172303400,3.937303466796875,0.5065420664925128,-0.3990402346074581,0.8495948217444121
2024-12-07 20:12:59.182317300,3.9473173828125,0.4197882774733006,-0.4763140284240245,0.771784290702641
2024-12-07 20:12:59.192331300,3.957331298828125,0.3547919275581837,-0.5451420654565096,0.6693092740036547
2024-12-07 20:12:59.202344400,3.967344482421875,0.3531576043546199,-0.4850345104962587,0.5465455025136471
2024-12-07 20:12:59.212358100,3.977358154296875,0.3741407711505889,-0.3174941702991724,0.4273508216820657
2024-12-07 20:12:59.222372400,3.987372314453125,0.3532568269453942,-0.1030921256840229,0.2651968506984412
2024-12-07 20:12:59.232386300,3.99738623046875,0.2133176834445446,0.0512304210215806,0.1017715446047484
2024-12-07 20:12:59.242400500,4.007400390625,0.0137232587955892,0.0677875880688428,-0.0698316611170768
2024-12-07 20:12:59.252414200,4.017414306640625,-0.1112637417018413,-0.0010638298392295,-0.1730000669077038
2024-12-07 20:12:59.262427400,4.027427490234375,-0.1698841268442571,-0.0543242953836917,-0.2152535468779504
2024-12-07 20:12:59.272441300,4.03744140625,-0.1859527797222137,-0.0471294154435396,-0.2475529113277793
2024-12-07 20:12:59.282455300,4.047455322265625,-0.1993208684045821,-0.0732458534747362,-0.2894264520697295
2024-12-07 20:12:59.292469200,4.05746923828125,-0.2117873320721089,-0.1764858631968498,-0.334720030388236
2024-12-07 20:12:59.302483200,4.067483154296875,-0.1998538793027401,-0.283361599072814,-0.3997736634485423
2024-12-07 20:12:59.312497400,4.077497314453125,-0.1452934370756149,-0.3011521073073148,-0.3694116968020796
2024-12-07 20:12:59.322510300,4.08751025390625,-0.1141220537424087,-0.2058855606824159,-0.2358228721760213
2024-12-07 20:12:59.332524300,4.097524169921875,-0.1441596107400953,-0.0687199004828929,-0.0160639767028391
2024-12-07 20:12:59.342538200,4.107538330078125,-0.2254279540855437,0.0567395398318767,0.1685124000996351
2024-12-07 20:12:59.352552400,4.117552490234375,-0.2698867620803415,0.0401952322661876,0.0983329484581947
2024-12-07 20:12:59.362566100,4.127566162109375,-0.3360125544168055,0.0406347927272319,0.0081830141946673
2024-12-07 20:12:59.372580400,4.137580322265625,-0.4377531193614006,0.216238027870655,0.0319055428266525
2024-12-07 20:12:59.382593300,4.14759326171875,-0.5364319586478173,0.3594394611030816,-0.054417965016514
2024-12-07 20:12:59.392607200,4.157607177734375,-0.6582638561151921,0.4558475789785385,-0.1231425416745245
2024-12-07 20:12:59.402621200,4.16762109375,-0.7048435287214815,0.473150011435151,-0.0749143712088465
2024-12-07 20:12:59.412635400,4.177635498046875,-0.7341079093895853,0.2837088050752878,-0.0234853588752448
2024-12-07 20:12:59.422649300,4.1876494140625,-0.7389208626292646,-0.0117599958986043,0.071652592933923
2024-12-07 20:12:59.432663300,4.197663330078125,-0.6391817006349563,-0.306634922632575,0.1579088807597756
2024-12-07 20:12:59.442676200,4.20767626953125,-0.4234896162092685,-0.458750314682722,0.2744024859391152
2024-12-07 20:12:59.452691000,4.21769091796875,-0.2253856493137776,-0.4592302071541547,0.4390272309504449
2024-12-07 20:12:59.462705000,4.227704833984375,-0.063123834041506,-0.3534785068720579,0.5803589247882366
2024-12-07 20:12:59.472718600,4.237718505859375,0.0592787029206752,-0.2703074717104435,0.64385129988119
2024-12-07 20:12:59.482732800,4.24773291015625,0.1201448211632668,-0.2208358770549297,0.5674526814639568
2024-12-07 20:12:59.492746800,4.257746826171875,0.1038075804769992,-0.1240910745710134,0.585002074418962
2024-12-07 20:12:59.502761000,4.267760986328125,0.0757715725600719,-0.1787169832497835,0.5793925639741122
2024-12-07 20:12:59.512773600,4.277773681640625,0.0652300125405192,-0.2819517322748899,0.6840130682691932
2024-12-07 20:12:59.522787800,4.287787841796875,0.0184158005259931,-0.4962900640040635,0.5816568556442856
2024-12-07 20:12:59.532801800,4.2978017578125,-0.0192681795716285,-0.6529770017534494,0.4069106757216155
2024-12-07 20:12:59.542816000,4.30781591796875,0.0065897536538541,-0.6818769330233335,0.4214158786751329
2024-12-07 20:12:59.552829700,4.31782958984375,0.095104049539566,-0.539238394370675,0.5136174847714603
2024-12-07 20:12:59.562844000,4.327843994140625,0.1903365477643906,-0.3052303165316581,0.6150180041067301
2024-12-07 20:12:59.572856800,4.33785693359375,0.2622610895074904,-0.0350648836404085,0.7338743928946554
2024-12-07 20:12:59.582870800,4.347870849609375,0.2775369845725596,0.1862006170034408,0.7882628395557403
2024-12-07 20:12:59.592884700,4.357884765625,0.2564180625677109,0.3270861745089292,0.8145411901503801
2024-12-07 20:12:59.602899000,4.36789892578125,0.1730580807052552,0.3670166183590889,0.906072057378292
2024-12-07 20:12:59.612913000,4.377912841796875,0.116690589056164,0.363344067326188,1.0362256468586624
2024-12-07 20:12:59.622926600,4.387926513671875,0.1112882916212081,0.3693237262576818,1.1684756240963936
2024-12-07 20:12:59.632939800,4.397939697265625,0.1336066525436937,0.3867950855404138,1.2254837517365813
2024-12-07 20:12:59.642954000,4.4079541015625,0.1753250027239322,0.4395604610443115,1.294325232772529
2024-12-07 20:12:59.652968000,4.417968017578125,0.2267253734849393,0.5312392123103141,1.354921155771613
2024-12-07 20:12:59.662981600,4.427981689453125,0.2155645125232636,0.6476017384558915,1.2246345875613391
2024-12-07 20:12:59.672995800,4.437995849609375,0.1640342317722737,0.7672825953692197,1.037878674762696
2024-12-07 20:12:59.683009800,4.448009765625,-0.0030396599568426,0.8071814750373363,0.7239914429143071
2024-12-07 20:12:59.693022700,4.458022705078125,-0.2028352332010865,0.7875140670150518,0.1814350100368261
2024-12-07 20:12:59.703036700,4.46803662109375,-0.3715618605732917,0.7278928342670202,-0.4119280654922127
2024-12-07 20:12:59.713051000,4.47805078125,-0.459032054233551,0.5859913777172565,-0.9636075698934496
2024-12-07 20:12:59.723064800,4.48806494140625,-0.4804302315711974,0.3519067275106907,-1.4038263487160203
2024-12-07 20:12:59.733078800,4.498078857421875,-0.447095094332844,0.1513192732363939,-1.6505105143852532
2024-12-07 20:12:59.743092700,4.5080927734375,-0.3348234907627105,0.0257440975874662,-1.430386000470072
2024-12-07 20:12:59.753107000,4.51810693359375,-0.1726642590820789,-0.1203787760496139,-1.0340079708091914
2024-12-07 20:12:59.763119900,4.528119873046875,-0.0403670817017555,-0.255502116766572,-0.6302903920404612
2024-12-07 20:12:59.773133800,4.5381337890625,0.0792483087599277,-0.2823182274997234,-0.1851468701668083
2024-12-07 20:12:59.783147800,4.548147705078125,0.1955389387130737,-0.3079536040157079,0.0562102552607655
2024-12-07 20:12:59.793162000,4.558161865234375,0.274229467459768,-0.2739355990797281,0.2783401176489889
2024-12-07 20:12:59.803176000,4.568176025390625,0.3130335376285016,-0.2321323470950126,0.4134238570079207
2024-12-07 20:12:59.813189600,4.578189697265625,0.2974931464083493,-0.2058370453655719,0.4263911098044365
2024-12-07 20:12:59.823202800,4.588202880859375,0.2034578951440751,-0.2025263133823871,0.3453385281015187
2024-12-07 20:12:59.833217000,4.598217041015625,0.1333981243595481,-0.237387198883295,0.2074495951287448
2024-12-07 20:12:59.843230700,4.608230712890625,0.0334381592214107,-0.2485965751618147,0.0395366222269833
2024-12-07 20:12:59.853244700,4.61824462890625,-0.0577707825757563,-0.1867418842732906,-0.0643331367660313
2024-12-07 20:12:59.863259000,4.6282587890625,-0.0635049423135817,-0.1376432145833969,-0.1656382329028099
2024-12-07 20:12:59.873272800,4.63827294921875,-0.0800904586724936,-0.0646212329924106,-0.236569964216277
2024-12-07 20:12:59.883285800,4.64828564453125,-0.1412030990220606,-0.0172498254865407,-0.2267367716617882
2024-12-07 20:12:59.893299700,4.6582998046875,-0.2276527174629271,-0.0212970550507307,-0.1931748399302363
2024-12-07 20:12:59.903314000,4.66831396484375,-0.2391701367773115,-0.0788666159659624,-0.1667312888365238
2024-12-07 20:12:59.913327900,4.678327880859375,-0.219966108483076,-0.1752665505349636,-0.1501638926561921
2024-12-07 20:12:59.923341800,4.688341796875,-0.1484521933674812,-0.2358370468318462,-0.0336607889961451
2024-12-07 20:12:59.933355800,4.698355712890625,-0.0697265933074057,-0.2946674214631319,0.0341477687954902
2024-12-07 20:12:59.943369000,4.708368896484375,-0.0345674555122852,-0.3524146770328283,0.1414049052044749
2024-12-07 20:12:59.953382700,4.718382568359375,-0.0129214408934116,-0.3651110769987106,0.2074509833682328
2024-12-07 20:12:59.963396900,4.72839697265625,-0.0206862296760082,-0.3445604564011096,0.260214459175989
2024-12-07 20:12:59.973410800,4.738410888671875,-0.0265467922724783,-0.2850970445632934,0.3297876885525882
2024-12-07 20:12:59.983425000,4.748425048828125,0.0026947920419275,-0.17038696179986,0.3889936915632337
2024-12-07 20:12:59.993438700,4.758438720703125,0.0430114587306976,-0.0525824201524257,0.4471347687561064
2024-12-07 20:13:00.003452700,4.76845263671875,0.0849319073542952,0.0074041387766599,0.4024734239265322
2024-12-07 20:13:00.013465900,4.7784658203125,0.0373263988316059,0.0077957684427499,0.3069813249174505
2024-12-07 20:13:00.023480000,4.78847998046875,-0.1155364505849778,-0.0427624524056911,0.2086157162986695
2024-12-07 20:13:00.033493800,4.79849365234375,-0.309922858262062,-0.1302086806684732,0.1174253330715
2024-12-07 20:13:00.043507700,4.8085078125,-0.4572761504769325,-0.2208405532300472,0.023062603418529
2024-12-07 20:13:00.053522000,4.81852197265625,-0.5096517960108816,-0.2681324657589197,-0.048208442851901
2024-12-07 20:13:00.063535900,4.828535888671875,-0.5526537562608719,-0.2846796959340572,-0.1073436456486582
2024-12-07 20:13:00.073548800,4.838548828125,-0.5346201599854976,-0.3392605964273214,-0.1421234287373721
2024-12-07 20:13:00.083562800,4.848562744140625,-0.4437854583282023,-0.3570803307563066,-0.1688453583810478
2024-12-07 20:13:00.093577000,4.858576904296875,-0.4271335256695747,-0.3506792315423488,-0.1351142806276679
2024-12-07 20:13:00.103590700,4.868590576171875,-0.5153659358739853,-0.3067027271717786,-0.0112957393877208
2024-12-07 20:13:00.113604900,4.87860498046875,-0.6515349131863564,-0.1223515374273061,0.1172705809012055
2024-12-07 20:13:00.123618800,4.888618896484375,-0.8153460767924785,0.181981538003683,0.1073522673465311
2024-12-07 20:13:00.133631700,4.8986318359375,-1.057665544446185,0.6000958909153938,0.07101940959692
2024-12-07 20:13:00.143645700,4.908645751953125,-1.2414040821850298,0.9114239398002624,0.0726826666340231
2024-12-07 20:13:00.153660000,4.918659912109375,-1.307210725569725,0.9591647651404142,0.04959507490471
2024-12-07 20:13:00.163673900,4.928673828125,-1.1751274832010268,0.8857575836241245,0.230538940423727
2024-12-07 20:13:00.173687800,4.938687744140625,-0.7525286783516406,0.8157838836878538,0.4377035811312496
2024-12-07 20:13:00.183701800,4.94870166015625,-0.2950912180994637,0.7303478262037039,0.3721938748665154
2024-12-07 20:13:00.193715000,4.95871484375,0.0275473293508403,0.7356529468744992,0.1967186500169336
2024-12-07 20:13:00.203729000,4.96872900390625,0.1167675998151302,0.8606161281049252,0.0462771825283765
2024-12-07 20:13:00.213742800,4.978742919921875,-0.0031219291295274,1.0761638356238603,-0.0330894919142127
2024-12-07 20:13:00.223756800,4.9887568359375,-0.1204220306694507,1.2537485999733209,-0.0976109177939593
2024-12-07 20:13:00.233770800,4.998770751953125,-0.2018821519936434,1.3141209433495995,-0.2533143974639475
2024-12-07 20:13:00.243785000,5.008784912109375,-0.238946082230471,1.328662094399333,-0.368509341134876
2024-12-07 20:13:00.253798700,5.018798583984375,-0.2532382634878158,1.2873708835899829,-0.4994128721997141
2024-12-07 20:13:00.263811800,5.028811767578125,-0.0312554814200848,1.262155193790793,-0.5254752419561147
2024-12-07 20:13:00.273825800,5.03882568359375,0.3969967460811138,1.2530869211941955,-0.4922229606956243
2024-12-07 20:13:00.283839700,5.04883984375,1.0269541798401622,1.1557044053286314,-0.2887827473387122
2024-12-07 20:13:00.293853700,5.058853759765625,1.6666123388804497,1.070759930753708,-0.013310440210998
2024-12-07 20:13:00.303868000,5.068867919921875,1.639534216210246,0.7856903587192297,-0.1606175551965832
2024-12-07 20:13:00.313881900,5.0788818359375,1.1283687277007848,0.8106687326312064,-0.0813075793772935
2024-12-07 20:13:00.323894800,5.088894775390625,0.4684907874524593,1.0751689793676138,-0.0223281516641378
2024-12-07 20:13:00.333908700,5.09890869140625,-0.0003455255020409,1.4057558554738758,-0.0164943309441208
2024-12-07 20:13:00.343923000,5.1089228515625,-0.0432897642154246,1.5805863526791333,-0.1219715981990098
2024-12-07 20:13:00.353937000,5.11893701171875,0.0846972948808223,1.456478326973319,-0.4463505595758557
2024-12-07 20:13:00.363950800,5.128950927734375,0.4470745630014687,1.1645137347280978,-0.7296086982741952
2024-12-07 20:13:00.373964800,5.13896484375,0.9349738152790814,0.7837900780558585,-0.7882020492792129
2024-12-07 20:13:00.383978000,5.14897802734375,1.1798580188542604,0.3122054162412881,-0.7849944854095577
2024-12-07 20:13:00.393991700,5.15899169921875,1.1019740572500971,-0.3059060238361358,-1.025074284377694
2024-12-07 20:13:00.404006000,5.169005859375,0.8605513923056424,-0.8100345263808966,-1.385924781322479
2024-12-07 20:13:00.414019800,5.179019775390625,0.7258417469561099,-1.1088351021260023,-1.625880661650002
2024-12-07 20:13:00.424033800,5.18903369140625,0.7885288700807839,-1.2741671186238526,-1.6192606589883565
2024-12-07 20:13:00.434048000,5.199048095703125,0.8913714049179107,-1.3062661381959917,-1.5910606926813722
2024-12-07 20:13:00.444061000,5.20906103515625,0.995835403477028,-1.2601818478912117,-1.5539686871275304
2024-12-07 20:13:00.454075400,5.219075439453125,1.0760136134982108,-1.2541384760737415,-1.5666484282195567
2024-12-07 20:13:00.464089000,5.229089111328125,1.0773116904847324,-1.182324116706848,-1.5258905936345455
2024-12-07 20:13:00.474103300,5.239103271484375,0.999543391149491,-1.17786304564476,-1.5282506007641552
2024-12-07 20:13:00.484117200,5.2491171875,0.8350218142516911,-1.154427224999666,-1.5509715511381623
2024-12-07 20:13:00.494131200,5.259131103515625,0.7116859419621526,-1.142944876998663,-1.4590014157101512
2024-12-07 20:13:00.504145200,5.269145263671875,0.5753565864562988,-1.09168113822937,-1.4840814964309337
2024-12-07 20:13:00.514158300,5.279158447265625,0.3698147246450186,-0.9733844291508196,-1.4974752310112118
2024-12-07 20:13:00.524172300,5.28917236328125,0.1096855325996875,-0.8349877658516168,-1.3707321806266903
2024-12-07 20:13:00.534186200,5.299186279296875,-0.1172382860668003,-0.7245271572262049,-1.1408549189820885
2024-12-07 20:13:00.544200200,5.3092001953125,-0.3320066797763109,-0.5678109933823347,-0.888507466854155
2024-12-07 20:13:00.554214100,5.319214111328125,-0.4347070296637713,-0.4835673605531453,-0.47458793528378
2024-12-07 20:13:00.564228400,5.329228271484375,-0.4002385044813156,-0.4245487698733806,-0.0002943067714571
2024-12-07 20:13:00.574241300,5.3392412109375,-0.3598036182403564,-0.278413621276617,0.4482154766649007
2024-12-07 20:13:00.584255200,5.349255126953125,-0.3613111001938581,-0.1423515384048223,0.8130427682861685
2024-12-07 20:13:00.594269200,5.359269287109375,-0.3620195407241582,-0.0626695144027471,1.0673442770913242
2024-12-07 20:13:00.604283400,5.369283447265625,-0.3073626523852348,-0.1308791272759437,1.21456692866385
2024-12-07 20:13:00.614297000,5.379297119140625,-0.2864735936135053,-0.3638976095557212,1.2593252310618757
2024-12-07 20:13:00.624311300,5.389311279296875,-0.2621830558352172,-0.6408873355090617,1.135281210502982
2024-12-07 20:13:00.634324200,5.39932421875,-0.2155364554725587,-0.9936731839418412,0.6768269561573863
2024-12-07 20:13:00.644338200,5.409338134765625,-0.1460486393570899,-1.4087988764315842,0.1483285669878125
2024-12-07 20:13:00.654352100,5.41935205078125,-0.1368885968238115,-1.7096160526961086,-0.1723702445715665
2024-12-07 20:13:00.664366300,5.429366455078125,-0.106353757828474,-1.8095353935629128,-0.26212650334239
2024-12-07 20:13:00.674380300,5.43938037109375,-0.0538387038238346,-1.716059237486124,-0.2219756947398185
2024-12-07 20:13:00.684394200,5.449394287109375,0.0044411973178386,-1.3860212274342774,-0.1451312322512269
2024-12-07 20:13:00.694407200,5.4594072265625,-0.0842165986917913,-0.9103846598803996,-0.0771212336033582
2024-12-07 20:13:00.704421400,5.46942138671875,-0.27534955753088,-0.4438917682468891,0.1361407010659575
2024-12-07 20:13:00.714435300,5.479435302734375,-0.4425039671503007,-0.0995662896454334,0.531642240153253
2024-12-07 20:13:00.724449300,5.48944921875,-0.5724199484825134,0.0866939485907554,1.0616513261467218
2024-12-07 20:13:00.734463200,5.499463134765625,-0.849519564551115,0.2119423765033483,1.596180519913137
2024-12-07 20:13:00.744477200,5.509477294921875,-1.122172138082981,0.2344967381387948,2.019384304918349
2024-12-07 20:13:00.754490000,5.519489990234375,-1.1880810727983713,0.1749327885359525,2.1958602312430737
2024-12-07 20:13:00.764504300,5.52950439453125,-1.0094447535693645,0.116518008968234,1.9398963421836493
2024-12-07 20:13:00.774518300,5.539518310546875,-0.7356506087869406,-0.0815507404834032,1.2698664988204835
2024-12-07 20:13:00.784532200,5.5495322265625,-0.4684878648430108,-0.3916331732213497,0.5440475482180714
2024-12-07 20:13:00.794546200,5.559546142578125,-0.3213905932158231,-0.6334066243648528,-0.0392214187979698
2024-12-07 20:13:00.804560100,5.56956005859375,-0.4067027320593595,-0.7797749971956014,-0.5288116929024458
2024-12-07 20:13:00.814574300,5.57957421875,-0.5557147512666881,-0.8635638719946146,-0.8628697522506117
2024-12-07 20:13:00.824587300,5.589587158203125,-0.6757714557550847,-0.8488391810715198,-1.075328846104443
2024-12-07 20:13:00.834601200,5.599601318359375,-0.7635947006367146,-0.7833978638678789,-1.142305702312291
2024-12-07 20:13:00.844615200,5.609615234375,-0.7286338618926703,-0.7267460023194551,-1.000385248801112
2024-12-07 20:13:00.854629400,5.61962939453125,-0.3656779171012341,-0.7081196277827024,-0.8043333921298385
2024-12-07 20:13:00.864643300,5.629643310546875,0.069927376576513,-0.6084066231429577,-0.6075766020596027
2024-12-07 20:13:00.874657300,5.6396572265625,0.4258293112032115,-0.3708364689081907,-0.4169441400885582
2024-12-07 20:13:00.884670200,5.649670166015625,0.6330798766285181,0.0160989018857479,-0.3666781801849603
2024-12-07 20:13:00.894684400,5.659684326171875,0.7273712946109473,0.6307552330732346,-0.5222086413756013
2024-12-07 20:13:00.904698000,5.669697998046875,0.4657276063494384,1.4839765747517346,-0.8976073036327957
2024-12-07 20:13:00.914712000,5.679712158203125,-0.399569080787152,2.3112059815615416,-1.136564236050844
2024-12-07 20:13:00.924726300,5.689726318359375,-1.44341163239032,2.683321968886256,-0.7771785509616136
2024-12-07 20:13:00.934740200,5.699740234375,-1.7065484818190335,2.6724463546067474,0.1207514087542891
2024-12-07 20:13:00.944753200,5.709753173828125,-0.8709639191180467,2.632849088233709,0.9919064665302634
2024-12-07 20:13:00.954767000,5.71976708984375,-0.2426210078835487,2.638988321641087,1.2569918196782468
2024-12-07 20:13:00.964781300,5.72978125,-0.6647433543276041,2.5286171448647976,0.8033592864006758
2024-12-07 20:13:00.974795300,5.739795166015625,-0.6782735017038881,2.0223107137590643,0.2230041610047221
2024-12-07 20:13:00.984809200,5.749809326171875,-0.3072833035387098,1.0104793573141098,-0.4137979510173201
2024-12-07 20:13:00.994823200,5.7598232421875,-0.0997971757918596,-0.1952875943005085,-0.8847273637935519
2024-12-07 20:13:01.004837400,5.76983740234375,-0.0504207120738923,-1.18675946880579,-1.208182780584693
2024-12-07 20:13:01.014850000,5.77985009765625,-0.1005862072777003,-1.8001695993244646,-1.525309871137142
2024-12-07 20:13:01.024864300,5.7898642578125,-0.1108897207576781,-1.867426441517472,-1.7392022126644848
2024-12-07 20:13:01.034878200,5.799878173828125,-0.000352466699481,-1.5467489650070667,-1.7501845021888611
2024-12-07 20:13:01.044892400,5.809892333984375,0.2330178977578878,-1.0821411564677954,-1.6397312000870703
2024-12-07 20:13:01.054906000,5.819906005859375,0.4138613716423511,-0.698883012881875,-1.3585530825331806
2024-12-07 20:13:01.064920000,5.829920166015625,0.4710966591019183,-0.4931587802410125,-0.9011834085538984
2024-12-07 20:13:01.074933200,5.839933349609375,0.4463158535886555,-0.3901303674429655,-0.3151844320520758
2024-12-07 20:13:01.084947500,5.849947509765625,0.34614509524405,-0.1770499268203973,0.2256216500267386
2024-12-07 20:13:01.094961200,5.859961181640625,0.270154473105818,0.1893149496316909,0.6927645300015807
2024-12-07 20:13:01.104975000,5.86997509765625,0.2471055328864604,0.4839169046431779,0.9910422509163618
2024-12-07 20:13:01.114989300,5.8799892578125,0.3169739458173513,0.5841466266334057,1.0778700550198554
2024-12-07 20:13:01.125003300,5.890003173828125,0.4177501957744359,0.593577302801609,0.936078196324408
2024-12-07 20:13:01.135016200,5.90001611328125,0.4330781498203054,0.5499895054876804,0.5245175028398633
2024-12-07 20:13:01.145030100,5.910030029296875,0.2336234989682212,0.4912970780223608,-0.0825303991705179
2024-12-07 20:13:01.155044400,5.92004443359375,-0.0986579060962423,0.2769587462931871,-0.6224155670121312
2024-12-07 20:13:01.165058000,5.93005810546875,-0.2182219682294875,-0.0766384185224771,-0.8980185147821903
2024-12-07 20:13:01.175072300,5.940072265625,-0.1279068699995055,-0.3019336130738258,-1.0078519314199683
2024-12-07 20:13:01.185086200,5.950086181640625,-0.0511936326751485,-0.4097036674410104,-1.04564331741482
2024-12-07 20:13:01.195100400,5.960100341796875,0.0524684383839368,-0.4299316319555044,-1.0047121720895171
2024-12-07 20:13:01.205113000,5.970113037109375,0.0571983895152807,-0.351467751571536,-0.9313537981510162
2024-12-07 20:13:01.215127300,5.980127197265625,-0.1003997813275083,-0.1420569393724203,-0.8324167463198303
2024-12-07 20:13:01.225141200,5.990141357421875,-0.1799976707100868,-0.0098766663700342,-0.6064890990838409
2024-12-07 20:13:01.235155500,6.000155517578125,-0.1033253864506259,0.0237514624655246,-0.3965671224921941
2024-12-07 20:13:01.245169200,6.010169189453125,0.0553858054016716,0.0503489620119333,-0.2054454156994819
2024-12-07 20:13:01.255183000,6.02018310546875,0.1519236871366389,0.0100181206673383,-0.096191260254383
2024-12-07 20:13:01.265196300,6.0301962890625,0.1376730434660799,0.0781096601188182,-0.0355775093376636
2024-12-07 20:13:01.275210200,6.040210205078125,0.1115326217710971,0.1277203709840774,0.0080015201479196
2024-12-07 20:13:01.285224200,6.05022412109375,0.2116425167739391,0.0726069710493087,0.0351765273213386
2024-12-07 20:13:01.295238100,6.060238037109375,0.3075304101675749,0.0069482117027044,0.005307751019299
2024-12-07 20:13:01.305252400,6.07025244140625,0.3157160547107458,-0.009793079739809,-0.0556529136389493
2024-12-07 20:13:01.315266000,6.08026611328125,0.3803916482388973,-0.0661456660807132,-0.1516010127872228
2024-12-07 20:13:01.325279200,6.090279296875,0.5894160914689303,-0.09955401468575,-0.2802946127176284
2024-12-07 20:13:01.335293200,6.100293212890625,0.6415326476752757,-0.1502846694916486,-0.4904366618007421
2024-12-07 20:13:01.345307400,6.110307373046875,0.5188555315554142,-0.1106891566842794,-0.7044169738724827
2024-12-07 20:13:01.355321000,6.120321044921875,0.5038333189904689,-0.1235866321802139,-0.8662149710252881
2024-12-07 20:13:01.365335300,6.130335205078125,0.5749181950390339,-0.1157481936395168,-1.019822062937915
2024-12-07 20:13:01.375349200,6.140349365234375,0.7821955023407936,-0.0721007750928401,-1.0735647590413688
2024-12-07 20:13:01.385362200,6.150362060546875,1.0114800587892532,0.0832499456167221,-1.090448089303076
2024-12-07 20:13:01.395376000,6.160376220703125,1.137275014668703,0.2337830369114875,-1.0975792563572526
2024-12-07 20:13:01.405390300,6.170390380859375,1.2080536012470722,0.2508306178241968,-1.0479752674937248
2024-12-07 20:13:01.415404300,6.180404296875,1.3383762636840342,0.2371650805652141,-0.9641182958945632
2024-12-07 20:13:01.425418200,6.190418212890625,1.4476047001659869,0.2240308737039565,-0.8987190642669797
2024-12-07 20:13:01.435432200,6.20043212890625,1.5270844795942309,0.1940039842307567,-0.7900947311580181
2024-12-07 20:13:01.445446100,6.210446044921875,1.5929869845688345,0.1423141290038824,-0.6664081457346678
2024-12-07 20:13:01.455458800,6.220458740234375,1.602704076462984,0.0791810887426137,-0.5948062600746751
2024-12-07 20:13:01.465473000,6.23047314453125,1.6229519147217273,0.0410147319555282,-0.5255880546808243
2024-12-07 20:13:01.475487000,6.240487060546875,1.6098142007291316,0.0442599974870681,-0.4804778701052069
2024-12-07 20:13:01.485501000,6.2505009765625,1.5355483565568924,0.0876747763216495,-0.4082923393383622
2024-12-07 20:13:01.495515000,6.260514892578125,1.409357094836235,0.1638549296826124,-0.2880254992306232
2024-12-07 20:13:01.505528800,6.27052880859375,1.200136836773157,0.2594020468145608,-0.2070683407261967
2024-12-07 20:13:01.515542000,6.2805419921875,0.8441454702973366,0.270116333052516,-0.1802262187689542
2024-12-07 20:13:01.525556000,6.290555908203125,0.5275742235293611,0.1836515170425176,-0.2189841117084026
2024-12-07 20:13:01.535570000,6.30056982421875,0.3397755602121353,0.0896855316221714,-0.2248994732320308
2024-12-07 20:13:01.545583900,6.310583984375,0.1725625522732734,0.048150575184822,-0.1846609863460064
2024-12-07 20:13:01.555598000,6.32059814453125,0.0621931290626525,0.0586041646599769,-0.0817848415002226
2024-12-07 20:13:01.565611800,6.33061181640625,0.003301452698186,0.1194499707669019,0.025445991423726
2024-12-07 20:13:01.575625000,6.340625,-0.0307154562592506,0.1372387254357338,0.0675055562570691
2024-12-07 20:13:01.585639000,6.350638916015625,-0.0628944822650402,0.1119704286664724,0.0837210702598094
2024-12-07 20:13:01.595653000,6.360653076171875,0.008649754923582,0.092688805091381,0.0974210943102836
2024-12-07 20:13:01.605666800,6.370666748046875,0.1412017838478088,-0.0306955825150012,0.0863724615514278
2024-12-07 20:13:01.615681000,6.380680908203125,0.0521942976176738,-0.1937999860912561,0.0679042001858353
2024-12-07 20:13:01.625695000,6.390695068359375,0.1222574294030666,-0.3338175285905599,0.0146595167323946
2024-12-07 20:13:01.635709000,6.400708984375,0.3629845132987946,-0.4570540321588516,-0.0374742828696966
2024-12-07 20:13:01.645721900,6.410721923828125,0.5545581285774708,-0.5039753578096627,-0.0135813661068677
2024-12-07 20:13:01.655736000,6.420736083984375,0.7401379833340644,-0.4930202485531568,0.0463785970762372
2024-12-07 20:13:01.665750000,6.43075,0.8650841403644531,-0.407479561650753,0.145664316214621
2024-12-07 20:13:01.675764000,6.440763916015625,0.9001870909929275,-0.2872662052959203,0.2044093506500124
2024-12-07 20:13:01.685778000,6.45077783203125,0.8754232366144656,-0.1518079335361719,0.2496957685753703
2024-12-07 20:13:01.695791900,6.4607919921875,0.7881843674920499,-0.0424701914608478,0.3007970102593302
2024-12-07 20:13:01.705805000,6.47080517578125,0.6816004541695118,-0.0004763853400945,0.3406643257454037
2024-12-07 20:13:01.715819000,6.480819091796875,0.5569545952599495,-0.0484369909107685,0.3211459708049893
2024-12-07 20:13:01.725833000,6.4908330078125,0.3814963946104049,-0.13901742554605,0.2709568755298853
2024-12-07 20:13:01.735847000,6.500846923828125,0.2736790670353919,-0.2388373976916074,0.2247436981484293
2024-12-07 20:13:01.745861000,6.510861083984375,0.233345814538002,-0.3146124773830175,0.1132525774314999
2024-12-07 20:13:01.755874800,6.520874755859375,0.1425380008876323,-0.3198497935146093,-0.0017559037566184
2024-12-07 20:13:01.765888000,6.530887939453125,-0.155274732863903,-0.2788081735521555,-0.1420095930993556
2024-12-07 20:13:01.775902000,6.54090185546875,-0.3859831846356392,-0.1416542037904262,-0.2103232508689165
2024-12-07 20:13:01.785916000,6.550916015625,-0.4633996017932891,-0.0270002351284027,-0.2363765605360269
2024-12-07 20:13:01.795929900,6.560929931640625,-0.3955260890066623,-0.0359264689058065,-0.2018564512968063
2024-12-07 20:13:01.805944000,6.570944091796875,-0.2715654358822852,-0.0761848295360803,-0.0426988856501877
2024-12-07 20:13:01.815958000,6.5809580078125,-0.1270575231611728,-0.0977776526629924,0.1253016194045543
2024-12-07 20:13:01.825972000,6.590971923828125,-0.0658277592379599,-0.1600590445309877,0.2105626125827431
2024-12-07 20:13:01.835985000,6.60098486328125,-0.0825881207071244,-0.249409060588479,0.2553036715850234
2024-12-07 20:13:01.845999000,6.6109990234375,-0.199168673517555,-0.3583604336947202,0.3038904462300241
2024-12-07 20:13:01.856013000,6.621012939453125,-0.3297473565421998,-0.3940513402789831,0.5269559820331633
2024-12-07 20:13:01.866026800,6.63102685546875,-0.3853706056952476,-0.3491530448883772,0.7724611670508981
2024-12-07 20:13:01.876041000,6.641041015625,-0.4738249880872666,-0.3856295488923787,0.9514644198961556
2024-12-07 20:13:01.886055000,6.651054931640625,-0.4718192012228071,-0.4066419417828321,1.1197621543318033
2024-12-07 20:13:01.896067800,6.66106787109375,-0.4116251370228826,-0.449591441193223,1.2439037900462746
2024-12-07 20:13:01.906081800,6.671081787109375,-0.3325648981809616,-0.4973375272303819,1.2956744554243982
2024-12-07 20:13:01.916096000,6.681095947265625,-0.3309166925825178,-0.5246931516677141,1.2508978867173195
2024-12-07 20:13:01.926110000,6.69110986328125,-0.4327041654087603,-0.5011743289142847,1.1776133086673914
2024-12-07 20:13:01.936124000,6.7011240234375,-0.5512826140381395,-0.3571650864303112,1.0161363601624964
2024-12-07 20:13:01.946137900,6.711137939453125,-0.6790275349415839,-0.0457663103967905,0.7188743921615183
2024-12-07 20:13:01.956151000,6.721151123046875,-0.8840412812255323,0.1930494599848985,0.3233040256217122
2024-12-07 20:13:01.966164700,6.731164794921875,-1.0948365335203707,0.3522060027182102,0.1054414652891457
2024-12-07 20:13:01.976179000,6.741178955078125,-1.1696192411735653,0.4572533541232347,0.1854265638910233
2024-12-07 20:13:01.986193000,6.75119287109375,-0.952227074831724,0.3591840250372886,0.6412919707871974
2024-12-07 20:13:01.996207000,6.76120703125,-0.4022564201749861,0.2423766777336597,1.2950161376461389
2024-12-07 20:13:02.006221000,6.771220947265625,0.2630124923966825,0.2687041281670332,1.8542255991607903
2024-12-07 20:13:02.016234000,6.78123388671875,0.7909633306860924,0.2899234418064356,2.1754557411178945
2024-12-07 20:13:02.026248000,6.791248046875,0.982655969234556,0.0509305612921714,2.1686286715768275
2024-12-07 20:13:02.036262100,6.80126220703125,0.9065373368024824,-0.3993213896363973,1.8571024697713552
2024-12-07 20:13:02.046275800,6.81127587890625,0.7898818190596997,-0.7472130362868309,1.5286645883925258
2024-12-07 20:13:02.056289800,6.821289794921875,0.7137702008903026,-0.7463105344891547,1.199023322573304
2024-12-07 20:13:02.066304000,6.831303955078125,0.5714893896341323,-0.5569371326684951,0.6328432913936675
2024-12-07 20:13:02.076318000,6.84131787109375,0.3192024355217814,-0.4006774804204702,-0.1550645972445607
2024-12-07 20:13:02.086331000,6.851330810546875,0.0697732089281082,-0.2875982137292623,-0.994607542182505
2024-12-07 20:13:02.096344800,6.8613447265625,-0.1722694145455956,-0.168518245318532,-1.8251247384913265
2024-12-07 20:13:02.106359000,6.871359130859375,-0.4589816392205655,0.013784195202589,-2.4673347009062767
2024-12-07 20:13:02.116373000,6.881373046875,-0.7142576921463012,0.300512055838108,-2.674256911160052
2024-12-07 20:13:02.126387000,6.891386962890625,-0.7019511682808399,0.5777566333353519,-2.278692097578197
2024-12-07 20:13:02.136401000,6.90140087890625,-0.4841209027826785,0.5962438916623592,-1.5365649862535298
2024-12-07 20:13:02.146414000,6.9114140625,-0.2567594233512878,0.4874199443280697,-0.8570183958739042
2024-12-07 20:13:02.156427800,6.921427734375,-0.0646235710799694,0.3513233746647834,-0.3698912970125675
2024-12-07 20:13:02.166442000,6.93144189453125,0.1885597473502159,0.1853191579937934,-0.0218359842330217
2024-12-07 20:13:02.176456000,6.9414560546875,0.4279435268782079,0.0695960987955331,0.2417160218678414
2024-12-07 20:13:02.186470100,6.95147021484375,0.5293687422633171,-0.0038005613267421,0.3890609846457838
2024-12-07 20:13:02.196483800,6.96148388671875,0.4879224870227277,0.081038114786148,0.4364445209808647
2024-12-07 20:13:02.206497000,6.9714970703125,0.2924211038410663,0.3051771250396967,0.4575060137100517
2024-12-07 20:13:02.216511000,6.981510986328125,-0.0106501349605619,0.6462877332478761,0.4862494392439723
2024-12-07 20:13:02.226525000,6.99152490234375,-0.3996609968543052,0.980698551556468,0.5026156137637794
2024-12-07 20:13:02.236539000,7.001538818359375,-0.8073335968591272,1.1878174534261223,0.4530721229158341
2024-12-07 20:13:02.246552800,7.011552734375,-1.058915179181099,1.2193535784184932,0.4437507523410022
2024-12-07 20:13:02.256567000,7.021567138671875,-1.1823439904510975,1.1361381195932625,0.5746124900907278
2024-12-07 20:13:02.266581000,7.0315810546875,-1.21891650217548,0.9309855493605136,0.8070432356104255
2024-12-07 20:13:02.276594000,7.041593994140625,-1.0695030625604092,0.673908730623126,0.9326068669520318
2024-12-07 20:13:02.286608000,7.05160791015625,-0.8238824344694614,0.3933820627152919,0.8434249009378254
2024-12-07 20:13:02.296622000,7.0616220703125,-0.6183271286547184,0.1010959834307432,0.7490257847972214
2024-12-07 20:13:02.306635800,7.0716357421875,-0.5192798944473266,-0.1200800853639841,0.6967167747586965
2024-12-07 20:13:02.316650000,7.08164990234375,-0.4500106164533645,-0.2933645221710205,0.655077773424983
2024-12-07 20:13:02.326664000,7.091663818359375,-0.3465034802276641,-0.4140022414177656,0.5835463226526976
2024-12-07 20:13:02.336676900,7.1016767578125,-0.2258684643946588,-0.4945844291299581,0.4893922673143446
2024-12-07 20:13:02.346690800,7.11169091796875,-0.1653613156575709,-0.5785176808357239,0.3912745690420269
2024-12-07 20:13:02.356705000,7.121705078125,-0.1220107611656188,-0.735606769645214,0.308460676755011
2024-12-07 20:13:02.366719000,7.131718994140625,-0.0170948541205376,-1.0311258395016192,0.3199053230941295
2024-12-07 20:13:02.376733000,7.14173291015625,0.1053566365499049,-1.1483674865692852,0.5044624106742441
2024-12-07 20:13:02.386747000,7.151746826171875,0.2504664606869221,-0.9543746082544328,0.7674028607480228
2024-12-07 20:13:02.396760800,7.1617607421875,0.3062439505536109,-0.5518301649183035,0.9447902028292416
2024-12-07 20:13:02.406774000,7.17177392578125,0.1928910545527934,-0.1377116036444902,0.980458751451224
2024-12-07 20:13:02.416788000,7.1817880859375,-0.0601683817693963,0.221665313616395,0.9711702602326868
2024-12-07 20:13:02.426802000,7.191802001953125,-0.3124807260513305,0.454727635037899,0.8237230061240494
2024-12-07 20:13:02.436816000,7.20181591796875,-0.6842763953804969,0.5862544125676155,0.5114288886860012
2024-12-07 20:13:02.446830000,7.211830078125,-1.153696572637558,0.6190618726700544,0.065466305514425
2024-12-07 20:13:02.456843300,7.22184326171875,-1.5275205329239367,0.5946417171627283,-0.3665392101056873
2024-12-07 20:13:02.466856400,7.2318564453125,-1.9321511348843567,0.5975690027862787,-0.4759752979889511
2024-12-07 20:13:02.476870700,7.24187060546875,-2.164624842762947,0.654980742791295,-0.2357698268145322
2024-12-07 20:13:02.486884400,7.25188427734375,-1.5813187586069106,0.6849474265098572,-0.130593296071887
2024-12-07 20:13:02.496898300,7.261898193359375,-0.6058692136198282,0.6610276217401028,-0.3049208121910691
2024-12-07 20:13:02.506912500,7.27191259765625,0.0769616682606283,0.6499924329847097,-0.5902392444200814
2024-12-07 20:13:02.516926500,7.281926513671875,0.3395937739044428,0.6679343323886394,-0.8431871466591954
2024-12-07 20:13:02.526939400,7.291939453125,0.299298022139538,0.7102391041547059,-0.9866638897016644
2024-12-07 20:13:02.536953300,7.301953369140625,0.1128981014380231,0.7605021414488553,-0.9745113873541354
2024-12-07 20:13:02.546967600,7.311967529296875,-0.0638987274041399,0.7810989392757415,-0.8882692741841077
2024-12-07 20:13:02.556981500,7.3219814453125,-0.0405810167133808,0.8403086686134338,-0.6716919313564896
2024-12-07 20:13:02.566995500,7.331995361328125,0.0827046232262626,0.8780003936260938,-0.4767305002704262
2024-12-07 20:13:02.577009400,7.342009521484375,0.2596510896721855,0.9014724546283484,-0.3690422789677977
2024-12-07 20:13:02.587022600,7.352022705078125,0.4158902471214533,0.7734019550323485,-0.2211193701714277
2024-12-07 20:13:02.597036300,7.362036376953125,0.467368505424261,0.5820090300828218,-0.2608884859800338
2024-12-07 20:13:02.607050500,7.372050537109375,0.7869382398884743,0.4005272582948208,-0.230477273364365
2024-12-07 20:13:02.617064400,7.382064453125,1.4161644367635249,0.1797556786477565,-0.2193243034482002
2024-12-07 20:13:02.627078700,7.39207861328125,1.7770798156380652,0.2915869911044836,-0.1803606588035821
2024-12-07 20:13:02.637092400,7.40209228515625,1.4486071552067994,0.6743178959459066,-0.0636670010074973
2024-12-07 20:13:02.647106300,7.412106201171875,0.6493867952417582,1.1112316418737171,0.0961702174663543
2024-12-07 20:13:02.657119500,7.422119384765625,0.0610521423339843,1.276868778797984,-0.0153410692557692
2024-12-07 20:13:02.667133400,7.432133544921875,-0.0955447059791535,1.1219938589066267,-0.3106359749674797
2024-12-07 20:13:02.677147400,7.4421474609375,-0.010000000488758,0.7717278843402862,-0.3740662446096539
2024-12-07 20:13:02.687161300,7.452161376953125,0.124111021380499,0.4310720341622829,-0.4970069801017642
2024-12-07 20:13:02.697175600,7.462175537109375,0.3433626249186694,0.1666051051735878,-0.8298927808001637
2024-12-07 20:13:02.707189500,7.472189453125,0.5493687432408333,-0.0611649550586938,-1.1766364264592528
2024-12-07 20:13:02.717202400,7.482202392578125,0.6950865432083606,-0.2251467259913682,-1.5421838490486144
2024-12-07 20:13:02.727216400,7.49221630859375,0.8598363759040832,-0.3754974464565515,-1.814330226624012
2024-12-07 20:13:02.737230600,7.502230712890625,1.0296943453937768,-0.5813444286942482,-1.939250153234601
2024-12-07 20:13:02.747244300,7.512244384765625,0.9910089331686496,-0.7661205658525228,-2.0454688865065576
2024-12-07 20:13:02.757258500,7.522258544921875,0.8929862197034061,-0.9227952286422252,-2.116993030755222
2024-12-07 20:13:02.767272400,7.5322724609375,0.725811936339736,-0.9715221424102782,-2.2705808334454893
2024-12-07 20:13:02.777286700,7.54228662109375,0.4567459891229867,-0.9531091183632612,-2.4832772431865333
2024-12-07 20:13:02.787299300,7.55229931640625,0.2470493457198143,-0.9302011209845542,-2.607172502924502
2024-12-07 20:13:02.797313500,7.5623134765625,-0.012032967621088,-0.8850631716191768,-2.7589117551386355
2024-12-07 20:13:02.807327500,7.572327392578125,-0.234893628501892,-0.8106634719341993,-2.777133640527725
2024-12-07 20:13:02.817341400,7.582341552734375,-0.382297701055929,-0.7702864533603191,-2.649780057029426
2024-12-07 20:13:02.827355400,7.59235546875,-0.4712607636224478,-0.7235153498351573,-2.3779119118735195
2024-12-07 20:13:02.837369300,7.602369384765625,-0.5381055909484624,-0.7107663428992033,-1.934772131037712
2024-12-07 20:13:02.847382500,7.612382568359375,-0.5508709644973278,-0.6950152315378189,-1.4087278570219874
2024-12-07 20:13:02.857396500,7.622396484375,-0.4904266518633812,-0.6390390772938728,-0.8124418797835707
2024-12-07 20:13:02.867410400,7.632410400390625,-0.4421918324612081,-0.5146972428321838,-0.2304585686638951
2024-12-07 20:13:02.877424400,7.64242431640625,-0.5204862014971673,-0.3258043180048465,0.294557239086926
2024-12-07 20:13:02.887438600,7.6524384765625,-0.6675362729817629,-0.0867652602612972,0.7890545744553208
2024-12-07 20:13:02.897452300,7.662452392578125,-0.6130259535066783,0.1391951202005147,1.3616677074223755
2024-12-07 20:13:02.907465500,7.672465576171875,-0.4867044895350932,0.1808440584063529,1.76128398835212
2024-12-07 20:13:02.917479400,7.6824794921875,-0.403078111821413,-0.005097030878067,1.955326843288541
2024-12-07 20:13:02.927493400,7.692493408203125,-0.3217553348749876,-0.4745803364992141,1.873323975123465
2024-12-07 20:13:02.937507300,7.70250732421875,-0.4561971230685711,-1.1222218224436045,1.3853759152680634
2024-12-07 20:13:02.947521500,7.712521484375,-0.6544832415979355,-1.529798999249935,1.0726870994240043
2024-12-07 20:13:02.957535500,7.722535400390625,-0.8530822254687547,-1.564337228667736,0.9791045603632926
2024-12-07 20:13:02.967549400,7.732549560546875,-1.007034185296297,-1.551494698229432,0.799828481926024
2024-12-07 20:13:02.977562400,7.742562255859375,-0.9890373408347368,-1.4847376222521065,0.5905334050610661
2024-12-07 20:13:02.987576600,7.75257666015625,-0.7501338191043585,-1.2343886504650114,0.3845709797501563
2024-12-07 20:13:02.997590500,7.762590576171875,-0.3884095349997282,-0.8240092757195234,0.2986237578734755
2024-12-07 20:13:03.007604500,7.7726044921875,-0.0351583340775221,-0.4176905745416879,0.4096928537860512
2024-12-07 20:13:03.017618400,7.782618408203125,0.1627741487085819,-0.0953641617804765,0.6687137923285364
2024-12-07 20:13:03.027632400,7.79263232421875,0.0647685325086116,0.0153548055201768,1.0055597288295626
2024-12-07 20:13:03.037645300,7.802645263671875,-0.2585153271079063,-0.1919698480546474,1.2388313090875744
2024-12-07 20:13:03.047659500,7.812659423828125,-0.5253643289275467,-0.6255225931167602,1.1179974827468395
2024-12-07 20:13:03.057673500,7.822673583984375,-0.5765406816743314,-1.0643015483945608,0.7674015455737709
2024-12-07 20:13:03.067687400,7.8326875,-0.5559148038834333,-1.4252870698958635,0.4038254230573773
2024-12-07 20:13:03.077701400,7.842701416015625,-0.3714923024684191,-1.604339568710327,0.1295651220679283
2024-12-07 20:13:03.087715300,7.85271533203125,-0.3136958009295165,-1.5307155295729635,-0.0365361252367496
2024-12-07 20:13:03.097728500,7.862728515625,-0.7046971790533513,-1.1173638610184191,-0.0873591345012188
2024-12-07 20:13:03.107742500,7.872742431640625,-1.096336197493598,-0.2409130349218845,0.0133393740445375
2024-12-07 20:13:03.117756400,7.88275634765625,-0.9268044642835856,1.0594412488818168,0.4269230977892875
2024-12-07 20:13:03.127770400,7.892770263671875,-0.4478221664983779,2.4384791933000085,1.0045110965594648
2024-12-07 20:13:03.137784600,7.90278466796875,0.0193909291684627,3.605872867378592,1.375800277671218
2024-12-07 20:13:03.147798500,7.912798583984375,0.0697217710018157,4.449297037664056,1.4707617038697005
2024-12-07 20:13:03.157812500,7.9228125,-0.3813197959344834,4.797193360489606,1.4348597848832607
2024-12-07 20:13:03.167825400,7.932825439453125,-0.9016009763788432,4.301737409222126,1.4359192308083175
2024-12-07 20:13:03.177839600,7.942839599609375,-1.2595564094692469,2.688085822287202,1.3659092905148864
2024-12-07 20:13:03.187853300,7.952853271484375,-1.0317868606936187,0.6067541797608137,0.8507575819134712
2024-12-07 20:13:03.197867500,7.962867431640625,-0.1691922721225768,-0.9670172322064636,-0.324967867180705
2024-12-07 20:13:03.207881500,7.972881591796875,0.6468127069700509,-2.0127017584145066,-1.9391028537184
2024-12-07 20:13:03.217895400,7.9828955078125,0.8084731953483074,-2.426628011986613,-3.2664673095226284
2024-12-07 20:13:03.227908400,7.992908447265625,0.3613344080042093,-2.349043837046623,-3.972764690314233
2024-12-07 20:13:03.237922300,8.00292236328125,0.0274725288152694,-1.9357669872939585,-4.146766920001805
2024-12-07 20:13:03.247936500,8.0129365234375,0.1173047754317522,-1.2538608281761408,-3.887711202406883
2024-12-07 20:13:03.257950500,8.022950439453124,0.4245599488545209,-0.3697638712406158,-3.218613671457767
2024-12-07 20:13:03.267964400,8.03296435546875,0.7428279530704021,0.5323410360723734,-2.269806926463544
2024-12-07 20:13:03.277978400,8.042978271484374,1.0041320341140032,1.1360241378247735,-1.304084702503681
2024-12-07 20:13:03.287992600,8.05299267578125,1.0258833357382564,1.2897428734183312,-0.5943500407397747
2024-12-07 20:13:03.298005200,8.063005126953126,0.902125950101018,1.2084411392599343,-0.1318827513605356
2024-12-07 20:13:03.308019500,8.07301953125,0.6666209117025137,1.0866659404158592,0.2287356903940439
2024-12-07 20:13:03.318033400,8.083033447265626,0.2459481430122628,0.910460647726059,0.450684204865992
2024-12-07 20:13:03.328047600,8.093047607421875,-0.0037876653125509,0.7034124730050564,0.4736240586876868
2024-12-07 20:13:03.338061300,8.103061279296876,-0.0635263504277914,0.4709948792278766,0.1557739145576953
2024-12-07 20:13:03.348075300,8.1130751953125,-0.0942009632200002,0.2905582325786352,-0.3818593827039003
2024-12-07 20:13:03.358088400,8.12308837890625,-0.1884767452418804,0.1146755959719419,-0.907590352986753
2024-12-07 20:13:03.368102700,8.1331025390625,-0.1418407028058543,-0.0822258632659912,-1.2328610025063156
2024-12-07 20:13:03.378116400,8.143116455078125,-0.0207580893358215,-0.2928770309150219,-1.426116506457329
2024-12-07 20:13:03.388130300,8.15313037109375,0.116870475667715,-0.4035094889760017,-1.4800304674744604
2024-12-07 20:13:03.398144500,8.16314453125,0.1489478679299354,-0.3518237254023552,-1.3787091508552431
2024-12-07 20:13:03.408158500,8.173158447265624,0.0788064467439428,-0.153297879832983,-1.2077604635193944
2024-12-07 20:13:03.418171400,8.18317138671875,0.0528273348242044,0.0833066442400217,-0.9897074951812624
2024-12-07 20:13:03.428185300,8.193185302734374,0.1013631099343299,0.1870528499186038,-0.71119216709584
2024-12-07 20:13:03.438199600,8.203199462890625,0.2980523877263069,0.1344628309816121,-0.4176695317536592
2024-12-07 20:13:03.448213200,8.213213134765626,0.5619827256202697,0.0020382278293371,-0.1978521840915083
2024-12-07 20:13:03.458228000,8.22322802734375,0.8216951535582542,-0.1577238795816898,-0.0875648862063884
2024-12-07 20:13:03.468242000,8.233241943359374,0.9720885441213846,-0.2584071905583143,-0.0649845133468508
2024-12-07 20:13:03.478255900,8.243255859375,0.8431810091793537,-0.2723983065098524,-0.0602063391596078
2024-12-07 20:13:03.488268800,8.253268798828126,0.6685995182991027,-0.2215127534031868,-0.0127586515471339
2024-12-07 20:13:03.498283000,8.263282958984375,0.5472545275658369,-0.1180985561579465,0.030151392635703
2024-12-07 20:13:03.508297000,8.273296875,0.435818351906538,0.0268044202953577,0.0320803148716688
2024-12-07 20:13:03.518311000,8.283310791015625,0.2719792043149471,0.1534615459620952,-0.039399990235269
2024-12-07 20:13:03.528324900,8.293324951171876,0.1667699403464794,0.1824824732631444,-0.0815691529229283
2024-12-07 20:13:03.538338800,8.3033388671875,0.0591477608842309,0.1007546226471662,-0.1306152156427502
2024-12-07 20:13:03.548351700,8.313351806640625,0.0613888086761347,0.003200257346034,-0.1789072451248765
2024-12-07 20:13:03.558365700,8.32336572265625,0.1895288481106981,-0.1320095926105976,-0.2522533441036939
2024-12-07 20:13:03.568380000,8.3333798828125,0.2660240587702021,-0.2236941890954971,-0.369584423020482
2024-12-07 20:13:03.578393900,8.343393798828124,0.2500982118964195,-0.2824509139686822,-0.4791860767289996
2024-12-07 20:13:03.588407800,8.35340771484375,0.3067395520508289,-0.2472825699537992,-0.566090745460987
2024-12-07 20:13:03.598421800,8.363421875,0.4788578676879406,-0.1612058764785528,-0.6398012938380241
2024-12-07 20:13:03.608436000,8.37343603515625,0.4850666592001915,-0.1578822850137949,-0.7105573763236404
2024-12-07 20:13:03.618449000,8.383448974609376,0.4358896635770797,-0.0893207899630069,-0.6481029659762978
2024-12-07 20:13:03.628462800,8.393462890625,0.313964206074737,0.0120949269413948,-0.4143120380192995
2024-12-07 20:13:03.638476800,8.403476806640626,0.3677554174950346,0.0335182387202978,-0.1452151111423969
2024-12-07 20:13:03.648491000,8.413490966796875,0.738197370660305,-0.0594511368781328,-0.0107160398036241
2024-12-07 20:13:03.658505000,8.4235048828125,1.168991172403097,-0.1253793608158826,0.1426464296981692
2024-12-07 20:13:03.668518700,8.4335185546875,1.3738590804755686,-0.1424438928633928,0.2095046279624104
2024-12-07 20:13:03.678531800,8.44353173828125,1.355893215674162,-0.2079594443470239,0.2271416992008686
2024-12-07 20:13:03.688546000,8.453546142578125,1.3247849607050417,-0.2254302191078663,0.2498796007096767
2024-12-07 20:13:03.698559700,8.463559814453125,1.3221347384572029,-0.2528811206132173,0.2615139244019985
2024-12-07 20:13:03.708573700,8.47357373046875,1.3650795616924762,-0.2195014135807752,0.2257885310262441
2024-12-07 20:13:03.718588000,8.483587890625,1.4119582172453402,-0.1194575695514678,0.1638809409067034
2024-12-07 20:13:03.728601900,8.493601806640624,1.3652221850335595,0.0246475345224142,0.0855512082964181
2024-12-07 20:13:03.738615800,8.50361572265625,1.2491221092164515,0.2311579491049051,0.0348667307198047
2024-12-07 20:13:03.748628700,8.513628662109374,1.191959448601678,0.3829810802102089,0.0023389643415808
2024-12-07 20:13:03.758643000,8.523642822265625,1.1005459972083569,0.4068541232287883,-0.1255690381690859
2024-12-07 20:13:03.768657000,8.533656982421874,0.9494833290815352,0.2828781994700431,-0.3128413760572672
2024-12-07 20:13:03.778670800,8.5436708984375,0.7078161878567188,0.1067307744473218,-0.4951841485887766
2024-12-07 20:13:03.788684800,8.553684814453124,0.4063713081479072,-0.0770382314950227,-0.6164022980719804
2024-12-07 20:13:03.798699000,8.563698974609375,0.1413267984669655,-0.2515717915803194,-0.7322177117288112
2024-12-07 20:13:03.808711700,8.573711669921876,-0.0053285015463829,-0.3364005308210849,-0.7327189392492175
2024-12-07 20:13:03.818726000,8.583725830078125,-0.1395955176949501,-0.3495914363056421,-0.6132949797064066
2024-12-07 20:13:03.828739800,8.59373974609375,-0.3251671891450882,-0.3015589345425367,-0.4499529679819941
2024-12-07 20:13:03.838754000,8.603754150390625,-0.5261177045781165,-0.1246826107233762,-0.2134635947212576
2024-12-07 20:13:03.848767700,8.613767822265626,-0.7249907561499626,0.0980547160387039,0.0185506789520382
2024-12-07 20:13:03.858781700,8.62378173828125,-0.8908080719467252,0.2778881360977888,0.1561751888349652
2024-12-07 20:13:03.868795000,8.633794921875,-0.9877833952508868,0.3638485097169875,0.2519444242849946
2024-12-07 20:13:03.878809000,8.64380908203125,-1.1035561388097703,0.4025555492520332,0.3744903152406215
2024-12-07 20:13:03.888822800,8.65382275390625,-1.0650957675121724,0.2929617865890264,0.6134636142715811
2024-12-07 20:13:03.898836700,8.663836669921874,-0.6707634913999587,0.0500327356696128,0.8154080361127853
2024-12-07 20:13:03.908851000,8.673850830078125,-0.1267323828600347,-0.1561725584864616,0.9281357128873466
2024-12-07 20:13:03.918865000,8.683864990234374,0.3201648508131504,-0.3152110277980566,0.994824107542634
2024-12-07 20:13:03.928878800,8.69387890625,0.4533071737807244,-0.4352285693198442,1.0111191165223716
2024-12-07 20:13:03.938891800,8.703891845703126,0.3797989430427551,-0.4935030636340379,0.9837342659905552
2024-12-07 20:13:03.948906000,8.713906005859375,0.3990810780744999,-0.4412538209587335,0.9266808379039168
2024-12-07 20:13:03.958919700,8.723919677734376,0.2755506330609321,-0.2955775220453739,0.7690732781782745
2024-12-07 20:13:03.968934000,8.733933837890625,0.118976946427673,-0.1490191796004772,0.5763523194953799
2024-12-07 20:13:03.978947800,8.74394775390625,0.0396072032451629,-0.081448449152708,0.3889943491503596
2024-12-07 20:13:03.988962000,8.753962158203125,-0.1043441715717315,-0.0282265620529651,0.1622808122336864
2024-12-07 20:13:03.998974700,8.763974609375,-0.2877894985176623,0.0667734425902366,-0.022739947335422
2024-12-07 20:13:04.008989000,8.773989013671875,-0.3343359995067119,0.2237491341531276,-0.1256754211530089
2024-12-07 20:13:04.019003000,8.7840029296875,-0.1252314767777919,0.3329904301166534,-0.218776314176619
2024-12-07 20:13:04.029017000,8.79401708984375,0.1961865159016102,0.2644780349045992,-0.3528767415866256
2024-12-07 20:13:04.039030800,8.80403076171875,0.4004607689298689,0.0691004242330789,-0.4534638987123966
2024-12-07 20:13:04.049044700,8.814044677734374,0.4233610213935375,-0.1572381418913602,-0.5037605460152029
2024-12-07 20:13:04.059058000,8.824057861328125,0.3788634888235479,-0.2776613416045904,-0.4391851979911327
2024-12-07 20:13:04.069072000,8.83407177734375,0.2496818861804902,-0.2707973010540008,-0.3132718764290213
2024-12-07 20:13:04.079085800,8.8440859375,0.0953565629959106,-0.103380879497528,-0.131723469145596
2024-12-07 20:13:04.089099800,8.854099853515624,-0.0420376452624797,0.0772848997324705,-0.0151934774786233
2024-12-07 20:13:04.099114000,8.864114013671875,-0.2184719244025647,0.1783668546378612,-0.0060246671169996
2024-12-07 20:13:04.109127700,8.874127685546876,-0.3347663537479937,0.2959475244015455,-0.042040860132873
2024-12-07 20:13:04.119142000,8.884141845703125,-0.4333915631510317,0.4208247809141874,-0.0524424271598458
2024-12-07 20:13:04.129154800,8.89415478515625,-0.4781729541637003,0.478431751230359,-0.1441039350301027
2024-12-07 20:13:04.139169000,8.9041689453125,-0.473609884031862,0.435182392090559,-0.2607400174200535
2024-12-07 20:13:04.149182700,8.9141826171875,-0.4423334328889846,0.3002320698529481,-0.273458336956799
2024-12-07 20:13:04.159197000,8.924197021484375,-0.3753074768424034,0.0994949779748916,-0.2398570961281657
2024-12-07 20:13:04.169211000,8.9342109375,-0.2891080337703228,-0.1342377900540828,-0.1195306347876787
2024-12-07 20:13:04.179225000,8.94422509765625,-0.1745557719171047,-0.3489882097154855,-0.0328749723806977
2024-12-07 20:13:04.189237800,8.95423779296875,-0.1005355730690061,-0.4730839604616165,0.1120800265207886
2024-12-07 20:13:04.199252000,8.964251953125,-0.0596412526227533,-0.5926233630776405,0.2564443660527467
2024-12-07 20:13:04.209266000,8.974265869140625,-0.0728548083305358,-0.5978261924177408,0.4144830106720328
2024-12-07 20:13:04.219280000,8.98427978515625,-0.1910696843445301,-0.5219827236652373,0.5387862666890025
2024-12-07 20:13:04.229293800,8.9942939453125,-0.3260778742492198,-0.3987865521073341,0.5974535597130656
2024-12-07 20:13:04.239307800,9.004307861328124,-0.4054183913372456,-0.2417132453888654,0.57779754986763
2024-12-07 20:13:04.249320700,9.01432080078125,-0.4018833490788936,-0.1296001933813095,0.4903473760820925
2024-12-07 20:13:04.259335000,9.0243349609375,-0.3504641274869441,-0.140347212845087,0.2861750490583479
2024-12-07 20:13:04.269348900,9.034348876953125,-0.318070070490986,-0.3101210111826658,-0.0141853233493864
2024-12-07 20:13:04.279362800,9.04436279296875,-0.2731004634298384,-0.5003700267940759,-0.2365621462360024
2024-12-07 20:13:04.289377000,9.054376953125,-0.1656977810703218,-0.5515104314446448,-0.2623766787111759
2024-12-07 20:13:04.299390700,9.064390625,-0.0835433756053447,-0.4591629871368408,-0.1153948501572012
2024-12-07 20:13:04.309405000,9.074405029296877,-0.0743522072814404,-0.2893880197554827,0.0728799427717924
2024-12-07 20:13:04.319417900,9.08441796875,-0.1124162727378308,-0.1611620373368263,0.2077187674589455
2024-12-07 20:13:04.329431800,9.094431884765624,-0.1975415107071399,-0.157300101211667,0.1873813512206077
2024-12-07 20:13:04.339445800,9.10444580078125,-0.2506196054220199,-0.2607061151504516,0.0910473214946687
2024-12-07 20:13:04.349460000,9.1144599609375,-0.2708626213751733,-0.4154179534345865,0.0275702901013195
2024-12-07 20:13:04.359474000,9.124473876953124,-0.1753461916424334,-0.5132634106367826,0.0720737409554421
2024-12-07 20:13:04.369488000,9.13448779296875,-0.009645780223608,-0.4140215306401252,0.2098600172713398
2024-12-07 20:13:04.379500800,9.144500732421877,0.1507492182634771,-0.1689589748233556,0.410255602235347
2024-12-07 20:13:04.389515000,9.154514892578124,0.2364553248606622,0.0860088889360427,0.5754102163396776
2024-12-07 20:13:04.399529000,9.164529052734377,0.256541835077852,0.3398223219633102,0.705078652651608
2024-12-07 20:13:04.409543000,9.17454296875,0.2433421617649495,0.5288572856098414,0.8076271729782223
2024-12-07 20:13:04.419556900,9.184556884765623,0.1969498284243047,0.5970365033447742,0.9381303065486252
2024-12-07 20:13:04.429570800,9.19457080078125,0.1688894167184829,0.5568582222133874,1.1125390712104737
2024-12-07 20:13:04.439585000,9.2045849609375,0.1579274393297731,0.5388648848831653,1.3421082898192107
2024-12-07 20:13:04.449598000,9.214597900390626,0.2904207238040864,0.6006932722866535,1.5856899594284593
2024-12-07 20:13:04.459611600,9.224611572265625,0.4803061668001115,0.710123368820548,1.7054533800587055
2024-12-07 20:13:04.469625600,9.23462548828125,0.6518845303416252,0.8273375433593988,1.6485558731861412
2024-12-07 20:13:04.479639800,9.244639892578125,0.7340919811680913,0.8496814771145582,1.420758340425044
2024-12-07 20:13:04.489653800,9.25465380859375,0.6764134069204331,0.7830506578654051,1.058472988371551
2024-12-07 20:13:04.499667700,9.264667724609374,0.3680909695923328,0.6716098060309886,0.5246357223920524
2024-12-07 20:13:04.509680600,9.2746806640625,5.14379262924e-05,0.532526329511404,-0.0781767340056598
2024-12-07 20:13:04.519694800,9.28469482421875,-0.4272758567497134,0.3486585393697023,-0.7303449035942554
2024-12-07 20:13:04.529708500,9.29470849609375,-0.7824516690589487,0.1843009208619594,-1.3176494097366929
2024-12-07 20:13:04.539722800,9.30472265625,-0.9367375370159744,0.0863408973693847,-1.6946083070479332
2024-12-07 20:13:04.549736700,9.31473681640625,-0.8651755449749529,0.0270440742701292,-1.820205402267724
2024-12-07 20:13:04.559751000,9.3247509765625,-0.6786009800925851,0.018099720314145,-1.639641329846531
2024-12-07 20:13:04.569763600,9.334763671875,-0.4440183172360062,-0.0154430683255195,-1.167189675939083
2024-12-07 20:13:04.579777800,9.34477783203125,-0.1312476683273911,-0.0365454775869846,-0.5606558609306812
2024-12-07 20:13:04.589791700,9.354791748046877,0.1739057835757732,-0.0856225199669599,-0.1063970124483108
2024-12-07 20:13:04.599806000,9.364805908203126,0.3495055115878582,-0.2053086375772952,0.186960349329561
2024-12-07 20:13:04.609819600,9.374819580078125,0.3657319853760302,-0.3554395778119564,0.3355706558682024
2024-12-07 20:13:04.619833600,9.38483349609375,0.2701591492809355,-0.4911415951997041,0.4182017389342188
2024-12-07 20:13:04.629847800,9.394847900390625,0.1640636039972305,-0.5911603047877549,0.3764443719178438
2024-12-07 20:13:04.639860700,9.40486083984375,0.088901103246212,-0.6107528940081596,0.3182397279694676
2024-12-07 20:13:04.649874700,9.414874755859374,0.1083854097865521,-0.5463175389766692,0.2898997686699032
2024-12-07 20:13:04.659888600,9.424888671875,0.1937092390678823,-0.4311544517487287,0.2797184202648699
2024-12-07 20:13:04.669902800,9.43490283203125,0.2317510926924645,-0.299581496989727,0.2539109020523726
2024-12-07 20:13:04.679916500,9.44491650390625,0.1964927323065698,-0.1381301213175058,0.2764876216500997
2024-12-07 20:13:04.689930800,9.4549306640625,0.0737329063393175,-0.0244844529151916,0.2643634686142206
2024-12-07 20:13:04.699943700,9.464943603515623,-0.0170095869898796,1.22749596834e-05,0.2275618243090808
2024-12-07 20:13:04.709958000,9.4749580078125,-0.0891337429583072,-0.1048550437033176,0.1672315665088594
2024-12-07 20:13:04.719971600,9.4849716796875,-0.1305367435790598,-0.2578647542446851,0.1285382632382214
2024-12-07 20:13:04.729985800,9.49498583984375,-0.1631143404483795,-0.3720931909710168,0.189301797889173
2024-12-07 20:13:04.739999700,9.504999755859377,-0.1454407365918159,-0.4438058435291052,0.2443852410770952
2024-12-07 20:13:04.750014000,9.515013916015626,-0.0698969814382493,-0.4159977991491556,0.3134574621289968
2024-12-07 20:13:04.760026600,9.525026611328125,0.0220715465545654,-0.4045598748117685,0.2776249551169574
2024-12-07 20:13:04.770040800,9.535040771484375,0.1545931803405285,-0.3591746726870536,0.2025140384227037
2024-12-07 20:13:04.780054800,9.5450546875,0.1284333415590226,-0.3269622558683157,0.2635334475308656
2024-12-07 20:13:04.790068700,9.55506884765625,-0.0016894143916666,-0.3783826465040445,0.2728429815374315
2024-12-07 20:13:04.800082700,9.565082763671874,-0.1391198630072176,-0.3697510117590427,0.2732949630886316
2024-12-07 20:13:04.810096600,9.5750966796875,-0.2503613928772509,-0.273268075081706,0.2138167920731007
2024-12-07 20:13:04.820110800,9.58511083984375,-0.2808804497815668,-0.2136900969535112,0.1735676376625895
2024-12-07 20:13:04.830123800,9.595123779296877,-0.2586708099305629,-0.1796381897479295,0.1201157411992549
2024-12-07 20:13:04.840137700,9.6051376953125,-0.3134745593942701,-0.1596896266967058,0.1076420440733432
2024-12-07 20:13:04.850151700,9.615151611328123,-0.4342718531168997,-0.1493622939497232,0.0596874298520386
2024-12-07 20:13:04.860166000,9.625165771484374,-0.5887899223946035,-0.08239595913589,0.1027360057227313
2024-12-07 20:13:04.870179600,9.6351796875,-0.7481706292726099,0.0211953482419252,0.2278643143869936
2024-12-07 20:13:04.880193800,9.64519384765625,-0.801615803734213,0.0939572175920009,0.3208824975632131
2024-12-07 20:13:04.890207700,9.655207763671877,-0.8207353686153889,0.1558873118042945,0.4047412227280437
2024-12-07 20:13:04.900220700,9.665220703125,-0.8112509164333344,0.1728746869623661,0.5550280841767787
2024-12-07 20:13:04.910234600,9.675234619140625,-0.8289255432032048,0.1281552552700042,0.7423803554333746
2024-12-07 20:13:04.920248800,9.685248779296876,-0.8155247943602502,0.0522550878942012,0.899611629192531
2024-12-07 20:13:04.930262800,9.6952626953125,-0.8524703041154891,-0.039207974794507,1.0017164974048731
2024-12-07 20:13:04.940276700,9.70527685546875,-0.833476776766777,-0.1649269428282976,0.9778494457356632
2024-12-07 20:13:04.950290700,9.715290771484376,-0.9098105863194912,-0.3107558019548654,0.8362466798715293
2024-12-07 20:13:04.960303900,9.725303955078124,-1.1010592074275016,-0.2922802340656519,0.8322899050697684
2024-12-07 20:13:04.970317800,9.73531787109375,-1.1238532230377196,-0.082916183617711,0.9369010570146142
2024-12-07 20:13:04.980331800,9.745331787109375,-1.0864695410609244,0.2770125223070382,0.9010143355973064
2024-12-07 20:13:04.990345700,9.755345703125,-0.9029378510057926,0.7353472419261932,0.6869602276369929
2024-12-07 20:13:05.000359700,9.765359619140623,-0.670868632274866,1.1100596754848957,0.5455632134780287
2024-12-07 20:13:05.010374000,9.775373779296874,-0.4870844287633895,1.391210612770915,0.6695864835098385
2024-12-07 20:13:05.020386800,9.78538671875,-0.1538788945913314,1.4985720863372087,0.8834038601048291
2024-12-07 20:13:05.030400800,9.79540087890625,0.279920518708229,1.539820042526722,0.9896120719827712
2024-12-07 20:13:05.040414700,9.805414794921877,0.6832213333696127,1.5200351456046104,0.8885387387752532
2024-12-07 20:13:05.050428700,9.8154287109375,0.913942644622922,1.4454548286557196,0.6470674854487181
2024-12-07 20:13:05.060442600,9.825442626953125,0.8151865023165941,1.3455875102370976,0.511489094440639
2024-12-07 20:13:05.070456800,9.835456787109376,0.6486585540324449,1.2109048990249631,0.3640814416900277
2024-12-07 20:13:05.080470800,9.845470703125,0.5187912706801667,1.063823409488797,0.0815577547460794
2024-12-07 20:13:05.090483700,9.855483642578124,0.3983311730226501,0.8955056551784276,-0.2581459092736244
2024-12-07 20:13:05.100497700,9.86549755859375,0.6681266400903463,0.7440081027656793,-0.5318409775957464
2024-12-07 20:13:05.110511900,9.875511962890624,1.067387823972106,0.699226127231121,-0.5158908365309238
2024-12-07 20:13:05.120525800,9.88552587890625,1.2931535586446523,0.7276017423659563,-0.120529582697153
2024-12-07 20:13:05.130539800,9.895539794921875,1.1470225017011164,0.6914683527112007,-0.1802127747654914
2024-12-07 20:13:05.140553700,9.9055537109375,0.6774965259820223,0.8101748116344213,-0.0827840816706419
2024-12-07 20:13:05.150567000,9.91556689453125,0.1495680456548929,0.9629039516687392,0.0237578922063112
2024-12-07 20:13:05.160580600,9.92558056640625,-0.1006505046855658,1.0496633667111397,-0.0653697132721543
2024-12-07 20:13:05.170594800,9.9355947265625,-0.2199929964900016,0.9511392795950174,-0.2042544523492455
2024-12-07 20:13:05.180608800,9.94560888671875,-0.2165413216661662,0.7049883440196514,-0.3194125711411237
2024-12-07 20:13:05.190622700,9.955622802734377,-0.1105014520924538,0.3256903362363577,-0.6257838744014501
2024-12-07 20:13:05.200636700,9.96563671875,0.1222094986081123,-0.077595280855894,-1.1580799022883177
2024-12-07 20:13:05.210650600,9.975650634765625,0.3754338066358119,-0.2948240733295679,-1.5616323536232113
2024-12-07 20:13:05.220663800,9.985663818359376,0.4571774393428117,-0.3480681722611188,-1.992431708323956
2024-12-07 20:13:05.230677800,9.995677734375,0.4328243577223271,-0.2262894662857055,-2.333565989668667
2024-12-07 20:13:05.240691700,10.005691650390624,0.5078524184387176,-0.2116518691241741,-2.583227271452546
2024-12-07 20:13:05.250705700,10.01570556640625,0.7618203113753348,-0.2695201207250357,-2.641545897169411
2024-12-07 20:13:05.260719900,10.025719970703124,1.1893945665497332,-0.3793541218847036,-2.4264891880378125
2024-12-07 20:13:05.270733800,10.03573388671875,1.400972712850571,-0.4654004202216863,-1.9633114123016595
2024-12-07 20:13:05.280746800,10.045746826171875,1.3302479022860527,-0.4981254627376794,-1.5818421979591248
2024-12-07 20:13:05.290760700,10.0557607421875,1.0362263775110243,-0.5739174935638904,-1.304036771708727
2024-12-07 20:13:05.300775000,10.06577490234375,0.7806688042301684,-0.719004594412446,-1.23003659273535
2024-12-07 20:13:05.310788600,10.07578857421875,0.5884557950694114,-0.8426081777274608,-1.3240905487000942
2024-12-07 20:13:05.320802800,10.085802734375,0.3433738769650459,-0.8428729661434888,-1.453011235384643
2024-12-07 20:13:05.330816800,10.095816650390624,-0.0142956518560647,-0.6935521732479334,-1.5420248590946195
2024-12-07 20:13:05.340830000,10.105829833984377,-0.265319088838622,-0.5031108499348164,-1.5071116588845848
2024-12-07 20:13:05.350843600,10.11584375,-0.5509977326821536,-0.2675608033508062,-1.3871423404186962
2024-12-07 20:13:05.360857600,10.125857666015625,-0.7901509913899004,-0.0624912352263927,-1.0688540971323848
2024-12-07 20:13:05.370871800,10.135871826171876,-0.8991193156309425,0.0265770412802696,-0.6150389007642865
2024-12-07 20:13:05.380885800,10.1458857421875,-0.9106734136939048,0.0387877035558223,-0.1077569026246666
2024-12-07 20:13:05.390899700,10.155899658203126,-0.8787672132801264,-0.0591483545392751,0.4950336342021822
2024-12-07 20:13:05.400912600,10.16591259765625,-0.6686264063060283,-0.1830862843751907,1.1592965846017005
2024-12-07 20:13:05.410926800,10.1759267578125,-0.418027113019675,-0.2841881130248308,1.724384290499985
2024-12-07 20:13:05.420940500,10.1859404296875,-0.2842136858575046,-0.3621165713578462,2.032263075713814
2024-12-07 20:13:05.430954800,10.195954833984375,-0.2284393377959728,-0.4591138872981071,1.8798840642914167
2024-12-07 20:13:05.440968700,10.20596875,-0.0894745192199945,-0.7472732420414686,1.096373679959774
2024-12-07 20:13:05.450983000,10.21598291015625,0.142948919776082,-1.1243009668052195,0.2542395494848489
2024-12-07 20:13:05.460997000,10.2259970703125,0.306486600203067,-1.3184843992561102,-0.2520423317015171
2024-12-07 20:13:05.471010300,10.23601025390625,0.362042337077856,-1.4188175816208124,-0.7195897008240223
2024-12-07 20:13:05.481024000,10.24602392578125,0.431181924277544,-1.5396423478722572,-1.1701713220983745
2024-12-07 20:13:05.491038200,10.2560380859375,0.5153513228267431,-1.6574813763111829,-1.4889765749961137
2024-12-07 20:13:05.501052200,10.26605224609375,0.5085955649562179,-1.806017740830779,-1.6729185994178055
2024-12-07 20:13:05.511066000,10.276066162109377,0.4010242480315267,-1.8697429017663,-1.6536480817586183
2024-12-07 20:13:05.521080000,10.286080078125,0.1307419107623398,-1.7173761653035875,-1.4710595177724957
2024-12-07 20:13:05.531093200,10.29609326171875,-0.052992169997096,-1.542581908455491,-1.3338833361789584
2024-12-07 20:13:05.541107200,10.306107177734376,-0.0583854073427617,-1.3217197279155253,-1.0869283907443283
2024-12-07 20:13:05.551121000,10.316120849609376,-0.0898163183949887,-1.0130407322347164,-0.575479336053133
2024-12-07 20:13:05.561135000,10.326135009765624,-0.1656616868436336,-0.6507610792696475,0.1608864352658391
2024-12-07 20:13:05.571149000,10.336149169921876,-0.1898848584741354,-0.339554026415944,0.9655798928797245
2024-12-07 20:13:05.581163300,10.346163330078124,-0.1700112603552639,-0.2673568052113056,1.5450336855217814
2024-12-07 20:13:05.591177200,10.35617724609375,-0.2780387966148555,-0.3954267202854156,1.8074758306846024
2024-12-07 20:13:05.601190100,10.366190185546875,-0.5030721253596246,-0.4983692083656788,1.7994015375614163
2024-12-07 20:13:05.611204000,10.3762041015625,-0.802878663276881,-0.5598012899279594,1.5360411085098982
2024-12-07 20:13:05.621218300,10.38621826171875,-1.2228062761556358,-0.550730679243803,0.9996315078243612
2024-12-07 20:13:05.631232000,10.39623193359375,-1.7871645718008278,-0.383875983223319,0.4151873595491051
2024-12-07 20:13:05.641246200,10.40624609375,-2.054164818659425,-0.1505295841634273,-0.0138125445142388
2024-12-07 20:13:05.651260200,10.41626025390625,-1.6714713232189415,0.1493318988114595,-0.1992979989856481
2024-12-07 20:13:05.661273000,10.426273193359377,-1.287297818353772,0.5846498999804258,-0.0765375884965062
2024-12-07 20:13:05.671287000,10.436287109375,-0.9710983640402556,1.2800661135345697,0.2025456026047468
2024-12-07 20:13:05.681301000,10.446301025390625,-0.6809189016461372,2.313200370249152,0.4096154046356677
2024-12-07 20:13:05.691315200,10.456315185546876,-0.6165419257383793,3.4907957048684355,0.4566825684979558
2024-12-07 20:13:05.701329000,10.466328857421876,-1.1144755922310057,4.613233215889334,0.4660226437732577
2024-12-07 20:13:05.711343000,10.476343017578126,-1.6250303284309804,5.329360793560743,0.8785998208239674
2024-12-07 20:13:05.721357000,10.486357177734376,-2.076328573542088,5.283921230900288,1.892076314127445
2024-12-07 20:13:05.731370200,10.496370361328124,-1.938829881995916,4.35879785157144,3.003381605759263
2024-12-07 20:13:05.741384000,10.506384033203124,0.2388664776556193,2.2116928834080696,3.178723559617996
2024-12-07 20:13:05.751398100,10.516398193359375,2.76533740427196,-0.7789864771664142,1.8227873815849425
2024-12-07 20:13:05.761412000,10.526412109375,2.928757449668645,-3.328153658106923,-0.5416632834300399
2024-12-07 20:13:05.771426300,10.53642626953125,1.7333207534104584,-4.657487952679396,-2.942608572627604
2024-12-07 20:13:05.781440000,10.54643994140625,0.8248076595555991,-4.308538321408629,-4.530356487499177
2024-12-07 20:13:05.791453200,10.556453125,-0.2833288658469915,-2.863694902649521,-5.166394921672344
2024-12-07 20:13:05.801467100,10.566467041015626,-0.7693857781935483,-1.2367068642795085,-4.914751233899593
2024-12-07 20:13:05.811481000,10.576481201171877,-0.394258918615058,0.0551098928034305,-4.190862082315981
2024-12-07 20:13:05.821495000,10.5864951171875,0.45028702224195,0.5707341873526572,-3.1809061643540857
2024-12-07 20:13:05.831509000,10.596509033203125,1.3269915308386089,0.6404921987116337,-1.7778534303590654
2024-12-07 20:13:05.841523200,10.606523193359376,1.6702479189038275,0.9151742322444916,-0.446551342844963
2024-12-07 20:13:05.851536100,10.6165361328125,1.6520003145515918,1.2147750184565782,0.4324298785120248
2024-12-07 20:13:05.861550000,10.626550048828124,1.2970955742686987,1.372657303470373,0.7438353765472769
2024-12-07 20:13:05.871564000,10.63656396484375,0.6775497174739837,1.1524223149180413,0.5806824576541781
2024-12-07 20:13:05.881578200,10.646578125,-0.0030711510736495,0.5725286695539951,0.096459848062694
2024-12-07 20:13:05.891592000,10.656592041015625,-0.4776309562414884,0.0817559076666832,-0.4453776228904724
2024-12-07 20:13:05.901606100,10.666606201171875,-0.5495792076537386,-0.1703039596915245,-0.8253758878976106
2024-12-07 20:13:05.911619000,10.676619140625,-0.0475841369410976,-0.2616308287799358,-1.0029045381456614
2024-12-07 20:13:05.921633000,10.686633056640623,0.6605711101442575,-0.203794725883007,-0.9157488172620536
2024-12-07 20:13:05.931647000,10.69664697265625,1.0015887793719769,-0.1519803674936294,-0.7049144020006061
2024-12-07 20:13:05.941661200,10.7066611328125,0.70763915078938,-0.1369143157869577,-0.6158464177548885
2024-12-07 20:13:05.951675100,10.716675048828124,0.3421533952593803,-0.2051829653710127,-0.6918842400357127
2024-12-07 20:13:05.961689000,10.726689208984377,0.2678933963060378,-0.4249059127479791,-0.8047334973633289
2024-12-07 20:13:05.971703000,10.736703125,0.22780865694331,-0.5832201594382525,-0.7535092138215899
2024-12-07 20:13:05.981716200,10.74671630859375,0.1814502076059579,-0.4017097460776567,-0.3663593234941363
2024-12-07 20:13:05.991730200,10.756730224609376,0.1691892764478921,-0.1000292309820651,0.1900108229413628
2024-12-07 20:13:06.001744100,10.766744140625,0.0677683034130604,0.1088952590048313,0.5512199240654707
2024-12-07 20:13:06.011758000,10.776758056640626,-0.3806172736883163,0.0854565157502889,0.7104246898546814
2024-12-07 20:13:06.021772000,10.78677197265625,-0.8760054204165935,-0.1761041704028844,0.6989177919343114
2024-12-07 20:13:06.031786200,10.7967861328125,-0.9800070621609688,-0.4886503629058599,0.7573974534317851
2024-12-07 20:13:06.041799200,10.806799072265624,-0.6404127037346363,-0.6973439667463303,0.9068576547980308
2024-12-07 20:13:06.051813000,10.816813232421875,-0.1461877646999899,-0.7509703429937362,1.059483918979764
2024-12-07 20:13:06.061827000,10.8268271484375,0.3913105171382427,-0.6651864949852228,1.1642080297797917
2024-12-07 20:13:06.071841000,10.836841064453123,0.936591114282608,-0.5386825140535831,1.1175848102927208
2024-12-07 20:13:06.081855000,10.84685498046875,1.3557049996256827,-0.4485767111927271,0.975521148918569
2024-12-07 20:13:06.091869200,10.856869140625,1.6042425380766392,-0.3486901035517454,0.8333017124608159
2024-12-07 20:13:06.101883100,10.866883056640624,1.684932277816534,-0.1826578298300504,0.790447490118444
2024-12-07 20:13:06.111896000,10.87689599609375,1.6761410685956477,-0.0420475821346044,0.6424801576584577
2024-12-07 20:13:06.121910000,10.886909912109376,1.7547370509266853,0.0598439355880022,0.4867077044054865
2024-12-07 20:13:06.131924200,10.89692431640625,1.7480349229395389,0.1271434478789568,0.4358355953022837
2024-12-07 20:13:06.141938200,10.906938232421876,1.6614076098442077,0.1380780988693237,0.3249097072526812
2024-12-07 20:13:06.151952100,10.9169521484375,1.4742659125983717,0.1075233861297369,0.0736886288061738
2024-12-07 20:13:06.161966000,10.926966064453126,1.031773489755392,0.0942477249711751,-0.2104983151748776
2024-12-07 20:13:06.171979300,10.936979248046876,0.4743254849553108,0.0992559085220098,-0.5306231262385845
2024-12-07 20:13:06.181993000,10.946992919921875,-0.0871241567015647,0.1515834771305322,-0.8315326569616794
2024-12-07 20:13:06.192007200,10.957007080078125,-0.4112906443715095,0.1412093826323747,-1.0930325528383251
2024-12-07 20:13:06.202021000,10.967021240234375,-0.585106411576271,0.1365589264780282,-1.3278238900095225
2024-12-07 20:13:06.212035000,10.97703515625,-0.7066518933176994,0.0632557898581027,-1.4141957670390606
2024-12-07 20:13:06.222049000,10.987049072265624,-0.5786626422643661,-0.0331534970611333,-1.2777549139827489
2024-12-07 20:13:06.232062200,10.997062255859374,-0.2458113283574581,-0.0332791692674159,-1.1846566513076424
2024-12-07 20:13:06.242076200,11.007076171875,0.0747205656697973,-0.0640600919783115,-0.8791746981024742
2024-12-07 20:13:06.252090000,11.017090087890624,0.3951484878659248,-0.0186550161093473,-0.5890010809272528
2024-12-07 20:13:06.262104000,11.02710400390625,0.6374409944474697,0.013991115951538,-0.376365753723681
2024-12-07 20:13:06.272118000,11.037117919921876,0.8481646428108215,-0.0336877500683069,-0.1965776341110467
2024-12-07 20:13:06.282132200,11.04713232421875,0.9467606261193752,-0.1151414599180221,-0.0474155389085412
2024-12-07 20:13:06.292146200,11.057146240234376,0.97715108820796,-0.2255436163544654,0.090361238926649
2024-12-07 20:13:06.302159000,11.0671591796875,0.940720176911354,-0.3559527880311012,0.2599810157462954
2024-12-07 20:13:06.312173000,11.077173095703126,0.7744540944337844,-0.4312964905679226,0.4343599697917699
2024-12-07 20:13:06.322187300,11.087187255859376,0.5084077872991561,-0.4693219775795936,0.5678223915591836
2024-12-07 20:13:06.332201000,11.097200927734375,0.2792342534771189,-0.4390712162226438,0.6917910087943077
2024-12-07 20:13:06.342215200,11.107215087890625,0.0115945396712049,-0.2915069116055965,0.7562929993212223
2024-12-07 20:13:06.352229000,11.11722900390625,-0.3041968818306922,-0.146266666021943,0.6965253438398241
2024-12-07 20:13:06.362242300,11.1272421875,-0.4452748201031237,-0.052815059864521,0.510125697132945
2024-12-07 20:13:06.372256000,11.137256103515623,-0.5483154347956181,-0.0137187287509441,0.2519318570643663
2024-12-07 20:13:06.382270200,11.147270263671874,-0.4708662844121455,-0.0247457341998815,-0.0174044315263628
2024-12-07 20:13:06.392284200,11.1572841796875,-0.309549933296442,-0.134028531217575,-0.1129836973622441
2024-12-07 20:13:06.402298000,11.167298095703124,0.0336169498544186,-0.1663151823163032,-0.1009174119934439
2024-12-07 20:13:06.412312000,11.17731201171875,0.3600363310176879,-0.2640191852211952,-0.1509995397627353
2024-12-07 20:13:06.422325200,11.1873251953125,0.372559054917097,-0.2990980973869562,-0.2845464249432087
2024-12-07 20:13:06.432339200,11.197339111328125,0.3304208718895912,-0.2717863120913505,-0.4179106470331549
2024-12-07 20:13:06.442353000,11.207352783203126,0.3007528788566589,-0.2670458395659923,-0.5497404991626739
2024-12-07 20:13:06.452367000,11.2173671875,0.2218447618365287,-0.3520271390199661,-0.7448010067090391
2024-12-07 20:13:06.462381000,11.227381103515626,0.0881739580154419,-0.404525388020277,-0.855722510844469
2024-12-07 20:13:06.472395300,11.237395263671877,-0.0894071530722081,-0.407813323649764,-0.9185030844062566
2024-12-07 20:13:06.482408200,11.247408203125,-0.3606301321923733,-0.3710486503541469,-0.8792258437678218
2024-12-07 20:13:06.492422100,11.257422119140625,-0.5545896927595139,-0.3458919972658157,-0.680885583898425
2024-12-07 20:13:06.502436000,11.26743603515625,-0.6063387308277189,-0.3379249639093876,-0.3452081066548824
2024-12-07 20:13:06.512450300,11.2774501953125,-0.5827322297908365,-0.3029021658450365,0.0368795318469405
2024-12-07 20:13:06.522464300,11.28746435546875,-0.5864451128341257,-0.2289309207051992,0.4432262900754809
2024-12-07 20:13:06.532478200,11.297478271484374,-0.6439793101750314,-0.1874041475743055,0.7319941321060061
2024-12-07 20:13:06.542492200,11.3074921875,-0.6911271380580961,-0.1769008737385272,0.9656948975615204
2024-12-07 20:13:06.552505300,11.31750537109375,-0.6820015823163091,-0.1865221040427684,1.1207330451905726
2024-12-07 20:13:06.562519300,11.327519287109377,-0.5671545753002166,-0.2593827575922012,1.1733023136004803
2024-12-07 20:13:06.572533200,11.337533203125,-0.453608567880094,-0.2475660630702972,1.1902486260958016
2024-12-07 20:13:06.582547200,11.347547119140623,-0.4878301325641572,-0.2352589546829462,1.255540451826155
2024-12-07 20:13:06.592561200,11.35756103515625,-0.5553812815286219,-0.1655781002134084,1.396663179088384
2024-12-07 20:13:06.602575400,11.367575439453123,-0.5745033306278288,-0.1330091250419616,1.5492331830382349
2024-12-07 20:13:06.612588300,11.37758837890625,-0.5807729124166071,-0.1501005450963974,1.7218876513786614
2024-12-07 20:13:06.622602200,11.387602294921876,-0.5472691406130791,-0.1736012476712465,1.869164663486928
2024-12-07 20:13:06.632616200,11.3976162109375,-0.4679132798254489,-0.1908604255080223,2.007930306228995
2024-12-07 20:13:06.642630100,11.407630126953125,-0.4415655172564089,-0.2345546058058738,2.061983967977762
2024-12-07 20:13:06.652644000,11.41764404296875,-0.4264170479632914,-0.2891705776125192,1.995046274736524
