time,seconds_elapsed,z,y,x
2024-12-07 20:32:17.634953500,0.016953369140625,-0.0219219820160418,0.1514613120555877,-0.2867980032622814
2024-12-07 20:32:17.644967700,0.0269677734375,0.0388905794084072,0.1317412970632314,-0.3048381023436785
2024-12-07 20:32:17.654981600,0.036981689453125,0.0919664091009646,-0.0150455934405326,-0.140455349394679
2024-12-07 20:32:17.664995300,0.046995361328125,0.0502830571688711,-0.4161117809176445,-0.0535942275434732
2024-12-07 20:32:17.675009500,0.057009521484375,0.0099971509445458,-1.049976085922122,0.0826613320738077
2024-12-07 20:32:17.685022700,0.067022705078125,0.0817501355130225,-2.5817607060313223,0.0451794504195451
2024-12-07 20:32:17.695036400,0.077036376953125,0.3951053063113242,-2.2323235835045576,0.991056863963604
2024-12-07 20:32:17.705050400,0.08705029296875,0.3629629955867305,-1.4921569585978984,0.5278443091750145
2024-12-07 20:32:17.715064600,0.097064697265625,0.5722796997616068,-1.0674579665988684,-0.0876426276177167
2024-12-07 20:32:17.725078500,0.10707861328125,-0.0933984146654605,-0.0577905101895332,-1.3182839082479476
2024-12-07 20:32:17.735091500,0.117091552734375,-0.4594295291185378,0.6946154185652732,-1.8746803581684828
2024-12-07 20:32:17.745105400,0.12710546875,-0.4714648713598027,0.6816998228907585,-1.5537585515081882
2024-12-07 20:32:17.755119600,0.13711962890625,-0.4567290379881858,0.3920873467296362,-0.841410492375493
2024-12-07 20:32:17.765133300,0.14713330078125,-0.4105827883630991,0.1425093593150377,-0.5007762695074082
2024-12-07 20:32:17.775146500,0.157146484375,-0.1635638195152394,0.0746516286194324,-0.4769020574450492
2024-12-07 20:32:17.785160400,0.167160400390625,0.1192605856746435,-0.0419154801875352,-0.5269657727748155
2024-12-07 20:32:17.795174700,0.177174560546875,0.2537584697033278,-0.0635357758432626,-0.7580249376803636
2024-12-07 20:32:17.805188400,0.187188232421875,0.291873388564121,0.2682002702981233,-0.7570406028181313
2024-12-07 20:32:17.815202600,0.19720263671875,0.2391407828186638,0.4580371979773044,-0.630698534449935
2024-12-07 20:32:17.825215500,0.207215576171875,0.1171545350397936,0.4907540571868419,-0.2486231709077954
2024-12-07 20:32:17.835229400,0.2172294921875,-0.008394318857789,0.4748240821272134,0.0434901821583509
2024-12-07 20:32:17.845243400,0.227243408203125,-0.0552875783247407,0.4708049096137285,0.2715922508239746
2024-12-07 20:32:17.855257600,0.237257568359375,-0.0748339903158601,0.3234749982744455,0.9198255651816724
2024-12-07 20:32:17.865271600,0.247271484375,-0.1470575150055345,0.1108762036889791,1.4527841486304998
2024-12-07 20:32:17.875284500,0.257284423828125,-0.205230896165967,0.1074140805363655,1.3841300068601965
2024-12-07 20:32:17.885298400,0.26729833984375,-0.2302168688625097,0.1157072771072387,1.122944583760202
2024-12-07 20:32:17.895312600,0.277312744140625,0.5782230818033218,-1.3777970044463872,0.8782362482085824
2024-12-07 20:32:17.905326600,0.28732666015625,1.1434446432143448,-4.186106119960546,-0.3753931092992424
2024-12-07 20:32:17.915339500,0.297339599609375,0.7162029809951782,-4.156224191915989,-0.9036638271927832
2024-12-07 20:32:17.925353500,0.307353515625,-0.5717395650029182,-1.9099901564806696,-0.5750850760385394
2024-12-07 20:32:17.935367700,0.31736767578125,-1.1432383069872856,-1.0319494308441877,-0.0491585831835865
2024-12-07 20:32:17.945381400,0.32738134765625,-0.7848048080563544,-1.8129139300853008,0.1602837931975722
2024-12-07 20:32:17.955395600,0.3373955078125,-0.4243476943433285,-2.369126255610585,-0.4545440951645374
2024-12-07 20:32:17.965408500,0.347408447265625,-0.2963584432899951,-1.8162597333818675,-1.088452823832631
2024-12-07 20:32:17.975422500,0.35742236328125,-0.056129317245353,-1.4830308183342218,-1.284398005259037
2024-12-07 20:32:17.985436400,0.3674365234375,0.2911549928953871,-1.536332200410962,-1.0572674119740724
2024-12-07 20:32:17.995450600,0.37745068359375,0.2829483420968056,-1.412693545782566,-0.9034361559167504
2024-12-07 20:32:18.005464600,0.387464599609375,0.0286509432111866,-1.0448527515590191,-0.8628139304101466
2024-12-07 20:32:18.015477500,0.3974775390625,0.0841898568153381,-0.8424749067366123,-0.7572995460152626
2024-12-07 20:32:18.025491500,0.407491455078125,0.2917605758394114,-0.6152975517004728,-0.7101058331638574
2024-12-07 20:32:18.035505400,0.41750537109375,0.4363385398557409,-0.4132464546144008,-0.6213353705599903
2024-12-07 20:32:18.045519600,0.42751953125,0.295640632143151,-0.5047095173031091,-0.6864616304650902
2024-12-07 20:32:18.055532500,0.437532470703125,0.0582277142967097,-0.4666267471462488,-0.835558259215951
2024-12-07 20:32:18.065546500,0.44754638671875,-0.1720540182292461,-0.7767717237263917,-0.8697153803616762
2024-12-07 20:32:18.075560400,0.457560546875,-0.3552127467861399,-0.8154162194192409,-0.9035217883735894
2024-12-07 20:32:18.085574400,0.467574462890625,-0.4530079351058229,-0.7824445086658001,-0.9274491919279098
2024-12-07 20:32:18.095588400,0.47758837890625,-0.2522013216555118,-1.0058844307392836,-0.9518088494196534
2024-12-07 20:32:18.105601500,0.4876015625,-0.1334884695241227,-1.3322960669875143,-1.0517483562916516
2024-12-07 20:32:18.115615500,0.497615478515625,-0.1704314585287124,-1.448850316312909,-0.9284826266288756
2024-12-07 20:32:18.125629400,0.50762939453125,-0.1314461500415578,-0.616693974494934,0.0910927680715918
2024-12-07 20:32:18.135643400,0.517643310546875,0.0534977083664387,1.204389233520627,1.5525155657097696
2024-12-07 20:32:18.145656600,0.527656494140625,0.3791279119133949,3.439977956300974,2.864512356512249
2024-12-07 20:32:18.155670500,0.53767041015625,0.5353027719547971,6.033069619163871,3.845253285905719
2024-12-07 20:32:18.165684500,0.5476845703125,0.303572612452507,8.537405724731087,4.092919009958208
2024-12-07 20:32:18.175699500,0.557699462890625,-0.3168225911805406,9.4859777841866,2.738859731712937
2024-12-07 20:32:18.185713400,0.56771337890625,-0.6651544193465262,5.294123475962877,-0.365101870778948
2024-12-07 20:32:18.195726300,0.577726318359375,1.0632968283314257,-5.298752304807305,-1.9225746205046768
2024-12-07 20:32:18.205740500,0.587740478515625,0.2985772883832454,0.6701970166236162,0.6415868620805442
2024-12-07 20:32:18.215754500,0.59775439453125,-0.9313539442814888,5.710961817589402,0.8366931084647774
2024-12-07 20:32:18.225768400,0.6077685546875,-1.282997490811348,3.441740289798379,-1.0021787080891429
2024-12-07 20:32:18.235782400,0.617782470703125,-0.9797650700986384,1.259514908415079,-2.7937258788883685
2024-12-07 20:32:18.245795600,0.627795654296875,-0.6516998944897204,0.5886497832715512,-3.180887459653616
2024-12-07 20:32:18.255809500,0.6378095703125,-0.2727612946033477,-0.0269885446906089,-2.629056417952478
2024-12-07 20:32:18.265823500,0.647823486328125,0.8949965366125107,-1.268834525424242,-1.89100006319806
2024-12-07 20:32:18.275837400,0.65783740234375,1.0721440785884857,-1.4804413863629102,-0.0228672269769012
2024-12-07 20:32:18.285850600,0.6678505859375,0.330890754423663,-0.9158061004072428,1.9160941724441944
2024-12-07 20:32:18.295864600,0.677864501953125,-0.3333247766375541,-0.4858516720980405,2.688579743283987
2024-12-07 20:32:18.305878500,0.68787841796875,-0.5689676891367882,-0.3855757728785276,2.397739186632633
2024-12-07 20:32:18.315892500,0.697892578125,-0.4520271439075469,-0.3271843741863965,1.746464312621951
2024-12-07 20:32:18.325906400,0.707906494140625,-0.4713678772587329,-0.1793856762915849,0.956503729237616
2024-12-07 20:32:18.335919400,0.71791943359375,-0.5374117999980226,-0.0952928501099348,0.1144876721844077
2024-12-07 20:32:18.345933300,0.727933349609375,-0.2902454403024166,-0.0242787012100219,-0.329848624959588
2024-12-07 20:32:18.355947500,0.737947509765625,0.0935550299992784,0.0573076951086521,-0.4769722000718116
2024-12-07 20:32:18.365961500,0.74796142578125,0.2617967599313706,0.0930026933461427,-0.4520853038355708
2024-12-07 20:32:18.375974400,0.757974365234375,0.0804103017440065,0.0742506466031074,-0.4259704732395708
2024-12-07 20:32:18.385988400,0.76798828125,-0.1172083293199539,0.0562818591922521,-0.367036784364283
2024-12-07 20:32:18.396002600,0.77800244140625,-0.0879798967480659,0.0138356331288814,-0.3340164121635258
2024-12-07 20:32:18.406016500,0.7880166015625,0.0560720158338546,-0.0083329440593719,-0.3696997199632227
2024-12-07 20:32:18.416030500,0.798030517578125,0.094743947522901,0.047425183519721,-0.4568159856192767
2024-12-07 20:32:18.426043400,0.80804345703125,0.0455354242503643,-0.0034141923576593,-0.5606342336207628
2024-12-07 20:32:18.436057600,0.8180576171875,0.0292401230096817,-0.0957423474431037,-0.611696020077169
2024-12-07 20:32:18.446071300,0.8280712890625,-0.0045930634113028,-0.1341167940229177,-0.6384748675398528
2024-12-07 20:32:18.456085500,0.83808544921875,-0.0367664268612861,-0.077476038390398,-0.6324661286443471
2024-12-07 20:32:18.466098400,0.848098388671875,-0.0179026633720844,0.0584954435884952,-0.5287390660576522
2024-12-07 20:32:18.476112600,0.858112548828125,-0.0008171616017818,0.1753974834382534,-0.4200717705897986
2024-12-07 20:32:18.486126300,0.868126220703125,0.1483200548877939,0.2528437112122774,-0.3475073235079646
2024-12-07 20:32:18.496140500,0.878140625,0.3220096018970012,0.243099731311202,-0.4084571745112538
2024-12-07 20:32:18.506154500,0.888154541015625,0.3383516283562406,0.1881862378627061,-0.5735910380885004
2024-12-07 20:32:18.516167400,0.89816748046875,0.185198746484518,0.1665437303751707,-0.7398891231395304
2024-12-07 20:32:18.526181400,0.908181396484375,0.0161795659065246,0.1694979040056466,-0.904795607701689
2024-12-07 20:32:18.536195600,0.918195556640625,-0.0686860712785273,0.1667711093902587,-1.0321886464275418
2024-12-07 20:32:18.546209500,0.92820947265625,-0.0510837425598874,0.2148568026453256,-1.1989585867740211
2024-12-07 20:32:18.556223500,0.938223388671875,0.0505927076399326,0.267984581720829,-1.3765237696401773
2024-12-07 20:32:18.566236400,0.948236328125,-0.0116261769184842,0.2271492979854345,-1.5049138565793632
2024-12-07 20:32:18.576250600,0.958250732421875,-0.1363550014037639,0.1149035595089197,-1.448576175546646
2024-12-07 20:32:18.586264600,0.9682646484375,-0.1133107373595237,0.0292938990235328,-1.2740652656845748
2024-12-07 20:32:18.596278500,0.978278564453125,0.0383925667583942,0.0046820203363895,-1.0247823156937956
2024-12-07 20:32:18.606291500,0.98829150390625,0.1665174268901348,-0.0343517669349908,-0.7117205748841166
2024-12-07 20:32:18.616305700,0.9983056640625,0.2301274004807695,-0.1629506743192672,-0.2835416318148374
2024-12-07 20:32:18.626319400,1.0083193359375,0.328244002774544,-0.2470294719755649,0.1850885641083121
2024-12-07 20:32:18.636333600,1.01833349609375,0.4594623354095965,-0.1887327658295631,0.560924740999937
2024-12-07 20:32:18.646347500,1.028347412109375,0.5955729335982353,-0.0886608647495508,0.8382423837333917
2024-12-07 20:32:18.656360400,1.0383603515625,0.6051005673348904,-0.0340711964279413,1.042821830253303
2024-12-07 20:32:18.666374400,1.04837451171875,0.3798058842401951,-0.0492167431116104,1.1873825691401958
2024-12-07 20:32:18.676388600,1.058388671875,0.0286720407981425,-0.218360426852107,1.1614145996689795
2024-12-07 20:32:18.686402600,1.068402587890625,-0.2212368590712547,-0.3713911801815033,1.0447107127398252
2024-12-07 20:32:18.696415500,1.07841552734375,-0.4207095570366829,-0.448183327960968,0.8797226873740553
2024-12-07 20:32:18.706429400,1.088429443359375,-0.4879040015179663,-0.3563946865797042,0.8028419845283031
2024-12-07 20:32:18.716443600,1.098443603515625,-0.4312111503720283,-0.212959444591403,0.6951704220995306
2024-12-07 20:32:18.726457600,1.10845751953125,-0.3338905207615345,-0.1113800615578889,0.561478575490415
2024-12-07 20:32:18.736470500,1.118470458984375,-0.1979132666289806,-0.0450742364794015,0.4382239517435431
2024-12-07 20:32:18.746484500,1.128484375,-0.0593090249937027,-0.0214104522973299,0.3363119757547974
2024-12-07 20:32:18.756498700,1.138498779296875,-0.0563922607641667,-0.0490752888143062,0.2096215323403477
2024-12-07 20:32:18.766512400,1.148512451171875,-0.112077396172285,-0.1325596277087926,0.0630892011195421
2024-12-07 20:32:18.776526300,1.1585263671875,-0.097873514252901,-0.2032593038320541,-0.1452165724471211
2024-12-07 20:32:18.786539500,1.16853955078125,-0.1460943051297217,-0.1681593488782644,-0.3501186750501394
2024-12-07 20:32:18.796553700,1.1785537109375,-0.2802759080171585,-0.0408317766040563,-0.3426531614750623
2024-12-07 20:32:18.806567400,1.1885673828125,-0.3096574122589081,0.1300707335025072,-0.1412280873328447
2024-12-07 20:32:18.816581400,1.198581298828125,-0.2967839021604508,0.2571937231153249,0.1047141739279031
2024-12-07 20:32:18.826594600,1.208594482421875,-0.2194728450734168,0.2030102975070476,0.2035854670464992
2024-12-07 20:32:18.836608500,1.2186083984375,-0.1716811663288623,0.0233884743720293,0.1903542295515537
2024-12-07 20:32:18.846622500,1.22862255859375,-0.0710323421437293,-0.1317734457671642,0.1405637782052159
2024-12-07 20:32:18.856636400,1.238636474609375,0.1907995621662586,-0.1902963618844747,0.0578004470616579
2024-12-07 20:32:18.866650600,1.248650634765625,0.5494481651525944,-0.2148351753354072,-0.0777124774947762
2024-12-07 20:32:18.876663600,1.25866357421875,0.632135800711438,-0.1783393821090459,-0.2183563351988792
2024-12-07 20:32:18.886677500,1.268677490234375,0.4689678303796797,-0.1589905385166406,-0.3364727192744612
2024-12-07 20:32:18.896691500,1.27869140625,0.2861690577089786,-0.1341518653362989,-0.361587286786735
2024-12-07 20:32:18.906705400,1.288705322265625,0.1408230136632919,-0.0961474211126565,-0.2905304677888751
2024-12-07 20:32:18.916718600,1.298718505859375,0.1586041695475578,-0.0873152953594923,-0.2289794360220432
2024-12-07 20:32:18.926732500,1.308732666015625,0.1599041462302207,-0.0695464144349098,-0.1608712376967072
2024-12-07 20:32:18.936746500,1.31874658203125,0.0575917727470397,0.0197702838748693,-0.1196539689064025
2024-12-07 20:32:18.946760400,1.328760498046875,0.009897051570937,0.0469669183582067,-0.1105506249964237
2024-12-07 20:32:18.956774400,1.3387744140625,-0.0608241787970066,0.0459527728796005,-0.0553916323542594
2024-12-07 20:32:18.966787600,1.34878759765625,0.003336450946331,0.0014408464580774,0.0397252766668796
2024-12-07 20:32:18.976801300,1.35880126953125,0.1723018555104732,-0.0850450123399496,0.107038232961297
2024-12-07 20:32:18.986815500,1.3688154296875,0.2993546294312924,-0.1486556069850921,0.1361450849801302
2024-12-07 20:32:18.996829400,1.378829345703125,0.3248655758500099,-0.1491080269277095,0.1661021240875125
2024-12-07 20:32:19.006842600,1.388842529296875,0.3187737617809325,-0.0906020619451999,0.2084615486502647
2024-12-07 20:32:19.016856300,1.398856201171875,0.3853975667674094,-0.0417138201355934,0.2702905205756425
2024-12-07 20:32:19.026870500,1.40887060546875,0.3900608093380928,-0.0673819298774004,0.2923345946013927
2024-12-07 20:32:19.036884500,1.418884521484375,0.2721077991306782,-0.1098836855202913,0.2773284563884139
2024-12-07 20:32:19.046898700,1.428898681640625,0.0580103634852915,-0.1298170510023832,0.2688081730633974
2024-12-07 20:32:19.056911400,1.438911376953125,-0.1349614281535148,-0.1682522878587246,0.2609624279990792
2024-12-07 20:32:19.066925600,1.448925537109375,-0.1748409455340355,-0.1762754353165626,0.2189659915298223
2024-12-07 20:32:19.076939500,1.458939453125,-0.0524199230670928,-0.1757809297978877,0.1411214120879769
2024-12-07 20:32:19.086953500,1.468953369140625,0.1500911927461624,-0.0956476548969745,0.0738984721645712
2024-12-07 20:32:19.096966400,1.47896630859375,0.259497396947816,-0.0254196879386901,-0.0139013918414711
2024-12-07 20:32:19.106980600,1.488980712890625,0.2030980488557368,0.0399976638674736,-0.038383506669104
2024-12-07 20:32:19.116994300,1.498994384765625,0.1322282037973403,0.063880059236288,-0.0234670925661921
2024-12-07 20:32:19.127008500,1.509008544921875,0.094292733156681,0.0117781160771846,0.0237511702045798
2024-12-07 20:32:19.137022500,1.5190224609375,0.0552068503718823,-0.0895581058502197,0.1103968957394361
2024-12-07 20:32:19.147035600,1.52903564453125,0.0111315618019551,-0.1009551136553287,0.172725633880496
2024-12-07 20:32:19.157049300,1.53904931640625,0.0431329662185162,-0.0418470911264419,0.1602855467632412
2024-12-07 20:32:19.167063600,1.5490634765625,0.145942256373167,0.0201133982241153,0.1279898355752229
2024-12-07 20:32:19.177076500,1.559076416015625,0.2188263638634234,-0.0007785831570625,0.0305105813369154
2024-12-07 20:32:19.187089700,1.569089599609375,0.1410719469230621,-0.0566565377235412,-0.0518447535276412
2024-12-07 20:32:19.197103600,1.579103515625,0.0550759174685925,-0.1060603278398513,-0.0773307847008109
2024-12-07 20:32:19.207117600,1.58911767578125,0.049867827431485,-0.1227127719551324,-0.0697056966498494
2024-12-07 20:32:19.217131500,1.599131591796875,0.1425472801726311,-0.129175830489397,-0.0173506555125117
2024-12-07 20:32:19.227145700,1.609145751953125,0.226519767910242,-0.1379576873600483,0.0890980871230363
2024-12-07 20:32:19.237158700,1.61915869140625,0.2760802098929882,-0.1348690736949443,0.1573509546160698
2024-12-07 20:32:19.247172600,1.629172607421875,0.2215279509723186,-0.1481307063281536,0.1950368344098329
2024-12-07 20:32:19.257186600,1.6391865234375,0.1459901871681213,-0.1512783567041158,0.2240130457863211
2024-12-07 20:32:19.267200800,1.64920068359375,0.1718844338160008,-0.1355909582287073,0.2438292146295309
2024-12-07 20:32:19.277213700,1.659213623046875,0.1426220259092748,-0.1201280161589384,0.2330710892498493
2024-12-07 20:32:19.287227600,1.6692275390625,-0.0176257461268454,-0.065122168251872,0.1805889146015047
2024-12-07 20:32:19.297241600,1.67924169921875,-0.1243185266513377,-0.0227507609903812,0.0668327715620398
2024-12-07 20:32:19.307255800,1.689255859375,-0.0693769030869007,0.0252291338026523,-0.0153334704712033
2024-12-07 20:32:19.317269500,1.69926953125,-0.0264565567057579,0.0466197123557329,-0.0563990558311343
2024-12-07 20:32:19.327282700,1.70928271484375,-0.0195814102392643,-0.0175882636606693,-0.0082622169107198
2024-12-07 20:32:19.337296600,1.719296630859375,0.0417805286962538,-0.0862573107391595,0.0326294731870293
2024-12-07 20:32:19.347310800,1.729310791015625,0.1159516072571277,-0.1044558152526617,0.0099766196131706
2024-12-07 20:32:19.357324500,1.739324462890625,0.0556066633444279,-0.0506388848692178,-0.0382931980371475
2024-12-07 20:32:19.367337700,1.749337646484375,-0.0840660112399607,-0.0125058458298444,-0.0502127684116363
2024-12-07 20:32:19.377351700,1.7593515625,-0.1727099248547106,0.0102484222918748,0.0205804312139749
2024-12-07 20:32:19.387365600,1.76936572265625,-0.0730324299197644,-0.0067547349572181,0.0879334272578358
2024-12-07 20:32:19.397379600,1.779379638671875,0.0941302360713481,-0.0495955132961273,0.0714879038915038
2024-12-07 20:32:19.407392800,1.789392822265625,0.1628548127293586,-0.0953852045685052,-0.0307999196723103
2024-12-07 20:32:19.417406500,1.799406494140625,0.1507165581028908,-0.090156071743369,-0.1846516339957714
2024-12-07 20:32:19.427420700,1.809420654296875,-0.0011188479620963,-0.0405354240059852,-0.3025999680280685
2024-12-07 20:32:19.437434600,1.8194345703125,-0.0925228739399462,0.0201584064096212,-0.3335688145264983
2024-12-07 20:32:19.447448800,1.82944873046875,-0.1097499030727893,0.0162923786312341,-0.2471568977475166
2024-12-07 20:32:19.457461500,1.83946142578125,-0.0310557210642844,-0.0138268653005361,-0.1684527788668871
2024-12-07 20:32:19.467475700,1.849475830078125,0.1128314294099807,-0.0501642530947923,-0.169189568708837
2024-12-07 20:32:19.477489700,1.85948974609375,0.1713525919616222,-0.0329243644803762,-0.1846799833074212
2024-12-07 20:32:19.487504000,1.86950390625,0.1028103861331939,-0.035462943047285,-0.1467453894495964
2024-12-07 20:32:19.497516500,1.8795166015625,-0.0939210503000766,-0.0357785848677158,-0.1467138252675533
2024-12-07 20:32:19.507530800,1.88953076171875,-0.2233797893840819,-0.041076691275835,-0.1693321920499205
2024-12-07 20:32:19.517544700,1.899544677734375,-0.2582091107029468,-0.0125870943725109,-0.2082011441484093
2024-12-07 20:32:19.527558700,1.90955859375,-0.2796784535806625,0.0116290629953145,-0.1767690640524029
2024-12-07 20:32:19.537572600,1.919572509765625,-0.3540775687437504,0.0125385790556669,-0.11237579459697
2024-12-07 20:32:19.547585800,1.929585693359375,-0.3380489556152373,0.0051040451407432,-0.0225809573814272
2024-12-07 20:32:19.557599700,1.939599853515625,-0.1966180391866713,-0.009313771790266,-0.0284890123814344
2024-12-07 20:32:19.567613700,1.94961376953125,-0.1286638623792678,-0.0202063372045755,-0.0931406405121088
2024-12-07 20:32:19.577627600,1.959627685546875,-0.1052080949246883,-0.0592874707490205,-0.1694640017360448
2024-12-07 20:32:19.587640800,1.969640869140625,-0.0829249514460563,-0.1044336034208536,-0.1835550709307193
2024-12-07 20:32:19.597654500,1.979654541015625,-0.2208803737837821,-0.0829319657087326,-0.1239049043491482
2024-12-07 20:32:19.607668700,1.989668701171875,-0.4028454721093177,-0.0365156669706106,0.0031365444600582
2024-12-07 20:32:19.617682700,1.9996826171875,-0.4128360471826046,0.0393605350077152,0.1051946509212255
2024-12-07 20:32:19.627696600,2.009696533203125,-0.3046329351603984,0.0913935045838355,0.1702576363317668
2024-12-07 20:32:19.637709600,2.01970947265625,-0.2032896989703178,0.0589367576152086,0.1801740501902997
2024-12-07 20:32:19.647723800,2.029723876953125,-0.1583610815066844,-0.0262795196384191,0.1397197285965085
2024-12-07 20:32:19.657737700,2.03973779296875,-0.2246247479438781,-0.124608376443386,0.061860243846476
2024-12-07 20:32:19.667751400,2.04975146484375,-0.3498001836854964,-0.1663970153808593,-0.0128261638253927
2024-12-07 20:32:19.677764600,2.0597646484375,-0.375347224330902,-0.1220563538730144,0.026803835773468
2024-12-07 20:32:19.687778800,2.06977880859375,-0.3398398576200008,-0.0045189387291669,0.0746492905318737
2024-12-07 20:32:19.697792800,2.079792724609375,-0.4523181627433746,0.1023953755915164,0.0817811882384121
2024-12-07 20:32:19.707806500,2.089806396484375,-0.634243659710884,0.1510398717731237,0.0579173514395952
2024-12-07 20:32:19.717819600,2.099819580078125,-0.7459563142240047,0.1457446879744529,0.026297493686527
2024-12-07 20:32:19.727833900,2.109833740234375,-0.8673007204353809,0.0723971276909112,-0.011933160508424
2024-12-07 20:32:19.737847600,2.11984765625,-0.9053940850514918,-0.0341582901895046,0.0334936888009309
2024-12-07 20:32:19.747861500,2.129861572265625,-0.7511083632249385,-0.102412911248207,0.0859475141376256
2024-12-07 20:32:19.757875700,2.139875732421875,-0.5782639983355998,-0.138829209497571,0.112454120530188
2024-12-07 20:32:19.767888600,2.149888671875,-0.4354219730000943,-0.1423562145799398,0.1267804597854614
2024-12-07 20:32:19.777902600,2.159902587890625,-0.2986392477035522,-0.1058738653570413,0.106363110178709
2024-12-07 20:32:19.787916500,2.16991650390625,-0.1895616178691387,-0.0263584300935268,0.0537342205360531
2024-12-07 20:32:19.797930800,2.1799306640625,-0.0729461398757994,0.0616635522305965,0.0401855876550078
2024-12-07 20:32:19.807943700,2.189943603515625,-0.0133130705595016,0.1020206970602273,0.0650698535427451
2024-12-07 20:32:19.817957600,2.19995751953125,-0.0224468826729804,0.0703407796829938,0.0613216069251298
2024-12-07 20:32:19.827971600,2.2099716796875,-0.0320365487951785,-0.0998871921628713,0.0378536375761032
2024-12-07 20:32:19.837985800,2.21998583984375,-0.0511748914420604,-0.2509925303876399,-0.0361886269733309
2024-12-07 20:32:19.847999500,2.22999951171875,-0.0951239232838153,-0.3120943570822477,-0.0604760960116982
2024-12-07 20:32:19.858012700,2.2400126953125,-0.1141864242155104,-0.3036182051599025,-0.0556935379102826
2024-12-07 20:32:19.868026600,2.250026611328125,-0.1354652860224247,-0.2155225730776786,0.007273498134315
2024-12-07 20:32:19.878040600,2.26004052734375,-0.1414754131574183,-0.0357289005070924,0.1465659412294626
2024-12-07 20:32:19.888054500,2.270054443359375,-0.1114963083487004,-0.0624766221791505,0.1979462921157479
2024-12-07 20:32:19.898067700,2.280067626953125,-0.1002420700151473,-0.2277870113670825,0.1949354198619723
2024-12-07 20:32:19.908081700,2.29008154296875,-0.0125837333716452,-0.3538198676556348,0.1890486999109387
2024-12-07 20:32:19.918095600,2.300095703125,0.1706733044605702,-0.4151777149379253,0.2154956850707531
2024-12-07 20:32:19.928109600,2.310109619140625,0.3921906609736382,-0.417800464656949,0.3263631209313869
2024-12-07 20:32:19.938122800,2.320122802734375,0.5326432338893413,-0.3071475483298301,0.4294552466154098
2024-12-07 20:32:19.948136400,2.330136474609375,0.5405729309100658,-0.1903121439754962,0.6032312663316727
2024-12-07 20:32:19.958150700,2.340150634765625,0.464382767611742,-0.1483376270771026,0.8581827634781598
2024-12-07 20:32:19.968164600,2.35016455078125,0.2825859385251998,-0.2355570608466863,1.06844347050488
2024-12-07 20:32:19.978178800,2.3601787109375,0.04423778565526,-0.3542997601270675,1.1979787819564345
2024-12-07 20:32:19.988191500,2.37019140625,-0.227155727726221,-0.4442617706030607,1.0163953033596276
2024-12-07 20:32:19.998205700,2.380205810546875,-0.4604968660891055,-0.3235866419553757,0.4176221854805946
2024-12-07 20:32:20.008219600,2.3902197265625,-0.6294015534419566,-0.1398106217503547,-0.2234711939945816
2024-12-07 20:32:20.018233900,2.40023388671875,-0.5870914479136466,0.1354325527966022,-0.5408768092274665
2024-12-07 20:32:20.028246500,2.41024658203125,-0.4411492646057158,0.3169330292850733,-0.6624272594049573
2024-12-07 20:32:20.038260700,2.4202607421875,-0.3131693659026175,0.3158031484723091,-0.720602969519794
2024-12-07 20:32:20.048274700,2.430274658203125,-0.2013807235438376,0.1876519848555326,-0.714912648923695
2024-12-07 20:32:20.058288600,2.44028857421875,-0.1683517296452075,0.0419827002048492,-0.5344707415774465
2024-12-07 20:32:20.068302600,2.450302490234375,-0.0766472594160586,-0.0895458308905363,-0.2473758011952042
2024-12-07 20:32:20.078315800,2.460315673828125,0.0618880086362361,-0.2447925067037344,0.0969748118475079
2024-12-07 20:32:20.088329500,2.47032958984375,0.1969265936791896,-0.3460831359237432,0.4616207555525005
2024-12-07 20:32:20.098343700,2.48034375,0.2342296116352081,-0.3346487187176942,0.7666906208254396
2024-12-07 20:32:20.108357600,2.490357666015625,0.0453461852885782,-0.2915139258682727,0.9398805112168191
2024-12-07 20:32:20.118370800,2.500370849609375,-0.2838530358515679,-0.2972217821210622,0.9084634825594724
2024-12-07 20:32:20.128384500,2.510384521484375,-0.5584487062752247,-0.2789548885464668,0.7713730795532464
2024-12-07 20:32:20.138398700,2.520398681640625,-0.5622120043314993,-0.180002931407094,0.5803377358697355
2024-12-07 20:32:20.148412700,2.53041259765625,-0.4667921668410301,-0.0879325504750013,0.3056020724534988
2024-12-07 20:32:20.158427000,2.540427001953125,-0.343184345742315,-0.0159334821909666,0.0366660352267324
2024-12-07 20:32:20.168439600,2.550439453125,-0.2366531855203211,0.0573988805234432,-0.2099580708183348
2024-12-07 20:32:20.178454000,2.5604541015625,-0.2418576953608542,0.102217096415162,-0.3864025790914893
2024-12-07 20:32:20.188468000,2.570468017578125,-0.2514321639139205,0.0383399597883224,-0.4233867403566837
2024-12-07 20:32:20.198482000,2.58048193359375,-0.1709868273891508,-0.0771329240411519,-0.3247276286840438
2024-12-07 20:32:20.208494800,2.590494873046875,-0.0746152421317994,-0.1484007554411888,-0.0833206727653741
2024-12-07 20:32:20.218509000,2.600509033203125,-0.0174082309186458,-0.1830874534189701,0.2638540577873587
2024-12-07 20:32:20.228522800,2.610522705078125,-0.0212052851140499,-0.2623673263609409,0.6165957748174667
2024-12-07 20:32:20.238537000,2.620536865234375,-0.062548518371582,-0.3636754912376403,0.9117170775279402
2024-12-07 20:32:20.248550000,2.6305498046875,-0.163012633639574,-0.4527279856532812,1.142355386672914
2024-12-07 20:32:20.258563800,2.640563720703125,-0.2332850973267108,-0.520424388307333,1.275033672325313
2024-12-07 20:32:20.268577800,2.650577880859375,-0.225529587829113,-0.6099240419685841,1.336893916171789
2024-12-07 20:32:20.278591700,2.660591796875,-0.1712450399339199,-0.6557569878607988,1.3482855171494186
2024-12-07 20:32:20.288606000,2.67060595703125,-0.0643147973917424,-0.6055033029168844,1.373526487520337
2024-12-07 20:32:20.298619000,2.680618896484375,0.1165805528104305,-0.4930319389909505,1.3882538087919354
2024-12-07 20:32:20.308632800,2.6906328125,0.1305751758933067,-0.401698055639863,1.3530435253314672
2024-12-07 20:32:20.318646800,2.700646728515625,0.0296434431135654,-0.3320738997936248,1.2355137089721857
2024-12-07 20:32:20.328661000,2.710660888671875,-0.1638975997805595,-0.2810603363931179,1.034794883403182
2024-12-07 20:32:20.338674000,2.720673828125,-0.3845769710995256,-0.27130232796669,0.8515941788680851
2024-12-07 20:32:20.348688000,2.73068798828125,-0.5269020598888396,-0.2399941665112972,0.7455538709029554
2024-12-07 20:32:20.358701800,2.740701904296875,-0.5657493846774101,-0.1398193895787,0.6810901665598154
2024-12-07 20:32:20.368715800,2.7507158203125,-0.5350925267376005,-0.0279793092936277,0.6239793091975152
2024-12-07 20:32:20.378729700,2.760729736328125,-0.4417886584877967,0.133215461269021,0.5576455731987953
2024-12-07 20:32:20.388743000,2.770742919921875,-0.4361727183021605,0.2292699434012174,0.4580794296838343
2024-12-07 20:32:20.398756900,2.7807568359375,-0.4729825459137559,0.2437754386156797,0.3464386713631451
2024-12-07 20:32:20.408770800,2.790770751953125,-0.528484945166111,0.1672211912453174,0.2812533747471868
2024-12-07 20:32:20.418784800,2.80078466796875,-0.5036955179549754,-0.0792062231838703,0.2152022550821304
2024-12-07 20:32:20.428798000,2.8107978515625,-0.4189667319573462,-0.4257569766193628,0.2045318079859018
2024-12-07 20:32:20.438812000,2.82081201171875,-0.2152605611406266,-0.6886708309471606,0.2110397285751998
2024-12-07 20:32:20.448825900,2.830825927734375,0.1363457221187651,-0.8373755377709865,0.2277146767832338
2024-12-07 20:32:20.458839800,2.84083984375,0.5247309994600713,-0.7756307369977236,0.2619154909402132
2024-12-07 20:32:20.468852700,2.850852783203125,0.8071696384690702,-0.5938327388674021,0.2587310156852007
2024-12-07 20:32:20.478866700,2.86086669921875,0.952550753828138,-0.3420727312386035,0.2532283266156911
2024-12-07 20:32:20.488881000,2.870880859375,0.9875997092470526,-0.146824299904704,0.1796361439213156
2024-12-07 20:32:20.498894800,2.880894775390625,0.9144364194892346,-0.0385205770522356,0.0560987577103078
2024-12-07 20:32:20.508909000,2.890908935546875,0.7493710911035537,-0.0213607679367065,-0.1334472241982817
2024-12-07 20:32:20.518921700,2.900921630859375,0.485287608474493,-0.1097913310617208,-0.3119125707745552
2024-12-07 20:32:20.528936000,2.91093603515625,0.1900783352196216,-0.2124374665439128,-0.3322390272274613
2024-12-07 20:32:20.538950000,2.920949951171875,-0.0700901659227907,-0.2974251957386732,-0.1814769494824111
2024-12-07 20:32:20.548963800,2.9309638671875,-0.2279331418395042,-0.2596417007893323,0.0655478463180363
2024-12-07 20:32:20.558976800,2.940976806640625,-0.2887603893764316,-0.142195471060276,0.3329648572839796
2024-12-07 20:32:20.568991000,2.950990966796875,-0.3312462167978287,0.0669575669854879,0.5426626697309315
2024-12-07 20:32:20.579004700,2.961004638671875,-0.273481571701914,0.2840694550812244,0.7293781043887138
2024-12-07 20:32:20.589019000,2.971018798828125,-0.0797451523661613,0.5536591339111328,0.9916280879803
2024-12-07 20:32:20.599031800,2.98103173828125,0.3150841865479946,0.9385089306026696,1.3889767162390052
2024-12-07 20:32:20.609046000,2.9910458984375,0.7817736236669123,1.355236213070154,1.799818593929708
2024-12-07 20:32:20.619059700,3.001059814453125,1.1739594623349607,1.6431395472258328,2.130490371840447
2024-12-07 20:32:20.629074000,3.011073974609375,1.3625693324372172,1.6259820761978625,2.207818087801337
2024-12-07 20:32:20.639087900,3.021087890625,1.234192251110077,1.311654845497012,2.0626661050230264
2024-12-07 20:32:20.649100800,3.031100830078125,0.8450384736143052,0.973991747394204,1.855417000902444
2024-12-07 20:32:20.659114800,3.04111474609375,0.2819298127040266,0.6651338880151509,1.5284731574736534
2024-12-07 20:32:20.669129000,3.05112890625,-0.3492778403118252,0.3937152401924133,1.0692584401495755
2024-12-07 20:32:20.679143000,3.061142822265625,-0.8935118510127067,0.2104033303678035,0.5142212958835065
2024-12-07 20:32:20.689155800,3.07115576171875,-1.2138557116545736,0.0617757804334163,-0.1182069849684834
2024-12-07 20:32:20.699169800,3.081169677734375,-1.3718344427801668,-0.0250309808820486,-0.7282002927809953
2024-12-07 20:32:20.709184000,3.09118408203125,-1.4132710534095765,-0.0292553205788135,-1.080732604844123
2024-12-07 20:32:20.719198000,3.101197998046875,-1.2784415810726582,0.0019207389295101,-1.0341250213176012
2024-12-07 20:32:20.729212000,3.1112119140625,-1.1190240493156016,-0.0637315906763076,-0.6484182424705475
2024-12-07 20:32:20.739224800,3.121224853515625,-0.9428829079031944,-0.1513777254253625,-0.0430179615367203
2024-12-07 20:32:20.749239000,3.131239013671875,-0.8062275353133678,-0.1608300289034843,0.5933928861454129
2024-12-07 20:32:20.759252700,3.141252685546875,-0.7263071725107729,-0.1107528695702552,1.0684726965993645
2024-12-07 20:32:20.769267000,3.151266845703125,-0.7050539566017687,-0.0150415017873048,1.3190373569637537
2024-12-07 20:32:20.779280000,3.16127978515625,-0.7363960203267633,0.172089674064517,1.3780758213877675
2024-12-07 20:32:20.789293800,3.1712939453125,-0.8413502866208553,0.4112006280004978,1.2714843092806636
2024-12-07 20:32:20.799307800,3.181307861328125,-1.054719627187401,0.5932651681125164,0.99949867522493
2024-12-07 20:32:20.809322000,3.191322021484375,-1.386753779492527,0.6853127526909113,0.6764300657942891
2024-12-07 20:32:20.819335000,3.2013349609375,-1.6254092447459696,0.6342886678963899,0.3732001292996108
2024-12-07 20:32:20.829348900,3.211348876953125,-1.6619760573819278,0.482529249677062,0.129703653755784
2024-12-07 20:32:20.839362800,3.22136279296875,-1.5193781430006026,0.2255950542807578,-0.0061645139791071
2024-12-07 20:32:20.849377000,3.231376953125,-1.2671604547321795,-0.0404138434529304,-0.090979516955465
2024-12-07 20:32:20.859391000,3.241390869140625,-1.0367289932709187,-0.2561065124005079,-0.1185021685227751
2024-12-07 20:32:20.869404000,3.25140380859375,-0.9559424420930444,-0.3769932379722595,-0.1860989101946353
2024-12-07 20:32:20.879417900,3.26141796875,-0.9901274741590024,-0.3613245441973209,-0.3182210232689976
2024-12-07 20:32:20.889432000,3.27143212890625,-0.8867921873688698,-0.2602127786755561,-0.3807468914173543
2024-12-07 20:32:20.899445800,3.28144580078125,-0.5963222541281953,-0.0698468586862087,-0.3862582021847367
2024-12-07 20:32:20.909459000,3.291458984375,-0.2317021207178942,0.1522954247921705,-0.4189401362113654
2024-12-07 20:32:20.919473000,3.301472900390625,0.2182908687472343,0.3473579781651497,-0.4822030864626169
2024-12-07 20:32:20.929487000,3.311487060546875,0.6325941389381885,0.512835540613532,-0.5400229688771069
2024-12-07 20:32:20.939500800,3.321500732421875,0.9311422012269496,0.7820236529052257,-0.5391597761765122
2024-12-07 20:32:20.949514000,3.331513916015625,1.0558522844791411,1.1002309399098158,-0.5357637039974331
2024-12-07 20:32:20.959528000,3.34152783203125,0.8713444428682326,1.424935772240162,-0.5802667164601385
2024-12-07 20:32:20.969542000,3.3515419921875,0.5451368778247386,1.6268769792109727,-0.5530778268918395
2024-12-07 20:32:20.979555800,3.361555908203125,0.5168898209730163,1.591639077091217,-0.5277493243679404
2024-12-07 20:32:20.989569800,3.37156982421875,0.522445591936633,1.3557780648618936,-0.4879122578896582
2024-12-07 20:32:20.999582700,3.381582763671875,0.5200566509734839,1.0159604190737008,-0.4394501325376331
2024-12-07 20:32:21.009597000,3.391596923828125,0.6140653795570135,0.5291647441238164,-0.4319622610002755
2024-12-07 20:32:21.019611000,3.40161083984375,0.7209119624037296,-0.0370569342404603,-0.4560873790837824
2024-12-07 20:32:21.029624800,3.411624755859375,0.844251341824606,-0.5241957235395908,-0.5158299001239239
2024-12-07 20:32:21.039637800,3.4216376953125,0.9787228675693272,-0.8548860600203275,-0.5024905260793865
2024-12-07 20:32:21.049652000,3.43165185546875,1.165201716992259,-0.9933931979566812,-0.459592464595288
2024-12-07 20:32:21.059666000,3.441666015625,1.2332793740488588,-0.9588754268050194,-0.4022346467345953
2024-12-07 20:32:21.069679900,3.451679931640625,1.3104590598411858,-0.7979553815305233,-0.3613680910781026
2024-12-07 20:32:21.079693800,3.46169384765625,1.3396528594911097,-0.5686322466373444,-0.3772323074251413
2024-12-07 20:32:21.089707000,3.47170703125,1.232608781310916,-0.2807885337144136,-0.3487137766882777
2024-12-07 20:32:21.099721000,3.481720947265625,0.980044617692381,0.0425187067776918,-0.5060542099103331
2024-12-07 20:32:21.109734700,3.491734619140625,0.6666314330965281,0.2403431260794401,-0.6590674275830388
2024-12-07 20:32:21.119748900,3.501748779296875,0.5231764634944498,0.3852081086099148,-0.748732793200016
2024-12-07 20:32:21.129762000,3.511761962890625,0.3862701848834752,0.4356108466356992,-0.7848924863398075
2024-12-07 20:32:21.139776000,3.52177587890625,0.257381939163804,0.4045446772426366,-0.791271665982902
2024-12-07 20:32:21.149789700,3.531789794921875,0.1441933668792247,0.2905021184772253,-0.8156926982730627
2024-12-07 20:32:21.159804000,3.541803955078125,0.0246668237447738,0.0984971991091966,-0.8032064339265227
2024-12-07 20:32:21.169817000,3.551817138671875,-0.0493324053805321,-0.130720137321949,-0.7591741077154874
2024-12-07 20:32:21.179830500,3.56183056640625,-0.044936800770089,-0.3375853566914796,-0.6339262643247843
2024-12-07 20:32:21.189844700,3.5718447265625,0.0231529120504856,-0.5227671520411968,-0.4322966075211763
2024-12-07 20:32:21.199858700,3.581858642578125,0.0625285715620964,-0.6974883436530828,-0.296065890084207
2024-12-07 20:32:21.209872600,3.59187255859375,0.0795493375331163,-0.8237427337378262,-0.2009381674081087
2024-12-07 20:32:21.219885600,3.601885498046875,0.1094436136025935,-0.8738871130883693,-0.1712856642052531
2024-12-07 20:32:21.229899500,3.6118994140625,0.1915069067180156,-0.8064338715404271,-0.2302612925261259
2024-12-07 20:32:21.239913700,3.621913818359375,0.2801748587954789,-0.6121633453279733,-0.3981853713437914
2024-12-07 20:32:21.249927400,3.631927490234375,0.2917443005580455,-0.3267997587829828,-0.6411681982770562
2024-12-07 20:32:21.259940600,3.641940673828125,0.2036731453299522,-0.050918286332488,-0.9110095137804746
2024-12-07 20:32:21.269954600,3.65195458984375,0.0405792631477117,0.0722422293901443,-1.0766393441811204
2024-12-07 20:32:21.279968800,3.66196875,-0.1564472837746143,0.000234977799654,-1.0259797087848186
2024-12-07 20:32:21.289982500,3.671982421875,-0.279234290009737,-0.140317402228713,-0.6092857440650463
2024-12-07 20:32:21.299995600,3.68199560546875,-0.0969154828757047,-0.3725719143986701,-0.0107967038244009
2024-12-07 20:32:21.310009600,3.692009521484375,0.2373059503406286,-0.5690297215223312,0.4721779515326023
2024-12-07 20:32:21.320023600,3.7020234375,0.5831961940407753,-0.6910901670485734,0.7702671641379595
2024-12-07 20:32:21.330037500,3.71203759765625,0.7465824102330952,-0.750769267463684,0.9765107444778084
2024-12-07 20:32:21.340051700,3.7220517578125,0.5694804609645158,-0.6921025589615106,1.0779814064398408
2024-12-07 20:32:21.350064600,3.732064697265625,0.2281955921679735,-0.6121119074016809,1.093897060713172
2024-12-07 20:32:21.360078600,3.74207861328125,0.057287236842513,-0.4809872809320688,1.0093415854558347
2024-12-07 20:32:21.370092500,3.752092529296875,0.0374614964533597,-0.3977729911506176,0.7694359740108251
2024-12-07 20:32:21.380106800,3.762106689453125,0.1686609417248517,-0.4722480941593647,0.4658718371257185
2024-12-07 20:32:21.390119700,3.77211962890625,0.2209095998782664,-0.6820838537722825,0.1954322634682059
2024-12-07 20:32:21.400133600,3.782133544921875,-0.003179799079895,-1.0050842202723025,-0.0976230466231703
2024-12-07 20:32:21.410147600,3.792147705078125,-0.2027921247117221,-1.2502467293322086,-0.3519417988240718
2024-12-07 20:32:21.420161800,3.802161865234375,-0.3047533466696739,-1.2785077781766652,-0.4985536250218749
2024-12-07 20:32:21.430175500,3.812175537109375,-0.3408135249577462,-0.9717442607283592,-0.6750543935269117
2024-12-07 20:32:21.440188700,3.822188720703125,-0.4255073857724666,-0.5290998621940612,-0.9849415959537028
2024-12-07 20:32:21.450202600,3.83220263671875,-0.5254540530376136,-0.1462409470587968,-1.2449497919678687
2024-12-07 20:32:21.460216600,3.842216552734375,-0.7434286954425275,-0.0003501286119222,-1.4059969707533717
2024-12-07 20:32:21.470230500,3.85223046875,-0.819163735384494,-0.2270253793448209,-1.5250108881905673
2024-12-07 20:32:21.480243700,3.86224365234375,-0.6963334745295345,-0.7813923692643642,-1.379832601927221
2024-12-07 20:32:21.490257700,3.872257568359375,-0.5209533806174993,-1.3343898243963717,-0.9739818105220794
2024-12-07 20:32:21.500271600,3.882271728515625,-0.303514744785428,-1.6296692402780055,-0.6231374515458941
2024-12-07 20:32:21.510285600,3.89228564453125,-0.2566319245140999,-1.620664096045494,-0.3650254445418715
2024-12-07 20:32:21.520298800,3.902298828125,-0.2186350790750235,-1.3720523233145474,-0.2754261298984289
2024-12-07 20:32:21.530312400,3.9123125,-0.2710428002476692,-0.9857283624172212,-0.2453203299701213
2024-12-07 20:32:21.540326700,3.92232666015625,-0.4726899927079677,-0.6139958214521408,-0.2192059377655386
2024-12-07 20:32:21.550340600,3.932340576171875,-0.7637018142729998,-0.329279885160923,-0.2404845803767442
2024-12-07 20:32:21.560354800,3.942354736328125,-1.141343433151394,-0.2214239060759544,-0.2658303262963891
2024-12-07 20:32:21.570367500,3.952367431640625,-1.327576783380657,-0.3426514079093933,-0.232113057872653
2024-12-07 20:32:21.580381700,3.962381591796875,-1.2570517331719395,-0.6461205599874258,-0.2838844539031386
2024-12-07 20:32:21.590395600,3.972395751953125,-1.0390730721790342,-1.0320452924340964,-0.1741647267729044
2024-12-07 20:32:21.600409600,3.98240966796875,-0.7232757689256221,-1.345408062016964,0.0850830062627792
2024-12-07 20:32:21.610422500,3.992422607421875,-0.2007698981691151,-1.3469213891893626,0.1924339584350586
2024-12-07 20:32:21.620436700,4.002436767578125,0.1182984626442194,-0.8436813599169254,0.1669119791656732
2024-12-07 20:32:21.630450700,4.01245068359375,0.0992301895588636,-0.1496960559487342,0.2245323934853076
2024-12-07 20:32:21.640464600,4.022464599609375,0.0228916307657957,0.5253361257463693,0.2781570161670446
2024-12-07 20:32:21.650477600,4.0324775390625,-0.1266536185353994,1.2358973014622927,0.2757908715575933
2024-12-07 20:32:21.660491800,4.04249169921875,-0.7748088992208242,2.106414645856619,0.4358215667769312
2024-12-07 20:32:21.670505500,4.05250537109375,-1.629047308987379,3.118145464536548,0.8404246962085365
2024-12-07 20:32:21.680519700,4.062519775390625,-2.4212919116556644,4.153232024362684,1.3128534076318144
2024-12-07 20:32:21.690533600,4.07253369140625,-2.898655741393566,4.985839617079496,1.648208521053195
2024-12-07 20:32:21.700546800,4.082546875,-2.6915415156990288,5.320244590169192,1.747943445263803
2024-12-07 20:32:21.710560500,4.092560546875,-2.0130904654711483,4.823565819108486,1.3528718220263718
2024-12-07 20:32:21.720574700,4.10257470703125,-1.3404045546412466,3.385086090162396,0.4421905172869563
2024-12-07 20:32:21.730588700,4.112588623046875,-0.5530524001896381,0.9757418059319256,-0.2801139954537153
2024-12-07 20:32:21.740601600,4.1226015625,0.6351321329832077,-1.3138298514485358,-0.8566054311588406
2024-12-07 20:32:21.750615600,4.132615478515625,1.6596774250507351,-2.773277549621463,-1.656789010132849
2024-12-07 20:32:21.760629800,4.142629638671875,1.8891572118103503,-3.339715501084924,-2.408052490854263
2024-12-07 20:32:21.770643700,4.152643798828125,1.1894886015087365,-3.2195962527543305,-2.891168892769515
2024-12-07 20:32:21.780656600,4.16265673828125,0.6060872402846813,-2.5558038424760103,-3.038442105485499
2024-12-07 20:32:21.790670600,4.172670654296875,0.5440402051618323,-1.5766975285470484,-2.736693785850703
2024-12-07 20:32:21.800684800,4.182684814453125,0.6491483833760022,-0.6167430743336677,-1.9026915239050983
2024-12-07 20:32:21.810698500,4.192698486328125,0.7303864046484232,0.2025590466082096,-0.957085328517854
2024-12-07 20:32:21.820712400,4.20271240234375,0.672599401590228,0.8150403718441724,-0.2393894786164164
2024-12-07 20:32:21.830725600,4.2127255859375,0.6563397561848163,1.121133442685008,0.3410261447951197
2024-12-07 20:32:21.840739800,4.22273974609375,0.4829582887440919,1.1279472143530844,0.710309831303358
2024-12-07 20:32:21.850753500,4.23275341796875,0.1567734469890594,0.8938771771937608,0.7059393611341714
2024-12-07 20:32:21.860767500,4.242767578125,-0.2265636070519685,0.6158733057618141,0.4884764676436781
2024-12-07 20:32:21.870780700,4.25278076171875,-0.4015332204669714,0.3958867390125989,0.2134615488946437
2024-12-07 20:32:21.880794600,4.262794677734375,-0.149717098736763,0.222763630247116,-0.0663134238630533
2024-12-07 20:32:21.890808600,4.27280859375,0.4636345795929432,0.019310265147686,-0.3475903256163001
2024-12-07 20:32:21.900822500,4.282822509765625,1.1837667167305943,-0.265410931840539,-0.6002563421741127
2024-12-07 20:32:21.910836700,4.292836669921875,1.653313150715828,-0.4796376198887824,-0.7403381820812821
2024-12-07 20:32:21.920849700,4.302849609375,1.7364122896850107,-0.6751923406928777,-0.8121139630034565
2024-12-07 20:32:21.930863600,4.312863525390625,1.5844038651406764,-0.7451917595922947,-0.8345029049441218
2024-12-07 20:32:21.940877600,4.322877685546875,1.399271754151583,-0.6793956376016139,-0.7602145566791295
2024-12-07 20:32:21.950891800,4.332891845703125,1.270445467752218,-0.588157615840435,-0.6599769436433911
2024-12-07 20:32:21.960904700,4.34290478515625,1.149753387969732,-0.4247258800059557,-0.562696426847577
2024-12-07 20:32:21.970918700,4.352918701171875,0.9592729016900062,-0.1649602605760097,-0.4786494856342673
2024-12-07 20:32:21.980932600,4.3629326171875,0.8459364453673363,0.1231342122375965,-0.4586936160594225
2024-12-07 20:32:21.990946600,4.372946533203125,0.7587631888270377,0.338563846334815,-0.4279664693623781
2024-12-07 20:32:22.000959700,4.382959716796875,0.7662848165035248,0.3962549878031015,-0.4362535284534096
2024-12-07 20:32:22.010973700,4.3929736328125,0.7713210571050644,0.3790905025124549,-0.4402931592330336
2024-12-07 20:32:22.020987400,4.4029873046875,0.8122001799821853,0.2263853278756141,-0.4607268754526972
2024-12-07 20:32:22.031001600,4.413001708984375,0.8963783463597297,0.1160334403216838,-0.441864646333456
2024-12-07 20:32:22.041015600,4.423015625,0.9746189393818376,0.0173030169785022,-0.372212141175568
2024-12-07 20:32:22.051028700,4.43302880859375,1.0345137283742427,-0.0618465075820684,-0.2796414095059037
2024-12-07 20:32:22.061042400,4.44304248046875,1.0527017114937305,-0.0743120214015245,-0.1368240071550011
2024-12-07 20:32:22.071056600,4.453056640625,1.0597954691469669,0.0099678517848253,0.0253942612364888
2024-12-07 20:32:22.081070600,4.463070556640625,0.9277566504418848,0.1735842965364456,0.0757373780295252
2024-12-07 20:32:22.091083500,4.47308349609375,0.6609761838138103,0.3792518305540084,0.135235276658833
2024-12-07 20:32:22.101097500,4.483097412109375,0.3603554069042206,0.4336936148375273,0.1713882477968931
2024-12-07 20:32:22.111111700,4.493111572265625,0.0719650929491966,0.3628045536220073,0.0163897015258669
2024-12-07 20:32:22.121125600,4.503125732421875,-0.178914003659226,0.2453127311855554,-0.3307479118868708
2024-12-07 20:32:22.131138600,4.513138671875,-0.3474923451345413,0.1144037932932376,-0.7429743758037686
2024-12-07 20:32:22.141152500,4.523152587890625,-0.2829612015783787,0.0519908840000629,-1.0077686370506882
2024-12-07 20:32:22.151166700,4.533166748046875,-0.1270282970666885,-0.066315761950612,-1.1482517512351271
2024-12-07 20:32:22.161180700,4.5431806640625,-0.0530676098534837,-0.1897977647125721,-1.1282172634661196
2024-12-07 20:32:22.171194600,4.553194580078125,0.0516015558889135,-0.2458388008862733,-1.0048474889069794
2024-12-07 20:32:22.181208600,4.56320849609375,0.2819030708275735,-0.2391734977781772,-0.8557511524170637
2024-12-07 20:32:22.191222500,4.573222412109375,0.5321311927139759,-0.2035696849554777,-0.692081223912537
2024-12-07 20:32:22.201236500,4.583236572265625,0.8631295722305774,-0.198688342654705,-0.5062178760394453
2024-12-07 20:32:22.211250400,4.59325048828125,1.098417168486118,-0.1904968528926372,-0.3356406523644924
2024-12-07 20:32:22.221263400,4.603263427734375,1.1522387019794431,-0.1627022525161504,-0.1910042178928852
2024-12-07 20:32:22.231277600,4.613277587890625,1.0823825640082358,-0.1356184307575225,-0.0349400882169604
2024-12-07 20:32:22.241291500,4.62329150390625,0.8868738743029534,-0.1512660817444324,0.0864236072167754
2024-12-07 20:32:22.251305500,4.633305419921875,0.5823579165857284,-0.1614800172448158,0.2176090239629149
2024-12-07 20:32:22.261318400,4.643318359375,0.2533702923696488,-0.170564071932435,0.3307183935314416
2024-12-07 20:32:22.271332600,4.65333251953125,-0.0592063683368265,-0.1710071395248174,0.4641939670413732
2024-12-07 20:32:22.281346600,4.6633466796875,-0.3337890331484377,-0.1769640021026134,0.5451616469398141
2024-12-07 20:32:22.291360500,4.673360595703125,-0.5627531254708766,-0.2388502571731805,0.5919727902144193
2024-12-07 20:32:22.301374500,4.68337451171875,-0.6476118214584886,-0.3609095336556434,0.6291562734439968
2024-12-07 20:32:22.311387600,4.6933876953125,-0.4955998167175799,-0.4245435091763734,0.759466807051748
2024-12-07 20:32:22.321401600,4.703401611328125,-0.2115992621541023,-0.4210322861850261,0.8331501751609146
2024-12-07 20:32:22.331415300,4.713415283203125,0.0610439590275287,-0.339738735333085,0.8423043724752962
2024-12-07 20:32:22.341429500,4.723429443359375,0.2686123582303524,-0.2199374669104814,0.8316852171748876
2024-12-07 20:32:22.351442700,4.733442626953125,0.4177063566327095,-0.127737906640768,0.683102237034589
2024-12-07 20:32:22.361456400,4.743456298828125,0.4072035211883485,-0.134987147116661,0.3769787710554897
2024-12-07 20:32:22.371470300,4.75347021484375,0.3173893947504461,-0.1865185969114303,0.0433405445545911
2024-12-07 20:32:22.381484500,4.763484619140625,0.1275683952927589,-0.1680921288609504,-0.2521303022459149
2024-12-07 20:32:22.391498500,4.77349853515625,-0.1255554480351507,-0.166934775519371,-0.4699208202555775
2024-12-07 20:32:22.401511400,4.783511474609375,-0.436766592542082,-0.156046886280179,-0.5898758179351687
2024-12-07 20:32:22.411525400,4.793525390625,-0.7301883978582918,-0.1225964520990848,-0.5908940550670028
2024-12-07 20:32:22.421539600,4.80353955078125,-0.9022305795192718,-0.0943260509043932,-0.4962644911713897
2024-12-07 20:32:22.431553500,4.813553466796875,-0.9229707313396036,-0.0544908841222524,-0.2477235917195677
2024-12-07 20:32:22.441566500,4.82356640625,-0.8091257409729063,-0.0709480979263782,0.0297892813250422
2024-12-07 20:32:22.451580400,4.833580322265625,-0.6097311497449874,-0.1550736573338508,0.2710615049481392
2024-12-07 20:32:22.461594600,4.8435947265625,-0.4980909759461879,-0.2406868249505758,0.456198145981878
2024-12-07 20:32:22.471608300,4.8536083984375,-0.5420084436058997,-0.3109223906934261,0.7199835224471985
2024-12-07 20:32:22.481621500,4.86362158203125,-0.652210255164653,-0.3195587016135454,0.983928619518876
2024-12-07 20:32:22.491635500,4.873635498046875,-0.7652654103279113,-0.3140945909887552,1.2231740134894846
2024-12-07 20:32:22.501649400,4.8836494140625,-0.8162569080270826,-0.3145867584198713,1.3510292628996072
2024-12-07 20:32:22.511663400,4.893663330078125,-0.7451134336590767,-0.2509206341952085,1.3347666948847472
2024-12-07 20:32:22.521676500,4.903676513671875,-0.592767009332031,-0.1450841782391071,1.1996012685917317
2024-12-07 20:32:22.531690500,4.9136904296875,-0.5104805019199848,-0.0266232185095548,1.1025343945465982
2024-12-07 20:32:22.541704400,4.923704345703125,-0.4887069153986871,-0.056690439993143,0.9057947017416358
2024-12-07 20:32:22.551718400,4.933718505859375,-0.4578488357983529,-0.098048870819807,0.7557077467791735
2024-12-07 20:32:22.561732600,4.943732666015625,-0.4068561690554022,-0.1317892278581857,0.7087761919952928
2024-12-07 20:32:22.571745300,4.953745361328125,-0.3494280624374747,-0.1679050818562507,0.7008116428568959
2024-12-07 20:32:22.581759500,4.963759521484375,-0.2711621888436377,-0.2202057624578476,0.7139760987259447
2024-12-07 20:32:22.591773400,4.9737734375,-0.1654652874886989,-0.1935012954056262,0.7642471731960773
2024-12-07 20:32:22.601787600,4.98378759765625,0.0093112875722348,-0.180239662772417,0.8185686921007931
2024-12-07 20:32:22.611800300,4.99380029296875,0.2156055751860141,-0.1844096419334411,0.8359393674880266
2024-12-07 20:32:22.621814500,5.003814453125,0.4117322506591677,-0.1258797115534544,0.8652211376823484
2024-12-07 20:32:22.631828500,5.013828369140625,0.5736430605366826,0.0326525618016719,0.9923483650788664
2024-12-07 20:32:22.641842700,5.0238427734375,0.7078843577221036,0.2467781275629997,1.1495721861839294
2024-12-07 20:32:22.651855400,5.03385546875,0.8106874373316765,0.4793184709370136,1.3596572443827986
2024-12-07 20:32:22.661869600,5.04386962890625,0.9160708888232708,0.7273568276941775,1.6274528794027865
2024-12-07 20:32:22.671883500,5.053883544921875,1.107775656200945,1.012674237009883,1.77238478968963
2024-12-07 20:32:22.681897500,5.0638974609375,1.31157505825907,1.3555623762845992,1.7772589715972542
2024-12-07 20:32:22.691911400,5.073911376953125,1.4323942715525626,1.685459516561031,1.5962462786257263
2024-12-07 20:32:22.701924600,5.083924560546875,1.3029051373302936,1.838222558864951,1.1030066151682287
2024-12-07 20:32:22.711938300,5.093938232421875,0.8524366210415959,1.7753075452685354,0.3484091677185147
2024-12-07 20:32:22.721952500,5.103952392578125,0.2384017827533185,1.5854408069729804,-0.4907540571868419
2024-12-07 20:32:22.731966500,5.113966552734375,-0.6400760191261768,1.2487176200687884,-1.3455191211760045
2024-12-07 20:32:22.741979600,5.123979736328125,-1.889183807556331,0.857208950009942,-2.068881326276064
2024-12-07 20:32:22.751993300,5.133993408203125,-3.439423245027661,0.4695715684264898,-2.4121213477283714
2024-12-07 20:32:22.762007600,5.144007568359375,-4.271089757502079,0.2672159354358911,-1.8868556568697088
2024-12-07 20:32:22.772021500,5.154021484375,-3.154609693580866,0.1365086575955152,-0.6442040588416159
2024-12-07 20:32:22.782034400,5.164034423828125,-1.0600178797259927,-0.0681131667613983,0.3408906087819486
2024-12-07 20:32:22.792048400,5.17404833984375,0.303633256598562,-0.2258387999087572,1.1049470086462796
2024-12-07 20:32:22.802062600,5.1840625,0.7974407100066542,-0.2766366747319698,1.7280542111843824
2024-12-07 20:32:22.812076500,5.19407666015625,0.7944936967693269,-0.2901303625553846,2.0444066641025245
2024-12-07 20:32:22.822090500,5.204090576171875,0.4308928782030939,-0.2722527605593204,2.0421546473920342
2024-12-07 20:32:22.832103400,5.214103515625,-0.1277849606528878,-0.2009983731627464,1.7572985719777643
2024-12-07 20:32:22.842117600,5.22411767578125,-0.6667958298780023,-0.1089987193793058,1.277192165533453
2024-12-07 20:32:22.852131600,5.234131591796875,-0.9615480070151388,-0.0282172097027301,0.6762186150006949
2024-12-07 20:32:22.862145500,5.2441455078125,-1.101958348224312,-0.0065244333326816,0.1165361291468143
2024-12-07 20:32:22.872158500,5.254158447265625,-1.1655414703406393,-0.0890811359882354,-0.2610042213141918
2024-12-07 20:32:22.882172700,5.264172607421875,-1.2067350659944116,-0.1874830580294132,-0.3963787603132426
2024-12-07 20:32:22.892186400,5.274186279296875,-1.1806477079272268,-0.3089040366083383,-0.3686709614373743
2024-12-07 20:32:22.902200600,5.28420068359375,-1.180081744607538,-0.4894108258843421,-0.3740796886131167
2024-12-07 20:32:22.912213500,5.294213623046875,-1.1164087522506714,-0.6779770029753446,-0.3784004744216799
2024-12-07 20:32:22.922227500,5.3042275390625,-0.9807435597419738,-0.7810580227434635,-0.3900489727698266
2024-12-07 20:32:22.932241400,5.314241455078125,-0.8599381557781248,-0.7673422166019678,-0.4135252715557813
2024-12-07 20:32:22.942255600,5.324255615234375,-0.9231752409357578,-0.6982599125474691,-0.5010710146702826
2024-12-07 20:32:22.952269600,5.33426953125,-1.0512767201919109,-0.5415086773902178,-0.6720731857590377
2024-12-07 20:32:22.962282500,5.344282470703125,-1.017797644438222,-0.2067962457865476,-0.7639582732520998
2024-12-07 20:32:22.972296400,5.35429638671875,-0.7404489489793777,0.2547130122154951,-0.8009197842940687
2024-12-07 20:32:22.982310700,5.364310546875,-0.3794260546097531,0.7626292166054248,-0.8515716747753321
2024-12-07 20:32:22.992324600,5.37432470703125,0.0115933706274256,1.1931465394943952,-1.0027874876372516
2024-12-07 20:32:23.002337500,5.384337646484375,0.3469417985796928,1.4881465539127587,-1.1706778103157878
2024-12-07 20:32:23.012351500,5.3943515625,0.499178186661005,1.6255898620098828,-1.2478611493699252
2024-12-07 20:32:23.022365700,5.40436572265625,0.4937105689048767,1.6167308482497929,-1.1954537935234606
2024-12-07 20:32:23.032379400,5.41437939453125,0.5543851100981235,1.4602818109095097,-1.041860437875241
2024-12-07 20:32:23.042392600,5.424392578125,0.7460884161710739,1.258278644618392,-0.9973650241971016
2024-12-07 20:32:23.052406500,5.434406494140625,1.14494569542706,1.1470394528359174,-0.7960539318233728
2024-12-07 20:32:23.062420500,5.44442041015625,1.629106345698237,1.0250590868085625,-0.529331625123322
2024-12-07 20:32:23.072434400,5.454434326171875,1.8698644823193549,1.062628062224388,-0.2289259522691369
2024-12-07 20:32:23.082448400,5.464448486328125,1.8759522778004407,1.3355933549672363,0.0809080586656928
2024-12-07 20:32:23.092461600,5.474461669921875,1.6985668354153631,1.5564292320221662,0.3545739008933306
2024-12-07 20:32:23.102475500,5.4844755859375,1.422569043108821,1.4994775107443332,0.4915323480829596
2024-12-07 20:32:23.112489500,5.494489501953125,1.0707973401546478,1.187087385585904,0.634504940995574
2024-12-07 20:32:23.122503400,5.50450341796875,0.7641437128216028,0.829485661303997,0.7332412095576525
2024-12-07 20:32:23.132516400,5.514516357421875,0.5004103588044643,0.5064952316761017,0.8541638832256198
2024-12-07 20:32:23.142530600,5.524530517578125,0.367076276124455,0.1470282980442047,0.992632442717254
2024-12-07 20:32:23.152544500,5.53454443359375,0.2753455024102703,-0.2373380990445613,0.732559364773333
2024-12-07 20:32:23.162558500,5.544558349609375,0.287153465636447,-0.5256979447960853,0.1242848435774445
2024-12-07 20:32:23.172571400,5.5545712890625,0.4594506084391846,-0.6783014126241207,-0.5025178524777293
2024-12-07 20:32:23.182585600,5.564585693359375,0.6205886438459157,-0.6720271546602249,-0.9742898535579444
2024-12-07 20:32:23.192599300,5.574599365234375,0.7150888822734356,-0.6265455064237118,-1.3186103637233375
2024-12-07 20:32:23.202613200,5.58461328125,0.7655692886453122,-0.5579582924097776,-1.5676397773444652
2024-12-07 20:32:23.212627500,5.59462744140625,0.804184558243677,-0.4756745614767074,-1.757495701985061
2024-12-07 20:32:23.222640400,5.604640380859375,0.8059557326346636,-0.4320762427687645,-1.9559937827646727
2024-12-07 20:32:23.232654300,5.614654296875,0.788507754227519,-0.4009153808295727,-2.1785613059178
2024-12-07 20:32:23.242668300,5.624668212890625,0.6621919162791222,-0.4781178629755973,-2.485973058141768
2024-12-07 20:32:23.252682500,5.6346826171875,0.4849000704616308,-0.5724947672843933,-2.642008253984153
2024-12-07 20:32:23.262695400,5.6446953125,0.2201046401709318,-0.7005798799276352,-2.660955531038344
2024-12-07 20:32:23.272709400,5.65470947265625,-0.1308844610381871,-0.791549606141448,-2.5560738915890453
2024-12-07 20:32:23.282723300,5.664723388671875,-0.51399581656456,-0.7885913408577442,-2.2821800858244297
2024-12-07 20:32:23.292737500,5.674737548828125,-0.8693306918930261,-0.7215209611475467,-1.8761200355827807
2024-12-07 20:32:23.302750500,5.68475048828125,-1.3130454230725763,-0.5867343050390481,-1.3597972373753786
2024-12-07 20:32:23.312764400,5.694764404296875,-1.7377841625601052,-0.3512316047281026,-0.7328145085781812
2024-12-07 20:32:23.322778400,5.7047783203125,-2.0506522804938254,-0.0468494294583797,0.0470256628081202
2024-12-07 20:32:23.332792300,5.714792236328125,-2.17280698017478,0.2965753009110689,0.9136156046256424
2024-12-07 20:32:23.342806300,5.72480615234375,-2.0505565650343893,0.5885135896712541,1.7529568895116447
2024-12-07 20:32:23.352819500,5.7348193359375,-1.5277549262017012,0.7247843468576669,2.414046470572054
2024-12-07 20:32:23.362833200,5.744833251953125,-0.9452577472757548,0.6882645882338285,2.731408831185102
2024-12-07 20:32:23.372847400,5.754847412109375,-0.4624794912736862,0.3767494923442602,2.580560390330851
2024-12-07 20:32:23.382861300,5.764861328125,-0.1730131455849856,-0.3705740185797214,1.6479671135127545
2024-12-07 20:32:23.392874500,5.77487451171875,-0.1072492453634738,-1.293471538552642,0.7351867906674743
2024-12-07 20:32:23.402888200,5.78488818359375,-0.1505740078270435,-1.9053437919795515,0.298425020430982
2024-12-07 20:32:23.412902400,5.79490234375,-0.1499896320678293,-2.247023724508286,0.0017541501909494
2024-12-07 20:32:23.422916400,5.804916259765625,-0.1773369270682334,-2.488727033025026,-0.2447656186968088
2024-12-07 20:32:23.432929300,5.81492919921875,-0.2088790434099733,-2.652823370248079,-0.4650409392595291
2024-12-07 20:32:23.442943200,5.824943115234375,-0.2048055103607475,-2.657786545613408,-0.6202335467979312
2024-12-07 20:32:23.452957400,5.83495751953125,-0.3472053448867052,-2.4456068532228468,-0.5964473052799701
2024-12-07 20:32:23.462971400,5.844971435546875,-0.3020551205616444,-2.082738002192974,-0.4740066282644867
2024-12-07 20:32:23.472985300,5.8549853515625,-0.1549180283807218,-1.6442109758496284,-0.2438487961128354
2024-12-07 20:32:23.482998300,5.864998291015625,-0.1691892764478921,-1.2341443203151226,0.0467141126409173
2024-12-07 20:32:23.493012500,5.875012451171875,-0.3110129185210913,-0.9591004677325486,0.3184127464488148
2024-12-07 20:32:23.503026400,5.8850263671875,-0.3428629317682236,-0.8240344101607799,0.5076175137042999
2024-12-07 20:32:23.513040400,5.895040283203125,-0.1569078870236873,-0.7835287967711687,0.6047600833341479
2024-12-07 20:32:23.523053300,5.90505322265625,0.0201467159718275,-0.7571516619771719,0.5321174564495682
2024-12-07 20:32:23.533067500,5.915067626953125,-0.1493470963805913,-0.7573977456927299,0.4372229580074548
2024-12-07 20:32:23.543081200,5.925081298828125,-0.5838659830611199,-0.7275877138406038,0.2747591904222965
2024-12-07 20:32:23.553095400,5.935095458984375,-1.0549363386780024,-0.5357978985279798,0.1539911227941513
2024-12-07 20:32:23.563108400,5.9451083984375,-1.3556705128341913,-0.2810743649184704,0.1055944638937711
2024-12-07 20:32:23.573122300,5.955122314453125,-1.5252566796451803,0.0435977341860532,0.0767360336780548
2024-12-07 20:32:23.583136300,5.96513623046875,-1.5032750033311546,0.4733429036587476,0.2143625893875956
2024-12-07 20:32:23.593150500,5.975150390625,-1.241398236966133,1.1029285084307192,0.3521338142648339
2024-12-07 20:32:23.603164400,5.985164306640625,-0.6617040596969426,2.105826032313705,0.5943073706418276
2024-12-07 20:32:23.613177300,5.99517724609375,-0.0932042803328484,3.4282892720729112,0.9142571173995732
2024-12-07 20:32:23.623191300,6.00519140625,0.1059288834799081,4.395004306462407,1.1276415094047785
2024-12-07 20:32:23.633205500,6.01520556640625,-0.3476232049725949,4.785537994009256,1.2025585109621286
2024-12-07 20:32:23.643219500,6.025219482421875,-0.8267412579666823,4.479930076336861,1.1110466406956314
2024-12-07 20:32:23.653232400,6.035232421875,-0.7542622972112148,2.594616680473089,1.1533745010763403
2024-12-07 20:32:23.663246300,6.045246337890625,0.259446470478177,-0.1410954008638858,1.0080611902564764
2024-12-07 20:32:23.673260500,6.055260498046875,1.822345775297284,-2.1180939777344463,-0.3572553950622678
2024-12-07 20:32:23.683274200,6.065274169921875,2.4733108527064323,-3.1857109342873096,-2.4378543393999337
2024-12-07 20:32:23.693287400,6.075287353515625,1.1487778209358452,-3.182252318266034,-4.020950921334326
2024-12-07 20:32:23.703301400,6.08530126953125,-0.0841775087904185,-2.2780016310960054,-4.756013501100242
2024-12-07 20:32:23.713315600,6.095315673828125,-0.4364513891130686,-1.0399661485612393,-4.661117541353404
2024-12-07 20:32:23.723329300,6.105329345703125,0.258794217114523,0.0979506711423397,-3.892427709534764
2024-12-07 20:32:23.733342500,6.115342529296875,1.1995044571537523,1.0906605630099773,-2.7352582000896333
2024-12-07 20:32:23.743356400,6.1253564453125,1.7118892583250995,1.6001777728557585,-1.6089523232027887
2024-12-07 20:32:23.753370400,6.135370361328125,1.954758103489876,1.871489453172684,-0.8785586120307445
2024-12-07 20:32:23.763384300,6.14538427734375,1.7566127816706896,2.0148837786287066,-0.468261947132647
2024-12-07 20:32:23.773398300,6.155398193359375,1.178636368104815,1.61630706987977,-0.3431158105507493
2024-12-07 20:32:23.783411200,6.1654111328125,0.6374257968783378,0.8268874615043401,-0.4307356418147683
2024-12-07 20:32:23.793425400,6.17542529296875,0.3909497940670698,0.2214168918132781,-0.5963415068179369
2024-12-07 20:32:23.803439400,6.185439453125,0.359146031114459,-0.1265823068648576,-0.745515584719181
2024-12-07 20:32:23.813453300,6.195453369140625,0.3412111094405874,-0.2741729149669408,-0.9030158846780656
2024-12-07 20:32:23.823466200,6.20546630859375,0.3718570441275834,-0.2859574607849121,-1.037101991301775
2024-12-07 20:32:23.833480400,6.21548046875,0.5282487617900595,-0.2314987253665923,-1.0968933199197053
2024-12-07 20:32:23.843494400,6.225494384765625,0.8455576751828193,-0.1977355719745159,-1.03770814050138
2024-12-07 20:32:23.853508400,6.23550830078125,1.0606178914457558,-0.1799760434001684,-0.8764797599300742
2024-12-07 20:32:23.863521300,6.245521240234375,1.057510573080182,-0.2127846725463867,-0.6825348124101758
2024-12-07 20:32:23.873535500,6.255535400390625,0.8995061229914426,-0.179642865923047,-0.4941957220733165
2024-12-07 20:32:23.883549400,6.265549560546875,0.728327718552947,-0.1444786135613918,-0.2651131179377436
2024-12-07 20:32:23.893563400,6.2755634765625,0.6221241828501224,-0.0931359643369913,-0.0745484605059027
2024-12-07 20:32:23.903577300,6.285577392578125,0.5116963074505329,-0.0123000941246747,0.0216363700076937
2024-12-07 20:32:23.913590500,6.295590576171875,0.3808990132391452,0.115080085119605,0.0355596814200282
2024-12-07 20:32:23.923604500,6.3056044921875,0.1601005455851555,0.2353168223500251,0.0414379258036613
2024-12-07 20:32:23.933618400,6.315618408203125,0.0114414223355706,0.3154460055977106,0.0589344195276498
2024-12-07 20:32:23.943632400,6.32563232421875,0.0978501516436226,0.3666623980939388,0.1009630047008395
2024-12-07 20:32:23.953645600,6.3356455078125,0.2833329575002193,0.3509019343823194,0.1211164426743984
2024-12-07 20:32:23.963659300,6.3456591796875,0.4288087654054164,0.2802648021012544,0.0062733811810612
2024-12-07 20:32:23.973673200,6.355673095703125,0.3971557360351085,0.1929799018800258,-0.2142190892636775
2024-12-07 20:32:23.983687400,6.3656875,0.223030135696195,0.0721545511066913,-0.3356955974221229
2024-12-07 20:32:23.993700400,6.375700439453125,0.0783212387765757,-0.0156079034984111,-0.3582654488876461
2024-12-07 20:32:24.003714300,6.38571435546875,0.1069312106565572,-0.0817453862726688,-0.3028334845229983
2024-12-07 20:32:24.013728300,6.395728271484375,0.351607415770553,-0.1973223149985075,-0.125688280634582
2024-12-07 20:32:24.023742500,6.405742431640625,0.9999030182421208,-0.2224824752181768,0.1629357690110802
2024-12-07 20:32:24.033756200,6.415756103515625,1.589606109958887,-0.2484627196490764,0.4854802084371447
2024-12-07 20:32:24.043769300,6.425769287109375,1.715530829697847,-0.2360030510485172,0.6856281022503972
2024-12-07 20:32:24.053783300,6.435783203125,1.680603308701515,-0.1926478934466838,0.8706251886829733
2024-12-07 20:32:24.063797500,6.445797607421875,1.606864703273773,-0.2420966917484998,0.9292761150941252
2024-12-07 20:32:24.073811200,6.455811279296875,1.3183283319115635,-0.2326958261966705,0.9375824634075164
2024-12-07 20:32:24.083824400,6.465824462890625,0.8604887023329735,-0.254211492434144,0.7614706942200661
2024-12-07 20:32:24.093838300,6.47583837890625,0.35234387681894,-0.2811901002526283,0.4317626467749476
2024-12-07 20:32:24.103852300,6.485852294921875,-0.0924223361749202,-0.1492617561846971,0.1288505440577864
2024-12-07 20:32:24.113866200,6.4958662109375,-0.5976011514902114,-0.0189127902626991,-0.189644912238419
2024-12-07 20:32:24.123879400,6.50587939453125,-1.109910110946372,0.0075292264610528,-0.5190270887300372
2024-12-07 20:32:24.133893400,6.515893310546875,-1.3746972848653791,-0.0204296245664358,-0.8486553489372134
2024-12-07 20:32:24.143907300,6.5259072265625,-1.4342787701249122,-0.0649251843750476,-1.0915385148882866
2024-12-07 20:32:24.153921300,6.53592138671875,-1.3684604363024233,-0.1266553721010685,-1.1075900705009698
2024-12-07 20:32:24.163934500,6.5459345703125,-1.0344669666230677,-0.1776198356628417,-0.8885349393829702
2024-12-07 20:32:24.173948200,6.5559482421875,-0.4561059376537799,-0.275849323746562,-0.610306319284439
2024-12-07 20:32:24.183962600,6.565962646484375,0.1814087796170264,-0.3811544493049383,-0.3253451760604977
2024-12-07 20:32:24.193976300,6.575976318359375,0.7286158147793262,-0.4294675215750932,-0.0191696876332163
2024-12-07 20:32:24.203990500,6.585990478515625,0.985514500470832,-0.4148416148513555,0.2803472196877002
2024-12-07 20:32:24.214003500,6.59600341796875,1.0117408286172895,-0.4164455429166555,0.5879910271018743
2024-12-07 20:32:24.224017400,6.606017333984375,0.8481682230073958,-0.3845546131372451,0.917644421750307
2024-12-07 20:32:24.234031400,6.61603125,0.5789267730932682,-0.3342617652267217,1.124957969409227
2024-12-07 20:32:24.244045600,6.626045654296875,0.2133480785828083,-0.2913525978267192,1.2169485631033778
2024-12-07 20:32:24.254058500,6.63605859375,-0.1456114900488406,-0.2481640289634466,1.1686682240590451
2024-12-07 20:32:24.264072400,6.646072509765625,-0.4271523765005171,-0.1698848574966192,1.0471189429253338
2024-12-07 20:32:24.274086400,6.65608642578125,-0.5393127017159015,-0.0584270545274019,0.9158870566889644
2024-12-07 20:32:24.284100600,6.6661005859375,-0.5645734727658331,0.0279962604284286,0.7285553898289799
2024-12-07 20:32:24.294113300,6.67611328125,-0.4757273145772516,0.0653437020480632,0.5459975132420659
2024-12-07 20:32:24.304127500,6.68612744140625,-0.3189361858010291,-0.0191729025036096,0.2938476295128464
2024-12-07 20:32:24.314141400,6.696141357421875,-0.1047358743030577,-0.1937976480036974,0.1014370519533753
2024-12-07 20:32:24.324155600,6.70615576171875,0.2182080127693712,-0.2929121022284031,-0.0066290627509355
2024-12-07 20:32:24.334169300,6.71616943359375,0.4388859227836131,-0.3292413067162036,-0.1154234917297959
2024-12-07 20:32:24.344182500,6.7261826171875,0.5642939251720905,-0.3557148876219987,-0.1647819813996553
2024-12-07 20:32:24.354196500,6.736196533203125,0.4835390112414955,-0.2534539520651102,-0.1741886921703815
2024-12-07 20:32:24.364210700,6.746210693359375,0.3433667896371334,-0.1287824472576379,-0.1861401189878583
2024-12-07 20:32:24.374224400,6.756224365234375,0.1545065980356186,-0.054282794329524,-0.2013848882623016
2024-12-07 20:32:24.384237600,6.766237548828125,-0.1136157116554677,-0.073954878526926,-0.2230528224520385
2024-12-07 20:32:24.394251500,6.77625146484375,-0.4754525892890989,-0.1611713896870613,-0.2214190837703645
2024-12-07 20:32:24.404265500,6.786265380859375,-0.7698423628546297,-0.2933656912147999,-0.2252316277958452
2024-12-07 20:32:24.414279400,6.796279541015625,-0.8320179562605917,-0.3745312317728996,-0.0881599294900894
2024-12-07 20:32:24.424292600,6.806292724609375,-0.631040625885874,-0.3361538625836372,0.1572713135086
2024-12-07 20:32:24.434306300,6.816306396484375,-0.3240402309417724,-0.2902501895427704,0.3324572000227868
2024-12-07 20:32:24.444320500,6.826320556640625,-0.0615443097651004,-0.2215694520264864,0.4229765521205961
2024-12-07 20:32:24.454334500,6.83633447265625,0.0556651885986328,-0.1456377204686403,0.4183829407200217
2024-12-07 20:32:24.464347600,6.84634765625,0.1376687874160707,-0.0205646491229534,0.3902873115703463
2024-12-07 20:32:24.474361300,6.856361328125,0.1734814206838607,0.1246294192314147,0.3722352297902107
2024-12-07 20:32:24.484375600,6.86637548828125,0.2433715339899063,0.1855167263925075,0.3292342924535274
2024-12-07 20:32:24.494389500,6.876389404296875,0.2436355917535722,0.0797965902924537,0.2632416249774396
2024-12-07 20:32:24.504403700,6.88640380859375,0.2176442414067685,-0.1454810686022043,0.1513479148089885
2024-12-07 20:32:24.514416400,6.89641650390625,0.1842835313357412,-0.3301280264228582,0.0750453041121363
2024-12-07 20:32:24.524430600,6.9064306640625,0.1895290307737887,-0.4054728980034589,0.0277665433257818
2024-12-07 20:32:24.534444500,6.916444580078125,0.18105930859223,-0.3842658593237399,-0.0014952069938182
2024-12-07 20:32:24.544458500,6.92645849609375,0.1299206575073301,-0.3637988253563642,-0.1066965799167752
2024-12-07 20:32:24.554471400,6.936471435546875,0.0266788942195475,-0.3707341775774955,-0.2316344805754721
2024-12-07 20:32:24.564485600,6.946485595703125,-0.1353789229132235,-0.3374462404817342,-0.3033993017122149
2024-12-07 20:32:24.574499600,6.95649951171875,-0.3269676626957953,-0.1736918485641479,-0.2381369943372905
2024-12-07 20:32:24.584513500,6.966513427734375,-0.5208640948988497,0.0847621037453413,0.0197303902558982
2024-12-07 20:32:24.594526500,6.9765263671875,-0.6625707595288753,0.2612795311242342,0.4132378329165279
2024-12-07 20:32:24.604540700,6.986540771484375,-0.6887947495877742,0.3938753991901874,0.8719768955528736
2024-12-07 20:32:24.614554400,6.996554443359375,-0.5386588409170509,0.4872247140169143,1.3703707999683916
2024-12-07 20:32:24.624568600,7.006568603515625,-0.3799719615221023,0.4893927057057619,1.7723440192878246
2024-12-07 20:32:24.634582500,7.01658251953125,-0.257808201751858,0.2832815195739269,2.046638807068765
2024-12-07 20:32:24.644595500,7.026595458984375,-0.169966252169758,-0.0710392833411693,2.1668505559884013
2024-12-07 20:32:24.654609400,7.036609375,-0.0416593134693801,-0.4134691574543714,2.222873471983522
2024-12-07 20:32:24.664623600,7.04662353515625,0.1421349730446934,-0.5968763443470001,2.331233601198345
2024-12-07 20:32:24.674637600,7.056637451171875,0.4158978459060192,-0.4103624236106872,2.448561757505685
2024-12-07 20:32:24.684650500,7.066650390625,0.7867289079867303,0.2042810480952262,2.481319971638918
2024-12-07 20:32:24.694664400,7.07666455078125,1.037180317234993,0.8356593815028667,2.356108222474903
2024-12-07 20:32:24.704678700,7.0866787109375,1.0244796794854103,1.1991302900791168,1.8992523432366548
2024-12-07 20:32:24.714692600,7.096692626953125,0.8497286772571504,1.341198335367441,1.2563364245094355
2024-12-07 20:32:24.724705500,7.10670556640625,0.5737003436818718,1.3541776439279316,0.5454942398950458
2024-12-07 20:32:24.734719500,7.116719482421875,0.2312155245110392,1.2976631450235845,-0.1749611378476023
2024-12-07 20:32:24.744733700,7.126733642578125,-0.0980770740009844,1.243796530279517,-0.7986633836694061
2024-12-07 20:32:24.754747400,7.136747314453125,-0.3956663742601871,1.1045412043243643,-1.2952778573222457
2024-12-07 20:32:24.764760600,7.146760498046875,-0.6857727714180946,0.765706139832735,-1.7209186602160331
2024-12-07 20:32:24.774774500,7.1567744140625,-0.9464061135932804,0.3587222527444362,-1.902163116116821
2024-12-07 20:32:24.784788700,7.166788818359375,-1.133138060994446,0.0357002589344978,-1.5560779343664646
2024-12-07 20:32:24.794802400,7.176802490234375,-1.2206082546547057,-0.1295849958121776,-0.8357167377132922
2024-12-07 20:32:24.804816400,7.18681640625,-0.9570015957571566,-0.2411123568862676,-0.0545679679464548
2024-12-07 20:32:24.814829600,7.19682958984375,-0.4669815519332885,-0.346428588360548,0.5687059694606811
2024-12-07 20:32:24.824843500,7.206843505859375,-0.1020217199735343,-0.4270376640796661,0.9137595431409776
2024-12-07 20:32:24.834857500,7.216857421875,0.0963303764641285,-0.4227402591466903,1.0305619220085442
2024-12-07 20:32:24.844871400,7.226871337890625,0.0695350162580609,-0.4136556199371815,0.9537689705114812
2024-12-07 20:32:24.854884400,7.23688427734375,-0.2161433353245258,-0.4369897337734699,0.6912885391648859
2024-12-07 20:32:24.864898600,7.246898681640625,-0.6819128811195493,-0.4359510383754968,0.3414136097427457
2024-12-07 20:32:24.874912500,7.25691259765625,-1.1939347672626377,-0.2977174566835165,0.0985484909050166
2024-12-07 20:32:24.884926500,7.266926513671875,-1.5537828091666102,-0.0480512064635753,0.104848613962531
2024-12-07 20:32:24.894939400,7.276939453125,-1.650509783732891,0.2990495820701122,0.2973941430132836
2024-12-07 20:32:24.904953600,7.28695361328125,-1.4811973192967474,0.6484422809332608,0.5534925451725721
2024-12-07 20:32:24.914967600,7.296967529296875,-1.115936312433332,0.8701274682939052,0.8225636800210923
2024-12-07 20:32:24.924981500,7.3069814453125,-0.7068786878108978,0.9498644373536108,0.9974293216049672
2024-12-07 20:32:24.934994400,7.316994384765625,-0.3435327207885682,0.9090285690963268,1.0897792501308023
2024-12-07 20:32:24.945008600,7.327008544921875,-0.0925650325812399,0.7962772191852331,1.0833565236069262
2024-12-07 20:32:24.955022600,7.337022705078125,0.0147977561593055,0.5940326453536748,0.903820040667802
2024-12-07 20:32:24.965036300,7.347036376953125,-0.0072926412262022,0.3612450492203235,0.5905360354095697
2024-12-07 20:32:24.975050500,7.357050537109375,-0.1492073956489563,0.1028740990191698,0.2194882618382573
2024-12-07 20:32:24.985063700,7.367063720703125,-0.4593196390032768,-0.0653618222266435,-0.1114373447030782
2024-12-07 20:32:24.995077600,7.37707763671875,-0.7350655754406005,-0.1598959629237651,-0.3346320598438382
2024-12-07 20:32:25.005091300,7.38709130859375,-0.9710136814314873,-0.2140045697301626,-0.5298857518747448
2024-12-07 20:32:25.015105500,7.39710546875,-1.1455612700421365,-0.2874912462234497,-0.6457261538423598
2024-12-07 20:32:25.025118500,7.407118408203125,-1.1729530617713928,-0.3632914603561162,-0.6926657458022236
2024-12-07 20:32:25.035132400,7.41713232421875,-0.9685201110500842,-0.3873603182077407,-0.6740295805238187
2024-12-07 20:32:25.045146400,7.427146484375,-0.4823169951658695,-0.4365571875751018,-0.642973055741936
2024-12-07 20:32:25.055160600,7.43716064453125,0.1610861225564032,-0.466055669260025,-0.6136594291046261
2024-12-07 20:32:25.065173500,7.447173583984375,0.7280886491000652,-0.4355623313188552,-0.5494644587002694
2024-12-07 20:32:25.075187500,7.4571875,0.9854688346982,-0.412695834994316,-0.4869206165038049
2024-12-07 20:32:25.085201400,7.467201416015625,0.9938789356470108,-0.3405278398841619,-0.4240438890911638
2024-12-07 20:32:25.095215600,7.477215576171875,0.8455342943072318,-0.1876268504142761,-0.3961125105924904
2024-12-07 20:32:25.105228500,7.487228515625,0.6669628570079803,0.0082230539441108,-0.4026639780625701
2024-12-07 20:32:25.115242500,7.497242431640625,0.7006430082917213,0.1516378376662731,-0.4902908235892653
2024-12-07 20:32:25.125256400,7.50725634765625,0.848883604735136,0.3592752104520798,-0.6959665409132838
2024-12-07 20:32:25.135270700,7.517270751953125,0.9683207160204648,0.7680161703407764,-0.8433049278199672
2024-12-07 20:32:25.145284400,7.527284423828125,0.9984843836158512,1.2206290051817894,-0.9026324383184312
2024-12-07 20:32:25.155297500,7.537297607421875,0.973674936529994,1.6598995433688162,-0.8871130898863077
2024-12-07 20:32:25.165311500,7.5473115234375,1.1269681401878595,1.9216478610485792,-0.8063423938646912
2024-12-07 20:32:25.175325400,7.557325439453125,1.306134620770812,1.904124479317665,-0.7507292277142406
2024-12-07 20:32:25.185339400,7.56733935546875,1.362153445112705,1.718177544814348,-0.7295908703565597
2024-12-07 20:32:25.195352300,7.577352294921875,1.3874930535525083,1.3782085078567266,-0.6178174255669117
2024-12-07 20:32:25.205366300,7.5873662109375,1.4670412220418452,0.9659101477473974,-0.3712652157142758
2024-12-07 20:32:25.215380500,7.59738037109375,1.6837877839565276,0.6124684657543897,0.0664043170168995
2024-12-07 20:32:25.225394400,7.60739453125,1.6128098754137754,0.2247615260660648,0.6226569745525717
2024-12-07 20:32:25.235407400,7.617407470703125,1.3141922550201417,-0.2559071904361248,0.9275359934285282
2024-12-07 20:32:25.245421300,7.62742138671875,1.1552432906229049,-0.7423217571139336,0.9522945871099828
2024-12-07 20:32:25.255435500,7.637435546875,1.1334931580424308,-1.0861878015100956,0.7081164129123091
2024-12-07 20:32:25.265449200,7.64744921875,1.0940694216053932,-1.2123492526143789,0.2170741864338517
2024-12-07 20:32:25.275462400,7.65746240234375,0.9989946712255476,-1.1496674632519484,-0.2787681338027119
2024-12-07 20:32:25.285476400,7.667476318359375,0.7800526450932025,-0.9861860430568457,-0.7742334374204277
2024-12-07 20:32:25.295490300,7.677490234375,0.3779208011459559,-0.7489893983095884,-1.305133042512834
2024-12-07 20:32:25.305504300,7.687504150390625,-0.0058697688162326,-0.5725538039952516,-1.806051058578491
2024-12-07 20:32:25.315518500,7.6975185546875,-0.269700116934441,-0.359763286229968,-2.1590748074203727
2024-12-07 20:32:25.325531400,7.707531494140625,-0.5649035449704155,-0.1828483839660883,-2.3331749445244667
2024-12-07 20:32:25.335545300,7.71754541015625,-0.915814868235588,-0.2095376534491777,-2.39959153650105
2024-12-07 20:32:25.345559300,7.727559326171875,-1.278975249557942,-0.248304898738861,-2.246589132483304
2024-12-07 20:32:25.355573500,7.737573486328125,-1.5536930850565434,-0.2674146728783845,-1.8870570246607064
2024-12-07 20:32:25.365586200,7.747586181640625,-1.710647149309516,-0.2308048978835344,-1.4498098089948297
2024-12-07 20:32:25.375600400,7.757600341796875,-1.8159218797296284,-0.0965758756577968,-0.940887934693694
2024-12-07 20:32:25.385614300,7.7676142578125,-1.7292630024522542,0.0657680649399757,-0.3446291377231478
2024-12-07 20:32:25.395628500,7.777628662109375,-1.5036340459018944,0.2022656166195869,0.1904918844565749
2024-12-07 20:32:25.405641200,7.78764111328125,-1.1640530584137887,0.301429755204916,0.6247177064746617
2024-12-07 20:32:25.415655400,7.797655517578125,-0.877097307306528,0.2913385693013668,0.8355994680091738
2024-12-07 20:32:25.425669400,7.80766943359375,-0.7122977902501821,0.0427209513515233,0.7222191725447773
2024-12-07 20:32:25.435683600,7.81768359375,-0.6265057589352131,-0.5215846642583608,0.3283881970182061
2024-12-07 20:32:25.445696300,7.8276962890625,-0.5831536700733005,-1.242922085532546,0.0005339607462286
2024-12-07 20:32:25.455710500,7.83771044921875,-0.5938035127729178,-1.7729291256994009,-0.0883536984965205
2024-12-07 20:32:25.465724400,7.847724365234375,-0.5621726952344179,-2.15587221198678,-0.1540033977538347
2024-12-07 20:32:25.475738400,7.85773828125,-0.5550064568668603,-2.382885316371917,-0.1529869141876697
2024-12-07 20:32:25.485752300,7.86775244140625,-0.7058457645665854,-2.433442952698469,-0.1132172138571739
2024-12-07 20:32:25.495765500,7.877765625,-0.8156494436532259,-2.312926229482889,0.0745566438123583
2024-12-07 20:32:25.505779200,7.887779296875,-0.6633534343391656,-2.0049211875408885,0.4014955188050866
2024-12-07 20:32:25.515793400,7.89779345703125,-0.4401660257220268,-1.5164379978954792,0.7956950353831053
2024-12-07 20:32:25.525807400,7.907807373046875,-0.1354623634129762,-0.921253259897232,1.3385524970337748
2024-12-07 20:32:25.535820500,7.917820556640625,0.1927658207379281,-0.3257558026880026,1.9566668597206471
2024-12-07 20:32:25.545834200,7.927834228515625,0.2978974894255399,0.0867424639075994,2.3533871269479394
2024-12-07 20:32:25.555848400,7.937848388671875,0.3029172172836959,0.1521159765720367,2.37631587485373
2024-12-07 20:32:25.565862400,7.9478623046875,0.3284072670448571,-0.0993318963676691,1.8749188430994748
2024-12-07 20:32:25.575875300,7.957875244140625,0.2162521294612437,-0.4898007019847631,1.3519137906491756
2024-12-07 20:32:25.585889300,7.96788916015625,-0.1907856067061424,-0.8591086461514233,1.084726789046824
2024-12-07 20:32:25.595903500,7.977903564453125,-0.6473251134715974,-1.2487287259846924,0.9175155346736312
2024-12-07 20:32:25.605917400,7.98791748046875,-0.9249813405096532,-1.6570844859480858,0.8659224178195
2024-12-07 20:32:25.615930400,7.997930419921875,-0.9128576989304272,-2.009254832831025,0.6451566833913326
2024-12-07 20:32:25.625944300,8.0079443359375,-0.5276882418304681,-2.240381217753887,0.3937386210680008
2024-12-07 20:32:25.635958500,8.01795849609375,-0.3763717450730502,-2.313682600808144,0.182149588046968
2024-12-07 20:32:25.645972500,8.027972412109374,0.0899603299755603,-2.2504303180813787,-0.0894780263513326
2024-12-07 20:32:25.655986400,8.037986328125,1.3182745558977127,-1.7356150018274783,-0.4028153692319989
2024-12-07 20:32:25.665999400,8.047999267578126,1.945652421492338,-0.3934855230897665,-1.2913345265239475
2024-12-07 20:32:25.676013600,8.058013671875,0.4135637769352644,1.7431003891468049,-2.9250460279300805
2024-12-07 20:32:25.686027300,8.06802734375,-2.793899481889605,4.828963294237852,-3.792679341320693
2024-12-07 20:32:25.696041500,8.07804150390625,-4.475553176426887,7.513302915734052,-2.406813888970017
2024-12-07 20:32:25.706054400,8.088054443359376,-3.576639758631587,8.88222337076366,0.2227668451175093
2024-12-07 20:32:25.716068400,8.098068359375,-1.0880267073750496,9.191416161185504,2.1433128824040293
2024-12-07 20:32:25.726082300,8.108082275390625,1.0922954707354309,6.639646104270219,2.1389514723241327
2024-12-07 20:32:25.736096300,8.11809619140625,2.299279981446266,0.9598188451349736,-0.063156421136856
2024-12-07 20:32:25.746109400,8.128109375,2.2035656910538672,-2.479476389598846,-2.451915597978234
2024-12-07 20:32:25.756123400,8.138123291015624,0.7115045209806412,-3.621128888699412,-3.7722345191851256
2024-12-07 20:32:25.766137300,8.148137451171875,-0.0357447556633502,-4.010857105082273,-4.3410763169199225
2024-12-07 20:32:25.776151300,8.1581513671875,0.4401840728353708,-4.078654045501351,-4.537501390817761
2024-12-07 20:32:25.786164200,8.168164306640625,1.3220716100931167,-3.673571608120203,-4.390307380817831
2024-12-07 20:32:25.796178400,8.178178466796876,1.7135270886600016,-2.638645791813731,-3.733128251199424
2024-12-07 20:32:25.806192400,8.1881923828125,1.5286311245143414,-1.0513736777603626,-2.574258367577195
2024-12-07 20:32:25.816206300,8.198206298828126,1.2616402300059797,0.6308727219730615,-1.255122810935974
2024-12-07 20:32:25.826220300,8.20822021484375,1.0364426506102085,2.195087785565853,-0.0102507603794336
2024-12-07 20:32:25.836233500,8.2182333984375,0.6543716709822416,3.167029614692926,1.0007076126232743
2024-12-07 20:32:25.846247400,8.228247314453125,0.3789063781172037,2.994330868819356,1.58011727386266
2024-12-07 20:32:25.856261400,8.238261474609375,0.2746434733544476,1.8856056568086144,1.5434373562410473
2024-12-07 20:32:25.866275300,8.248275390625,0.2139134208479896,0.5822831708490849,1.0120476295441387
2024-12-07 20:32:25.876288500,8.25828857421875,0.2806675194169394,-0.2513707160502672,0.2760547831907868
2024-12-07 20:32:25.886302500,8.268302490234374,0.4072802396863699,-0.6157195765048266,-0.4112660944521427
2024-12-07 20:32:25.896316400,8.27831640625,0.5955600010514259,-0.6979787575185299,-0.8735343541279434
2024-12-07 20:32:25.906330400,8.288330322265624,0.7558972780019044,-0.6339508142441511,-1.1216551284715532
2024-12-07 20:32:25.916343600,8.298343505859375,0.8295388527959585,-0.5128016383439302,-1.1580708421990276
2024-12-07 20:32:25.926357200,8.308357177734376,0.923502500128746,-0.4405845433950424,-1.0329437025785446
2024-12-07 20:32:25.936371200,8.31837109375,1.023556281030178,-0.3898059577941894,-0.8568687582701444
2024-12-07 20:32:25.946385400,8.328385498046876,1.1651964562952517,-0.3968313263863325,-0.6288108210071921
2024-12-07 20:32:25.956398600,8.338398681640625,1.2383856111466884,-0.3939841202616691,-0.3472331827417015
2024-12-07 20:32:25.966412300,8.348412353515625,1.1219722315967082,-0.3622925124466419,-0.0712482499167323
2024-12-07 20:32:25.976426200,8.35842626953125,0.8619383166193961,-0.2584124512553215,0.1697141771048307
2024-12-07 20:32:25.986440400,8.3684404296875,0.6151227796554565,-0.1119955631077289,0.3414744730845093
2024-12-07 20:32:25.996453400,8.378453369140624,0.3988894279599189,0.0422153399169445,0.4739923074781894
2024-12-07 20:32:26.006467300,8.38846728515625,0.205997186097037,0.2299620173186063,0.5290455016583204
2024-12-07 20:32:26.016481300,8.398481201171874,0.0028361002087593,0.3601835574686527,0.4576043595179915
2024-12-07 20:32:26.026495500,8.40849560546875,-0.1729355503041297,0.3549994328290224,0.255455355015397
2024-12-07 20:32:26.036509200,8.41850927734375,-0.3094284258086234,0.2533154203772544,0.0051896775975823
2024-12-07 20:32:26.046522400,8.4285224609375,-0.3916191446959972,0.1583469799160957,-0.1981228177264332
2024-12-07 20:32:26.056536300,8.438536376953126,-0.405220969069004,0.098841482502222,-0.3950017728716135
2024-12-07 20:32:26.066550300,8.44855029296875,-0.2272690153749659,0.0388613533139228,-0.5212807128757239
2024-12-07 20:32:26.076564200,8.458564208984376,0.0750841748178005,-0.0303887085229158,-0.5557359401851892
2024-12-07 20:32:26.086577400,8.468577392578124,0.3720096408734097,-0.0281833074331283,-0.5630152835384011
2024-12-07 20:32:26.096591400,8.47859130859375,0.569236569206044,0.0876677620589733,-0.4796151157960295
2024-12-07 20:32:26.106605300,8.488605224609374,0.6933096697289496,0.2304869179755449,-0.3282248231500387
2024-12-07 20:32:26.116619300,8.498619384765625,0.7631997099697589,0.3567524139761924,-0.1498585530340671
2024-12-07 20:32:26.126632400,8.508632568359374,0.7780629325807095,0.4093225591689348,-0.0192640879184007
2024-12-07 20:32:26.136646100,8.518646240234375,0.624642230085656,0.2922843257188797,0.0350774508610367
2024-12-07 20:32:26.146660400,8.528660400390624,0.4486510185379534,0.0920499226659536,0.0495727169424295
2024-12-07 20:32:26.156674300,8.53867431640625,0.3489982196528464,-0.0790308666169643,0.0728135995373129
2024-12-07 20:32:26.166687500,8.5486875,0.3297883826723322,-0.1442547416776418,0.0759650493055582
2024-12-07 20:32:26.176701200,8.558701171875,0.3113654582858085,-0.1356856507748365,0.0246434428691864
2024-12-07 20:32:26.186715600,8.568715576171876,0.3443300817113369,-0.064290393602848,0.0202405317351222
2024-12-07 20:32:26.196729300,8.578729248046875,0.3826899883091449,-0.0002630348503589,-0.0055719549134373
2024-12-07 20:32:26.206743600,8.58874365234375,0.4446973124761134,0.0515495699733495,-0.0343576121538877
2024-12-07 20:32:26.216756500,8.598756591796874,0.5012941559016705,0.0496872832328081,-0.0885644186377525
2024-12-07 20:32:26.226770400,8.6087705078125,0.5366588262062519,0.0238262812674045,-0.109332189117372
2024-12-07 20:32:26.236784400,8.618784423828124,0.6882968100029975,0.0539081157982349,-0.0350394569382071
2024-12-07 20:32:26.246798600,8.628798583984375,0.9072446082890032,0.0394791929513216,0.0025686814442276
2024-12-07 20:32:26.256811300,8.638811279296876,0.9245792625147848,-0.0777191994965076,-0.0349845118805766
2024-12-07 20:32:26.266825500,8.648825439453125,0.8450490680735557,-0.2037701759636402,-0.0777092626243829
2024-12-07 20:32:26.276839400,8.65883935546875,0.8166506565850228,-0.345499783077836,-0.133911042317748
2024-12-07 20:32:26.286853600,8.668853515625,0.6370587171316147,-0.4431424111843109,-0.219197754459083
2024-12-07 20:32:26.296866300,8.6788662109375,0.4049415676057338,-0.4837205052882433,-0.2297074580356478
2024-12-07 20:32:26.306880500,8.688880615234375,0.2200432653725147,-0.4715080894470214,-0.2042082751199603
2024-12-07 20:32:26.316894500,8.69889453125,0.1755728400051593,-0.2987970686137676,-0.0991387118831276
2024-12-07 20:32:26.326908700,8.70890869140625,0.2881646154403686,-0.0748714088499546,0.0688929189622402
2024-12-07 20:32:26.336921300,8.71892138671875,0.3738450761396437,0.0806885706961154,0.1045776880666613
2024-12-07 20:32:26.346935600,8.728935546875,0.4878372198920697,0.0466372480124235,0.0388745050564408
2024-12-07 20:32:26.356949500,8.738949462890625,0.5187292748272418,-0.1235159050315618,-0.12585048545897
2024-12-07 20:32:26.366963500,8.74896337890625,0.3972339889030903,-0.2696539762377739,-0.3030114714384079
2024-12-07 20:32:26.376976400,8.758976318359375,0.2926220332406461,-0.2369932311296463,-0.3925263226687908
2024-12-07 20:32:26.386990600,8.768990478515626,0.2217174821950495,-0.0753495477557182,-0.4351142952904105
2024-12-07 20:32:26.397004500,8.779004638671875,0.1639513027291745,0.1043932714104652,-0.441336823067069
2024-12-07 20:32:26.407018500,8.7890185546875,0.0404558559637516,0.2218494380116462,-0.3742117905601859
2024-12-07 20:32:26.417031400,8.799031494140625,-0.1748644725400954,0.2000835964053869,-0.2112140622287988
2024-12-07 20:32:26.427045600,8.809045654296876,-0.3340717956125736,0.0641945320129394,-0.0268495746113359
2024-12-07 20:32:26.437059300,8.819059326171875,-0.3817642517663538,-0.0407704018056392,0.1766824086822569
2024-12-07 20:32:26.447073500,8.829073486328125,-0.2418552842080593,-0.1669692623108625,0.3876115164898335
2024-12-07 20:32:26.457087500,8.83908740234375,-0.0996949575264006,-0.3199386408418417,0.4876936467029154
2024-12-07 20:32:26.467100400,8.849100341796875,-0.0374305167932063,-0.4954132811695337,0.5262018026649952
2024-12-07 20:32:26.477114400,8.8591142578125,-0.0380021061360836,-0.6121317811459303,0.5421811698243022
2024-12-07 20:32:26.487128600,8.869128662109375,-0.0551120847605168,-0.6675561467260122,0.5452782590568065
2024-12-07 20:32:26.497142500,8.879142578125,-0.0130780927598476,-0.5487877284824848,0.5767087317176163
2024-12-07 20:32:26.507155500,8.889155517578125,0.0432137033045291,-0.3722609487533569,0.5340365879438818
2024-12-07 20:32:26.517169400,8.89916943359375,0.0313316884614527,-0.1781669481515884,0.4528747006475925
2024-12-07 20:32:26.527183600,8.90918359375,-0.0520925908088684,-0.0660410366624593,0.3144217771165072
2024-12-07 20:32:26.537197600,8.919197509765626,-0.1688356407046318,-0.1190454816192388,0.0827801361478865
2024-12-07 20:32:26.547210500,8.92921044921875,-0.3031494186043739,-0.2647141817480326,-0.1717506513684988
2024-12-07 20:32:26.557224400,8.939224365234375,-0.3970926076710224,-0.2754588631242513,-0.2650296774379909
2024-12-07 20:32:26.567238700,8.94923876953125,-0.4556513257540762,-0.1575216350078582,-0.2675761470504105
2024-12-07 20:32:26.577252400,8.95925244140625,-0.5019102419734001,-0.1021621513575315,-0.1517500658690929
2024-12-07 20:32:26.587265500,8.969265625,-0.549241463599354,-0.1242915655791759,-0.0598436433270573
2024-12-07 20:32:26.597279500,8.979279541015625,-0.5961420387230814,-0.2512128951400518,0.025568302629143
2024-12-07 20:32:26.607293700,8.989293701171874,-0.5985375555574893,-0.3733382225960492,0.1737581917986273
2024-12-07 20:32:26.617307400,8.999307373046875,-0.50041371980533,-0.4223942221879959,0.2854021649897098
2024-12-07 20:32:26.627321600,9.009321533203124,-0.3177088359631598,-0.3515022383630276,0.44151670967862
2024-12-07 20:32:26.637334500,9.01933447265625,-0.2461656947530806,-0.2623269943505525,0.4508573694758117
2024-12-07 20:32:26.647348500,9.029348388671876,-0.2522245564006269,-0.2030892079621553,0.4162663869574666
2024-12-07 20:32:26.657362400,9.039362548828125,-0.2868504641018807,-0.1783160012334585,0.3336453868940472
2024-12-07 20:32:26.667376600,9.049376708984376,-0.2981552635788917,-0.1209369944542646,0.2262386128813028
2024-12-07 20:32:26.677389300,9.059389404296876,-0.3058041708968579,0.0704185210943222,0.1853274874307215
2024-12-07 20:32:26.687403500,9.069403564453124,-0.2331996840655803,0.2735147433191537,0.110996761328727
2024-12-07 20:32:26.697417500,9.07941748046875,-0.1476081437587738,0.3385182536274194,-0.0110924719005823
2024-12-07 20:32:26.707431700,9.089431640625,-0.1042867422960698,0.2402390811830758,-0.1339670102886855
2024-12-07 20:32:26.717444400,9.0994443359375,-0.0532709869384765,0.125809568926692,-0.1333008014649152
2024-12-07 20:32:26.727458600,9.10945849609375,0.0062402095638215,0.1098299095064401,0.0576893879026174
2024-12-07 20:32:26.737472500,9.119472412109374,0.0518237107396125,0.1454185247600078,0.3574881809048354
2024-12-07 20:32:26.747486500,9.129486572265623,0.0936509281218051,0.1446282511651516,0.6820414759352803
2024-12-07 20:32:26.757499400,9.13949951171875,0.1275119889304042,0.1639420234441757,1.0440415813066064
2024-12-07 20:32:26.767513600,9.149513671875,0.2031318780601024,0.2611556124836206,1.381341691315919
2024-12-07 20:32:26.777527600,9.159527587890626,0.2963023291885853,0.3446282609403133,1.649056954576075
2024-12-07 20:32:26.787541500,9.16954150390625,0.36624972563982,0.4101104946762323,1.850912821350992
2024-12-07 20:32:26.797554400,9.179554443359375,0.4156235590092837,0.4149854072362184,1.9741608692266048
2024-12-07 20:32:26.807568600,9.189568603515625,0.4633505019545554,0.4022591966539621,2.0774007328182456
2024-12-07 20:32:26.817582600,9.19958251953125,0.4526712870299816,0.3311059315443039,2.083868467527628
2024-12-07 20:32:26.827596500,9.209596435546874,0.3813093476057052,0.1557370896786451,1.981101628275216
2024-12-07 20:32:26.837610500,9.219610595703124,0.2803521881237626,-0.0959983680307865,1.7056126622736454
2024-12-07 20:32:26.847623700,9.229623779296874,0.2322865147434175,-0.1555342605829238,1.492413563707471
2024-12-07 20:32:26.857637400,9.239637451171877,0.2986450929224491,0.0292062207400798,1.3180813714131712
2024-12-07 20:32:26.867651600,9.249651611328124,0.3812999952554702,0.4254237991422414,1.137794727693871
2024-12-07 20:32:26.877665500,9.25966552734375,0.4213499738320708,0.7614484823882579,0.8392579174514859
2024-12-07 20:32:26.887678500,9.269678466796876,0.3071186144962907,0.9354431132912636,0.4474897196736186
2024-12-07 20:32:26.897692400,9.2796923828125,0.0032359131813049,0.955718424078822,-0.0330154768299311
2024-12-07 20:32:26.907706600,9.28970654296875,-0.3947662105500698,0.78941960837543,-0.5010664846256375
2024-12-07 20:32:26.917720600,9.299720458984376,-0.9849015562042592,0.4263479282498359,-0.8967983984027057
2024-12-07 20:32:26.927733500,9.3097333984375,-1.657153605661541,0.0067991586208343,-1.0084088346503677
2024-12-07 20:32:26.937747500,9.31974755859375,-2.043856482873857,-0.3261994548022747,-0.7041909100316465
2024-12-07 20:32:26.947761400,9.329761474609375,-1.908132107523829,-0.444828172314167,-0.2929244502533227
2024-12-07 20:32:26.957775600,9.339775634765624,-1.2965600060872733,-0.410444841197133,0.1859103288199752
2024-12-07 20:32:26.967788500,9.34978857421875,-0.5580582456529141,-0.288881823799014,0.7271444270525127
2024-12-07 20:32:26.977802500,9.359802490234374,-0.0439443556666374,-0.2183686101585626,1.1574113553769885
2024-12-07 20:32:26.987816400,9.36981640625,0.1525707346022129,-0.1952542765527963,1.3756541471987962
2024-12-07 20:32:26.997830400,9.379830322265626,0.0305902224443852,-0.2570376557707786,1.399532450914383
2024-12-07 20:32:27.007843600,9.389843505859377,-0.256171686591208,-0.3246124778717756,1.278765552330017
2024-12-07 20:32:27.017857500,9.399857421875,-0.5865443354249,-0.3954395797669887,1.114576714517921
2024-12-07 20:32:27.027871500,9.40987158203125,-0.7366345052577554,-0.3921078049957752,0.9598920565016568
2024-12-07 20:32:27.037885400,9.419885498046876,-0.7636743417441845,-0.3987310225278139,0.8409134295735508
2024-12-07 20:32:27.047898600,9.429898681640625,-0.7395218972623347,-0.4134405158817767,0.7487360811356455
2024-12-07 20:32:27.057912600,9.43991259765625,-0.7534872942507267,-0.4305348585456609,0.6951792629931122
2024-12-07 20:32:27.067926500,9.449926513671874,-0.8395392916761338,-0.4510778803586959,0.708237335878238
2024-12-07 20:32:27.077940500,9.4599404296875,-0.9488533606149256,-0.4768973812699317,0.7460429695941507
2024-12-07 20:32:27.087953700,9.46995361328125,-0.9785701612256468,-0.4645037636429071,0.7972390499547124
2024-12-07 20:32:27.097967400,9.47996728515625,-0.9717055361531676,-0.3821984053999185,0.8830556311890483
2024-12-07 20:32:27.107981600,9.489981689453124,-0.9957903222262858,-0.3033423108279705,0.9651884093441068
2024-12-07 20:32:27.117995500,9.49999560546875,-0.9975532402455806,-0.2389531330257654,0.9351132237497716
2024-12-07 20:32:27.128009500,9.510009521484376,-0.989650504297018,-0.1191466039061546,0.8972880085505545
2024-12-07 20:32:27.138022400,9.5200224609375,-1.0251356591761112,0.1223579671680927,0.8588841897457837
2024-12-07 20:32:27.148036400,9.530036376953126,-1.1082933964647352,0.3698229079514741,0.6933752092458307
2024-12-07 20:32:27.158050600,9.540050537109376,-1.2263666720509527,0.5644798031330108,0.409846290782094
2024-12-07 20:32:27.168064500,9.550064453125,-1.4197089775025844,0.694129096353054,0.058080871438235
2024-12-07 20:32:27.178077400,9.560077392578124,-1.5557669687211513,0.7942384068340063,-0.1846177317261695
2024-12-07 20:32:27.188091400,9.57009130859375,-1.45313778437376,0.9190279850631952,-0.3541040914244949
2024-12-07 20:32:27.198105300,9.580105224609374,-1.1484474930029362,0.9787772281050682,-0.513238568456471
2024-12-07 20:32:27.208119300,9.590119384765623,-0.7095229917746037,1.0138923806279898,-0.6335230903513729
2024-12-07 20:32:27.218132500,9.600132568359374,-0.2627542067866772,1.0259855540037155,-0.7476058349967002
2024-12-07 20:32:27.228146400,9.610146484375,0.2080044525325298,1.013041316756606,-0.7698895629972219
2024-12-07 20:32:27.238160400,9.620160400390626,0.6656196257054805,0.996312300273776,-0.6949946271412074
2024-12-07 20:32:27.248174300,9.63017431640625,1.0249977120101452,1.0061685083776712,-0.512633149909228
2024-12-07 20:32:27.258187500,9.6401875,1.1832453232049942,1.0159142418444156,-0.3215552822582423
2024-12-07 20:32:27.268201500,9.650201416015625,0.9685223760724068,1.108175761434436,-0.1152628943406045
2024-12-07 20:32:27.278215400,9.66021533203125,0.8277262504160404,1.1418763709843158,0.0492864473469555
2024-12-07 20:32:27.288229400,9.6702294921875,0.9388678270429373,1.1165127971470354,0.1075774544045329
2024-12-07 20:32:27.298242300,9.6802421875,0.9697750064820052,1.1598054109066724,0.2625637257158756
2024-12-07 20:32:27.308256500,9.690256591796874,0.908224266976118,1.3947282655030488,0.6173775728449225
2024-12-07 20:32:27.318270500,9.7002705078125,0.9728303023993968,1.5955618034929036,0.8805433561071753
2024-12-07 20:32:27.328284400,9.710284423828124,1.0488374372810123,1.601842491197586,0.7017229124829173
2024-12-07 20:32:27.338298400,9.72029833984375,0.7948825499564409,1.4834060813874006,0.465166026943922
2024-12-07 20:32:27.348311600,9.7303115234375,0.4227063934097066,1.2876491160094736,0.5163073083773255
2024-12-07 20:32:27.358325500,9.740325439453123,0.2667267271468416,0.9893839623153208,0.6142834062218666
2024-12-07 20:32:27.368339200,9.750339111328126,0.2896639140874147,0.5922545297652483,0.2745397024527192
2024-12-07 20:32:27.378353400,9.760353515625,0.5141080447673797,0.2392676058024168,-0.5645733266353606
2024-12-07 20:32:27.388366300,9.770366455078126,0.7329477795690298,0.0727916799664497,-1.4499214526757598
2024-12-07 20:32:27.398380500,9.780380615234376,0.9206430190443992,0.0952244610488414,-1.90826494012326
2024-12-07 20:32:27.408394200,9.790394287109375,1.0593669415365905,0.1051274309039115,-2.035555395257473
2024-12-07 20:32:27.418408400,9.800408447265625,1.0913397774457931,-0.0314841025441885,-2.1183435685813428
2024-12-07 20:32:27.428421400,9.81042138671875,1.1267143846224992,-0.1870166095614433,-2.2235621849000453
2024-12-07 20:32:27.438435300,9.820435302734374,1.2275509133994578,-0.2358832240611314,-2.305072301112116
2024-12-07 20:32:27.448449300,9.83044921875,1.3230442545175551,-0.2642600082397461,-2.39730693269521
2024-12-07 20:32:27.458463500,9.84046337890625,1.328417764249444,-0.3084960403293371,-2.517370651446283
2024-12-07 20:32:27.468476400,9.850476318359377,1.206261530198529,-0.4900269119560718,-2.678198634523153
2024-12-07 20:32:27.478490400,9.860490478515626,0.898629413222149,-0.6887684461027384,-2.8461566156104205
2024-12-07 20:32:27.488504300,9.87050439453125,0.3802485134411603,-0.8192799091100692,-2.9356115533471105
2024-12-07 20:32:27.498518500,9.8805185546875,-0.0485205775409936,-0.8652496331244707,-2.897274223907292
2024-12-07 20:32:27.508531500,9.890531494140625,-0.3943254079800098,-0.7814408845812082,-2.618210906550288
2024-12-07 20:32:27.518545400,9.90054541015625,-0.6097124450445175,-0.6099029991805553,-2.155819897277653
2024-12-07 20:32:27.528559400,9.910559326171876,-0.802414625961706,-0.421301166254282,-1.5738406778112053
2024-12-07 20:32:27.538573600,9.920573486328124,-0.8718249198615551,-0.3014858693063258,-0.8919663751363753
2024-12-07 20:32:27.548586500,9.93058642578125,-0.7868811028737575,-0.2400906126230955,-0.1658022643581032
2024-12-07 20:32:27.558600400,9.940600341796875,-0.6192543265022337,-0.1902870095342397,0.4967962599605321
2024-12-07 20:32:27.568614400,9.950614501953124,-0.424542340132594,-0.1750058537721633,0.9576137363061308
2024-12-07 20:32:27.578628400,9.96062841796875,-0.1141236611776053,-0.2865793920755386,1.168579376731813
2024-12-07 20:32:27.588642300,9.970642333984374,0.0290226808667182,-0.485229740807414,1.1614745131626725
2024-12-07 20:32:27.598655500,9.980655517578125,0.0787140557527542,-0.7978519211560487,0.8960396159246563
2024-12-07 20:32:27.608669400,9.99066943359375,0.2010211695164442,-1.161807398378849,0.5277230208829045
2024-12-07 20:32:27.618683400,10.000683349609377,0.3301151669412851,-1.4789263056248425,0.1463327169954776
2024-12-07 20:32:27.628696300,10.0106962890625,0.4411714033722877,-1.6773235563784836,-0.1995800307974219
2024-12-07 20:32:27.638710500,10.02071044921875,0.4355430420964956,-1.7995447454243898,-0.5012254745796323
2024-12-07 20:32:27.648724200,10.03072412109375,0.645368937902525,-1.924445967334509,-0.858053876401484
2024-12-07 20:32:27.658738400,10.040738525390625,0.5461439359754323,-1.9749995120078323,-1.141601645696163
2024-12-07 20:32:27.668752400,10.05075244140625,0.2800350849986076,-1.8999515775471925,-1.3531173212200402
2024-12-07 20:32:27.678765300,10.060765380859374,0.1000708051014691,-1.7095961789518594,-1.3069210949733852
2024-12-07 20:32:27.688779300,10.070779296875,-0.0354857394009828,-1.3973919317543506,-0.8895584372118115
2024-12-07 20:32:27.698793500,10.08079345703125,-0.1832907939713448,-0.9652584058403968,-0.2047761381357908
2024-12-07 20:32:27.708807400,10.090807373046877,-0.3803359725289046,-0.4089040414959192,0.660863078828156
2024-12-07 20:32:27.718820400,10.1008203125,-0.2502162853181362,0.257167419630289,1.6240370796099304
2024-12-07 20:32:27.728834300,10.110834228515625,-0.080739351035282,0.896198898139596,2.6181372567921875
2024-12-07 20:32:27.738848500,10.1208486328125,-0.5278595067441463,1.3704624237746,3.439703523273766
2024-12-07 20:32:27.748862500,10.130862548828125,-0.9399469275165347,1.3605746514886616,3.761154614505172
2024-12-07 20:32:27.758875400,10.14087548828125,-1.0770137304514646,0.778078714671731,3.105169663107395
2024-12-07 20:32:27.768889300,10.150889404296874,-0.5510743781149388,-0.1486293035000562,1.728604830804467
2024-12-07 20:32:27.778903600,10.160903564453124,0.2860883936882019,-1.02269469576478,0.6241811153799295
2024-12-07 20:32:27.788917200,10.170917236328124,0.5801870753526688,-1.682140016749501,-0.3267813463434577
2024-12-07 20:32:27.798930400,10.180930419921877,0.1958984927404671,-2.0751368795394898,-1.0851526132434606
2024-12-07 20:32:27.808944400,10.1909443359375,-0.3977431074690074,-2.129754604911804,-1.5542255844980477
2024-12-07 20:32:27.818958600,10.20095849609375,-0.5139449631601571,-1.7563088302880523,-1.8241724062025544
2024-12-07 20:32:27.828972300,10.21097216796875,-0.5103489844948053,-1.0424521201580763,-1.7799629698589443
2024-12-07 20:32:27.838985500,10.2209853515625,-0.429188120111823,-0.1432926186472177,-1.6182690176025032
2024-12-07 20:32:27.848999400,10.23099951171875,-0.3948356955897062,0.9013263241559266,-1.403825471933186
2024-12-07 20:32:27.859013400,10.241013427734377,-0.7650736140828579,1.9147838204979888,-0.8949661414742469
2024-12-07 20:32:27.869027300,10.25102734375,-1.224741701197624,2.838697824037075,-0.0606438537940382
2024-12-07 20:32:27.879040500,10.26104052734375,-1.4625596927136182,3.7757226535618313,0.9162892077490686
2024-12-07 20:32:27.889054200,10.27105419921875,-1.5882529417842626,4.431212514919042,1.921620388519764
2024-12-07 20:32:27.899068400,10.281068359375,-1.3691250376909971,4.373571057811379,2.5482632178381084
2024-12-07 20:32:27.909082400,10.291082275390623,-0.8232318616062402,3.439870988795161,2.3475699651017785
2024-12-07 20:32:27.919096600,10.3010966796875,-0.4397347216326743,2.04348677277863,1.49883044501245
2024-12-07 20:32:27.929109200,10.311109130859377,-0.1882843644749373,0.5797217959284782,0.5551677849084139
2024-12-07 20:32:27.939123500,10.32112353515625,0.0611375555951148,-0.7550058821201324,-0.2880328057542443
2024-12-07 20:32:27.949137400,10.331137451171877,0.2043359931528568,-1.8120336401194328,-1.1471712625220418
2024-12-07 20:32:27.959151600,10.341151611328126,0.4191851970136165,-2.497591307482123,-1.8945964802548287
2024-12-07 20:32:27.969164300,10.351164306640625,0.4956166947871446,-2.7272955506473777,-2.40180132150501
2024-12-07 20:32:27.979178500,10.361178466796876,0.2512625064354389,-2.5297265674114224,-2.528684657143056
2024-12-07 20:32:27.989192400,10.3711923828125,-0.072205404511094,-2.1435224335014817,-2.210924821645021
2024-12-07 20:32:27.999206400,10.381206298828126,-0.2546405315011739,-1.571401760226488,-1.4299948091953991
2024-12-07 20:32:28.009219300,10.39121923828125,-0.291875817983225,-0.8725789530992507,-0.3594654723271727
2024-12-07 20:32:28.019233500,10.401233642578124,-0.0652139381885528,-0.2045440829455852,0.4008230263710022
2024-12-07 20:32:28.029247500,10.41124755859375,0.0588555090725421,0.5457072981238364,0.8546317929983138
2024-12-07 20:32:28.039261400,10.421261474609375,0.2096275967549532,1.1801333286643028,1.1991396424293517
2024-12-07 20:32:28.049274400,10.4312744140625,0.4186094794848933,1.3770979162663222,1.2802271493151782
2024-12-07 20:32:28.059288600,10.44128857421875,0.4161720232049003,1.3238421268969771,1.0237535571679472
2024-12-07 20:32:28.069302300,10.45130224609375,0.0681804233113303,1.1456237408190966,0.5523603262722492
2024-12-07 20:32:28.079316500,10.46131640625,-0.296962802391313,0.6843915461927652,0.0556146274551749
2024-12-07 20:32:28.089329400,10.471329345703126,-0.2890630255848169,0.0133610013544559,-0.5161269833743571
2024-12-07 20:32:28.099343400,10.48134326171875,-0.0550940741797909,-0.4959364282608032,-1.179778523877263
2024-12-07 20:32:28.109357300,10.491357421875,0.1524784532088786,-0.7291402039796113,-1.7866767882838843
2024-12-07 20:32:28.119371500,10.50137158203125,0.3436328566947951,-0.7938292415112257,-2.17093212621361
2024-12-07 20:32:28.129384400,10.511384521484375,0.5323456757148728,-0.78087799000144,-2.2033082091614604
2024-12-07 20:32:28.139398400,10.5213984375,0.5330874705255031,-0.6251403158009052,-2.0815251192718742
2024-12-07 20:32:28.149412400,10.531412353515623,0.2637625801116228,-0.3252525293409824,-1.8427353601142764
2024-12-07 20:32:28.159426600,10.541426513671874,0.1041091937720775,-0.0176233349740505,-1.490173091304302
2024-12-07 20:32:28.169439200,10.551439208984377,0.2581722127586603,0.2107610577642917,-1.1264780185833572
2024-12-07 20:32:28.179453400,10.561453369140626,0.4272328943908214,0.3611298984080552,-0.7733969865962863
2024-12-07 20:32:28.189467100,10.571467041015625,0.4640858304917812,0.4545785819560289,-0.5026935013055801
2024-12-07 20:32:28.199481000,10.581481201171876,0.3063239569872618,0.4214619097739457,-0.3081368516281247
2024-12-07 20:32:28.209494000,10.591493896484376,0.1441828454852104,0.2890706243693828,-0.1766395924538374
2024-12-07 20:32:28.219508200,10.60150830078125,0.3186369105935097,0.0939694925516843,-0.0986179028794169
2024-12-07 20:32:28.229522200,10.611522216796876,0.6820821002066135,-0.070581018179655,-0.1468795372232794
2024-12-07 20:32:28.239536000,10.6215361328125,0.7865724022507667,-0.0945189431279897,-0.3029346068099141
2024-12-07 20:32:28.249549000,10.631549072265624,0.6374596991479397,-0.0553998156607151,-0.4276452745839953
2024-12-07 20:32:28.259563300,10.641563232421875,0.5018669873535633,0.012396540236473,-0.4922977794975042
2024-12-07 20:32:28.269577000,10.651576904296874,0.5177040234327316,0.0858954916894435,-0.531653346069157
2024-12-07 20:32:28.279591200,10.661591064453123,0.62404959795475,0.1506499956727028,-0.6155275610640645
2024-12-07 20:32:28.289605000,10.671605224609374,0.677243428003788,0.147145202422142,-0.7737535449489951
2024-12-07 20:32:28.299618000,10.6816181640625,0.4836216845562681,0.200732415702939,-0.99623046720922
2024-12-07 20:32:28.309632000,10.691632080078126,-0.0331248554885387,0.2791927889555692,-1.187717792443931
2024-12-07 20:32:28.319646200,10.701646240234377,-0.3734428520143031,0.2976759556293487,-1.2008853170529008
2024-12-07 20:32:28.329660200,10.71166015625,-0.2092915332010015,0.3177157040953636,-1.0436395763769746
2024-12-07 20:32:28.339673000,10.721673095703125,0.3555984947007149,0.2745920171618461,-0.7840627575173974
2024-12-07 20:32:28.349687000,10.73168701171875,0.9953367332398892,0.1547299584627151,-0.5004404616817831
2024-12-07 20:32:28.359701200,10.741701171875,1.5095160896778106,0.0266226339876651,-0.2278133148521184
2024-12-07 20:32:28.369715200,10.751715087890624,1.787332329583168,0.0253892928004264,0.0356231020450592
2024-12-07 20:32:28.379728100,10.76172802734375,1.6839058573782444,0.1913005704909563,0.278404268926382
2024-12-07 20:32:28.389742000,10.7717421875,1.2845429666876793,0.4303752840697765,0.496518612062931
2024-12-07 20:32:28.399756300,10.78175634765625,0.8603121767222881,0.5740975263059139,0.6737178842261433
2024-12-07 20:32:28.409770000,10.79177001953125,0.6040531041085719,0.562978166398406,0.6492912989780306
2024-12-07 20:32:28.419783200,10.801783203125,0.5359831919670105,0.5618336725383997,0.4404778681501746
2024-12-07 20:32:28.429797000,10.811797119140625,0.535840568625927,0.6205442201822996,0.1560951093360781
2024-12-07 20:32:28.439811300,10.821811279296876,0.5124374446740374,0.6598205840378999,-0.1587187358379364
2024-12-07 20:32:28.449825000,10.831824951171876,0.318607574901171,0.6459545557707548,-0.4910264443874358
2024-12-07 20:32:28.459838200,10.841838134765624,0.1405938445499166,0.5559978059917688,-0.7426645792022347
2024-12-07 20:32:28.469852200,10.85185205078125,0.093306023674272,0.377967635962367,-0.947488355872035
2024-12-07 20:32:28.479866000,10.8618662109375,0.2368763267517089,0.1962105543643236,-0.9883461437001824
2024-12-07 20:32:28.489880000,10.871880126953124,0.498279191994667,0.0045639469146728,-0.9139747933268546
2024-12-07 20:32:28.499893200,10.881893310546875,0.723557508476451,-0.2377987022936344,-0.8093617416858673
2024-12-07 20:32:28.509907000,10.891906982421874,0.87621701734066,-0.4787497311383485,-0.5924789861708879
2024-12-07 20:32:28.519921200,10.901921142578123,1.0218167438864707,-0.5850865378320217,-0.2396317629396915
2024-12-07 20:32:28.529935000,10.91193505859375,1.0925812288742511,-0.7015127768635749,0.1454772692099213
2024-12-07 20:32:28.539948300,10.9219482421875,1.078176271424815,-0.7580430578589439,0.4702943297430872
2024-12-07 20:32:28.549962000,10.9319619140625,1.034222709538415,-0.7216074703872204,0.7380348735749721
2024-12-07 20:32:28.559976200,10.94197607421875,1.0157564939994363,-0.7102309208482503,0.9222019389241932
2024-12-07 20:32:28.569990100,10.951990234375,0.9443898053348064,-0.8118073812723159,0.9439838548824192
2024-12-07 20:32:28.580003000,10.962003173828125,0.763425335419178,-1.04458971670866,0.8214885250702499
2024-12-07 20:32:28.590017000,10.97201708984375,0.4248432958405465,-1.240253743106127,0.6498992017433047
2024-12-07 20:32:28.600031200,10.98203125,0.0708639267742633,-1.2732587716072796,0.5372103956744074
2024-12-07 20:32:28.610045200,10.992045166015624,-0.09455576800704,-0.9915209743440152,0.503581390056014
2024-12-07 20:32:28.620059100,11.00205908203125,-0.008981763356924,-0.458496632182598,0.5065133518546819
2024-12-07 20:32:28.630072000,11.012072021484377,0.1594085447330027,0.1096031150132417,0.44438422793895
2024-12-07 20:32:28.640086300,11.022086181640624,0.2936719806849956,0.4992383924156427,0.2996718056216836
2024-12-07 20:32:28.650100200,11.032100341796877,0.3299122647803276,0.6583253770440817,0.0594359393090009
2024-12-07 20:32:28.660114200,11.0421142578125,0.2924655275046825,0.570647093591094,-0.2453676762431859
2024-12-07 20:32:28.670127000,11.052127197265625,0.1206640957970172,0.3780798641651868,-0.5239867569640279
2024-12-07 20:32:28.680141300,11.062141357421876,-0.1705727666955441,0.1493956116974353,-0.7334706343993544
2024-12-07 20:32:28.690155000,11.072155029296876,-0.5072036722064018,-0.0555307485640048,-0.8208291843786836
2024-12-07 20:32:28.700169000,11.0821689453125,-0.6964543244302273,-0.1524170053452253,-0.8072384659215808
2024-12-07 20:32:28.710182100,11.09218212890625,-0.647185997261852,-0.1582423504978418,-0.7224141105949878
2024-12-07 20:32:28.720196000,11.102196044921875,-0.4488263751048594,-0.1695353134065866,-0.5305814790539444
2024-12-07 20:32:28.730210000,11.1122099609375,-0.1575217080730944,-0.1696083786427974,-0.259562205812335
2024-12-07 20:32:28.740224000,11.12222412109375,0.1581423972547054,-0.1557119552373886,0.0629752193510532
2024-12-07 20:32:28.750237200,11.1322373046875,0.4101729654531926,-0.1809206307739019,0.2942245000012218
2024-12-07 20:32:28.760251100,11.142251220703123,0.5109001886367798,-0.2076110693007707,0.3229270090028643
2024-12-07 20:32:28.770265000,11.15226513671875,0.5253366372030228,-0.1799281126052141,0.2937120204344391
2024-12-07 20:32:28.780279000,11.162279052734377,0.4427916980504989,-0.0409855058610439,0.1981684104338288
2024-12-07 20:32:28.790292000,11.1722919921875,0.2647800865910947,0.174398535528779,0.0293920987010002
2024-12-07 20:32:28.800306200,11.18230615234375,-0.018696517163515,0.2999696195244788,-0.1469049639254808
2024-12-07 20:32:28.810320100,11.192320068359376,-0.3640729661226272,0.3206996883422136,-0.2656874106943607
2024-12-07 20:32:28.820334000,11.202333984375,-0.6804419317841529,0.1979401546359062,-0.2745997620768844
2024-12-07 20:32:28.830347000,11.212346923828123,-0.9151811003766952,0.0002560205876827,-0.2050692758634686
2024-12-07 20:32:28.840361200,11.222361328125,-1.0540519570589064,-0.2191279040932655,0.014157120168209
2024-12-07 20:32:28.850375200,11.232375244140623,-1.0305040543414652,-0.4658855733901262,0.2454578387446701
2024-12-07 20:32:28.860389000,11.24238916015625,-0.9750316118359564,-0.7036071187943219,0.352612829953432
2024-12-07 20:32:28.870402000,11.252402099609377,-0.7959504714488983,-0.8383435060203075,0.3386576620981097
2024-12-07 20:32:28.880416300,11.262416259765626,-0.5214332730889321,-0.7776964373558759,0.2650919290192425
2024-12-07 20:32:28.890430200,11.27243017578125,-0.2608472771868109,-0.4883317984759807,0.2490620007164776
2024-12-07 20:32:28.900444000,11.28244384765625,-0.0844891320228576,-0.1073316629499196,0.3305678791448473
2024-12-07 20:32:28.910457000,11.29245703125,-0.0199568924881517,0.1415326232373714,0.3982461616203188
2024-12-07 20:32:28.920471300,11.30247119140625,-0.0381971903167665,0.2086421659141779,0.4608231754340231
2024-12-07 20:32:28.930485000,11.312485107421876,-0.1937095313288271,0.0348521176725626,0.4494473565474152
2024-12-07 20:32:28.940499000,11.3224990234375,-0.4154465950071811,-0.2576402978390455,0.419681309967488
2024-12-07 20:32:28.950512000,11.33251220703125,-0.5977157177805901,-0.5150175608277321,0.5124484409920871
2024-12-07 20:32:28.960526300,11.3425263671875,-0.6450923859834671,-0.6058008245587349,0.7392451261475682
2024-12-07 20:32:28.970540000,11.3525400390625,-0.5487294224239886,-0.4298796095073223,1.0823260115154087
2024-12-07 20:32:28.980554000,11.362553955078123,-0.3987631712317466,-0.2033405523747205,1.4467176881983876
2024-12-07 20:32:28.990567200,11.372567138671876,-0.2429156069159507,0.0604518383532762,1.8002270286001265
2024-12-07 20:32:29.000581000,11.3825810546875,-0.0994290731318295,0.2736778249263763,2.0610851194418967
2024-12-07 20:32:29.010595000,11.392594970703126,0.0332028891608119,0.4443365894049406,2.2034696833334864
2024-12-07 20:32:29.020609000,11.402609130859377,0.1698722902759909,0.549518380844593,2.3251551580674943
2024-12-07 20:32:29.030622000,11.4126220703125,0.2574677177511155,0.6043313365280628,2.359054212798923
2024-12-07 20:32:29.040636200,11.42263623046875,0.2898822330132126,0.6744470752835273,2.218794239845872
