time,seconds_elapsed,z,y,x
2024-12-07 20:03:40.582225400,0.028225341796875,-0.0150111066490411,-0.0552168603092432,-0.073973583227396
2024-12-07 20:03:40.592239400,0.0382392578125,0.0661333911210298,-0.0951800373852252,-0.0704927553743123
2024-12-07 20:03:40.602253300,0.04825341796875,0.0543348167777061,-0.09834171628654,-0.0580284105986356
2024-12-07 20:03:40.612267500,0.058267578125,0.0352016800289042,-0.1111935990750789,-0.0625052637517452
2024-12-07 20:03:40.622281500,0.068281494140625,0.0357388373792171,-0.057598787009716,-0.0520014053940773
2024-12-07 20:03:40.632294400,0.07829443359375,0.0954120925754308,-0.0505827707678079,-0.0601186608761548
2024-12-07 20:03:40.642308400,0.088308349609375,0.0705763420045375,-0.0563315435528755,-0.0825321527361869
2024-12-07 20:03:40.652322600,0.098322509765625,-0.008394337124098,-0.0481727870166301,-0.0721913759857416
2024-12-07 20:03:40.662336300,0.108336181640625,0.0286117802445776,-0.0320814839154481,-0.0487409422934055
2024-12-07 20:03:40.672350500,0.1183505859375,0.0481043796892277,0.0054296238332986,-0.0815817201435566
2024-12-07 20:03:40.682364400,0.128364501953125,0.031734880701173,0.0163660283893346,-0.108769002276659
2024-12-07 20:03:40.692378600,0.138378662109375,-0.031316911017429,-0.0086152681320905,-0.1037374378502368
2024-12-07 20:03:40.702392300,0.148392333984375,-0.0188215865815989,-0.0039227264016866,-0.0907411781549453
2024-12-07 20:03:40.712406300,0.15840625,0.0199982474118471,-0.0108107323497533,-0.108172205427289
2024-12-07 20:03:40.722420500,0.16842041015625,0.0859311475247144,-0.130328507655859,-0.0688660309553146
2024-12-07 20:03:40.732434400,0.178434326171875,0.1601841322153806,-0.1581651936084032,0.0624444734752178
2024-12-07 20:03:40.742448400,0.188448486328125,-0.001928337714076,-0.1288257018774747,-0.0163403094261884
2024-12-07 20:03:40.752462300,0.19846240234375,-0.1087140389527194,-0.0807873548954725,-0.0755938779056072
2024-12-07 20:03:40.762476500,0.2084765625,0.0100871125166304,-0.0684130264908075,-0.0079044895142316
2024-12-07 20:03:40.772490500,0.218490478515625,0.1204126965855248,-0.0960620809167623,0.0431470678091049
2024-12-07 20:03:40.782504400,0.22850439453125,0.1433773743212223,-0.0742418787747621,0.0755804339021444
2024-12-07 20:03:40.792518400,0.238518310546875,0.1706213550776243,-0.0361889192342758,0.0894710120886564
2024-12-07 20:03:40.802532400,0.248532470703125,0.0749357062578201,-0.1037450366348028,-0.0364788420915603
2024-12-07 20:03:40.812546600,0.258546630859375,0.1102221054281108,-0.1896709234625101,0.0244441209048032
2024-12-07 20:03:40.822560500,0.268560546875,0.1541658948391676,-0.2562660868763923,0.0914028569340705
2024-12-07 20:03:40.832574500,0.278574462890625,0.1768745885198004,-0.2862216646790504,0.0875000042766332
2024-12-07 20:03:40.842588400,0.28858837890625,0.1937321998183615,-0.3708195177733898,0.0791571233451366
2024-12-07 20:03:40.852602400,0.298602294921875,0.168909893250931,-0.3872258781731128,0.0672416446238756
2024-12-07 20:03:40.862616600,0.308616455078125,0.103692429664731,-0.366494055789709,-0.0200461782068014
2024-12-07 20:03:40.872630300,0.31863037109375,0.1788946779042482,-0.4845137014925479,-0.1714513761609792
2024-12-07 20:03:40.882644500,0.32864453125,0.2258855616599321,-0.6325736806720494,-0.3222814045757055
2024-12-07 20:03:40.892658400,0.338658447265625,0.2005372036580927,-0.7997440185129642,-0.477316483464837
2024-12-07 20:03:40.902672600,0.348672607421875,0.1664414390444755,-1.0673737954467537,-0.5542886639863253
2024-12-07 20:03:40.912686300,0.358686279296875,0.0141086025680764,-1.4615128140091895,-0.671805036342144
2024-12-07 20:03:40.922700300,0.3687001953125,-0.2924070753157138,-1.4688719446003435,-0.6878893251806497
2024-12-07 20:03:40.932714500,0.378714599609375,-0.6290355696737766,-1.1790332584679126,-0.5534861154317855
2024-12-07 20:03:40.942728400,0.388728515625,-0.7638555435299873,-0.666601622480154,-0.3794008836358785
2024-12-07 20:03:40.952742400,0.398742431640625,-0.5298012884616852,-0.3620844226539135,-0.1812929712176322
2024-12-07 20:03:40.962756400,0.40875634765625,-0.1054851674335543,-0.4863438395291566,-0.2279313882738351
2024-12-07 20:03:40.972770600,0.4187705078125,0.2715957579553127,-0.7710071688503026,-0.475654687732458
2024-12-07 20:03:40.982784500,0.428784423828125,0.0959072008823044,-1.7953788579165937,-1.0783581307977437
2024-12-07 20:03:40.992798200,0.438798095703125,-0.1077402437508106,-2.6377906362891195,-1.5729314540117978
2024-12-07 20:03:41.002812400,0.4488125,0.0861877343679778,-2.4897639748573304,-1.722321805012226
2024-12-07 20:03:41.012826400,0.458826416015625,0.2604196811581962,-2.256733217617869,-1.8825918619453903
2024-12-07 20:03:41.022840600,0.468840576171875,0.3184790896832943,-1.837508857637644,-1.8181334182992577
2024-12-07 20:03:41.032854300,0.478854248046875,0.177636202275753,-1.6220950056314467,-1.72200645545274
2024-12-07 20:03:41.042868500,0.488868408203125,-0.1118763206422329,-1.3350959268391132,-1.477683027565479
2024-12-07 20:03:41.052882400,0.49888232421875,-0.3440390628755092,-1.1671873378515245,-1.215058219312131
2024-12-07 20:03:41.062896400,0.508896484375,-0.2385293729220516,-0.9901742359101772,-0.9409592463642358
2024-12-07 20:03:41.072909300,0.518909423828125,0.1355997077907435,-0.856338012394309,-0.6011234803974628
2024-12-07 20:03:41.082923500,0.528923583984375,0.3882148892104625,-0.3608522505104541,0.4220420477494597
2024-12-07 20:03:41.092937500,0.5389375,0.4315349754989147,0.4931102649241685,1.902969756324589
2024-12-07 20:03:41.102951400,0.548951416015625,0.1779179418265819,1.4090858766794203,3.215536455969512
2024-12-07 20:03:41.112965400,0.55896533203125,-0.1085550307324156,1.704304502284527,4.356938487440347
2024-12-07 20:03:41.122979300,0.568979248046875,-0.2573310857594013,2.053348241579533,4.536743850448727
2024-12-07 20:03:41.132993500,0.57899365234375,-0.3028033816456794,2.253894779321551,4.036235876488686
2024-12-07 20:03:41.143007500,0.589007568359375,-0.0952279681801795,2.5882939071923494,2.814109033964574
2024-12-07 20:03:41.153021400,0.599021484375,0.1124666877508163,2.763207406505942,1.4363646364882587
2024-12-07 20:03:41.163035400,0.609035400390625,0.1575439199049025,2.892621721926332,0.1886050477966666
2024-12-07 20:03:41.173049300,0.61904931640625,0.0520282568683847,2.867784217789769,-0.8326903025642037
2024-12-07 20:03:41.183063600,0.6290634765625,-0.071379493347276,2.606422269079089,-1.5639523210033774
2024-12-07 20:03:41.193077200,0.6390771484375,-0.35468671361804,2.4554063627034424,-2.165316039897501
2024-12-07 20:03:41.203091500,0.649091552734375,-0.5658943826386704,2.75907132961452,-2.774645330843329
2024-12-07 20:03:41.213105400,0.65910546875,-0.1487175845717079,1.9528817882239813,-2.6405457802161574
2024-12-07 20:03:41.223119600,0.66911962890625,0.1929378163039684,0.6046919865339994,-1.4191621572747826
2024-12-07 20:03:41.233133300,0.67913330078125,0.1251111018011346,-0.280437236058712,-0.5030336930453777
2024-12-07 20:03:41.243148300,0.689148193359375,-0.116967524567712,-0.6443792692780494,-0.2501078565075993
2024-12-07 20:03:41.253162500,0.69916259765625,-0.200768108070828,-0.4477595495909452,0.0032186697855591
2024-12-07 20:03:41.263176200,0.70917626953125,-0.052884051713813,-0.1532335824251174,0.2919324435412883
2024-12-07 20:03:41.273190100,0.719190185546875,0.1455658242762088,0.0610574030309915,0.459570983415842
2024-12-07 20:03:41.283204400,0.729204345703125,0.099649328286387,0.1872849051088094,0.4104202912777662
2024-12-07 20:03:41.293218300,0.73921826171875,-0.1775403041532263,0.1520838278681039,0.2469251348182559
2024-12-07 20:03:41.303232300,0.749232177734375,-0.2875975926747545,-0.0405851083666086,0.123467097453773
2024-12-07 20:03:41.313246200,0.75924609375,-0.1868704425564035,-0.2030675806522369,-0.0033928573086857
2024-12-07 20:03:41.323260400,0.769260498046875,0.0064169178375974,-0.1767056434273719,-0.0145803140163421
2024-12-07 20:03:41.333274400,0.7792744140625,-0.0920013708164915,-0.0876636704057455,-0.0600377045944333
2024-12-07 20:03:41.343288300,0.789288330078125,-0.2673053672850132,-0.2435954058736562,-0.1593979502737522
2024-12-07 20:03:41.353302300,0.79930224609375,-0.1311901659864932,-0.5228308649271727,0.286364288020134
2024-12-07 20:03:41.363316200,0.809316162109375,-0.0079062796125188,-0.4095727345377206,0.5757321417704224
2024-12-07 20:03:41.373330400,0.819330322265625,0.0037011926054954,-0.4780675940930843,0.245899006640911
2024-12-07 20:03:41.383344400,0.829344482421875,0.1546878728866577,-0.9852543151646852,0.2715715002968907
2024-12-07 20:03:41.393358300,0.8393583984375,0.0947264849314466,-1.6676035418748854,0.7206555764898658
2024-12-07 20:03:41.403372300,0.849372314453125,-0.3270271377980709,-1.90262284258306,1.0647849479973317
2024-12-07 20:03:41.413386200,0.85938623046875,-0.8003717950224876,-1.7507710699051615,1.1404954380199313
2024-12-07 20:03:41.423400400,0.869400390625,-1.1581225723862647,-1.2626356707841158,1.1245587409585711
2024-12-07 20:03:41.433414100,0.8794140625,-1.1422914545912295,-0.7270639822274446,0.4667284539550542
2024-12-07 20:03:41.443427300,0.88942724609375,-0.9067805709738284,-0.334268779489398,0.1772171000808477
2024-12-07 20:03:41.453441300,0.899441162109375,-0.6044646075189113,0.0990291140288114,-0.0814209766238927
2024-12-07 20:03:41.463455200,0.909455322265625,-0.5983633680343627,0.4244207595795393,-0.2769252824150026
2024-12-07 20:03:41.473469200,0.91946923828125,-0.645420887285471,0.6798597479820251,-0.2387413899712264
2024-12-07 20:03:41.483483400,0.9294833984375,-0.3596820376873016,0.3180652481853961,-0.1075776005350053
2024-12-07 20:03:41.493497300,0.939497314453125,-0.0574023876547813,-0.0953776057839393,0.257728852905333
2024-12-07 20:03:41.503511300,0.94951123046875,0.3465968941321596,-0.5873486375451088,0.5891836709525435
2024-12-07 20:03:41.513525200,0.959525146484375,0.8007249193090945,-1.0815846916288137,0.72128642173931
2024-12-07 20:03:41.523539200,0.969539306640625,0.2313994297105819,-0.3546820374429226,0.3537645572718232
2024-12-07 20:03:41.533553400,0.979553466796875,-0.9796855751216412,0.8830313735306262,-0.1881437869604676
2024-12-07 20:03:41.543567400,0.9895673828125,-2.006807439678908,1.5814736569076775,-0.308512991464138
2024-12-07 20:03:41.553581300,0.999581298828125,-2.088379807472229,1.5997370433509348,0.03940864846576
2024-12-07 20:03:41.563595300,1.00959521484375,-0.9666858813602476,1.2927823872447013,0.150328472100757
2024-12-07 20:03:41.573609500,1.019609375,0.5420036943655461,1.0557260277509688,-0.2305996211024001
2024-12-07 20:03:41.583623400,1.02962353515625,1.561543214035034,0.4250958823621272,-1.372907186578214
2024-12-07 20:03:41.593637000,1.03963720703125,1.3860440237879752,-0.7871434801369905,-2.6324919453591105
2024-12-07 20:03:41.603651300,1.0496513671875,0.4558546663064509,-0.509683798584342,-1.8977287869311867
2024-12-07 20:03:41.613665300,1.059665283203125,-0.501240306822583,0.1673322504043579,-0.2447784416457638
2024-12-07 20:03:41.623679500,1.069679443359375,-0.9876292276024816,0.2854419124782085,0.6493487282536924
2024-12-07 20:03:41.633693200,1.079693115234375,-0.8721370545506477,0.2167757880091667,0.7967850956421345
2024-12-07 20:03:41.643707400,1.089707275390625,-0.5622059399168938,0.178223646774888,0.6965792659841478
2024-12-07 20:03:41.653721300,1.099721435546875,-0.148639276904799,0.2203717666745185,0.7097207793690263
2024-12-07 20:03:41.663735300,1.1097353515625,0.3088672117292881,0.1744032117038965,0.7652974129013717
2024-12-07 20:03:41.673749200,1.119749267578125,-0.3623837709266692,0.0818441704720258,0.7787259265340865
2024-12-07 20:03:41.683763200,1.12976318359375,-0.6287644245821983,-0.159599610325694,0.7380732328239827
2024-12-07 20:03:41.693777400,1.13977734375,-0.2076538489965722,-0.3998790235191583,0.6279056888610124
2024-12-07 20:03:41.703791400,1.149791259765625,0.3591618862707167,-0.3757131350338459,0.6243525994893163
2024-12-07 20:03:41.713805300,1.159805419921875,0.6886884396690874,-0.1969721863865852,0.584661078961566
2024-12-07 20:03:41.723819300,1.1698193359375,0.6785294492263346,0.0234235456854105,0.3927782150706276
2024-12-07 20:03:41.733833200,1.179833251953125,0.4995698893923312,0.1129272909998893,0.2512123471507802
2024-12-07 20:03:41.743847400,1.189847412109375,0.2735913887519389,-0.0249696060836315,0.1751112869080156
2024-12-07 20:03:41.753861400,1.199861328125,0.0785047603836283,-0.2122907515496015,-0.0049288712369278
2024-12-07 20:03:41.763875300,1.209875244140625,0.02508764297273,-0.2134668095916509,-0.1986386948266997
2024-12-07 20:03:41.773888300,1.21988818359375,-0.0243079273045063,0.0281067350655794,-0.1245799905991181
2024-12-07 20:03:41.783902500,1.22990234375,-0.0153110029110684,0.1842576662421226,-0.0848397355588153
2024-12-07 20:03:41.793916200,1.239916259765625,0.2596667986979707,0.1683645160615444,-0.1661502740781754
2024-12-07 20:03:41.803930400,1.249930419921875,0.5499146501531824,0.2849474069595337,-0.3608934227710589
2024-12-07 20:03:41.813944300,1.2599443359375,0.782258703770116,-0.005057867911458,-0.4453409806745126
2024-12-07 20:03:41.823958300,1.269958251953125,0.6838578777074813,-0.3776712833642959,-0.5809309890551492
2024-12-07 20:03:41.833972200,1.27997216796875,0.5175017788589,-0.3350853565692901,-0.5280420967694371
2024-12-07 20:03:41.843986200,1.289986083984375,0.5575519766312093,-0.1398486156731843,-0.4407975285585969
2024-12-07 20:03:41.854000400,1.30000048828125,0.681301105896756,-0.0497089105427265,-0.5531707658722996
2024-12-07 20:03:41.864014300,1.310014404296875,0.6870153918903321,0.0441138670146465,-0.6469084954947233
2024-12-07 20:03:41.874028300,1.3200283203125,0.5028267722964287,0.0286170226752758,-0.6852206904932856
2024-12-07 20:03:41.884042200,1.330042236328125,0.2757423562407493,0.0259632932960987,-0.6514134056985378
2024-12-07 20:03:41.894056400,1.340056396484375,0.2407388473987579,0.1099947446793317,-0.5464640713078901
2024-12-07 20:03:41.904070400,1.3500703125,0.3810346223175525,0.1913473322421312,-0.4332803213289007
2024-12-07 20:03:41.914084000,1.360083984375,0.5612018043756485,0.2346206567794084,-0.4032230001848191
2024-12-07 20:03:41.924098300,1.370098388671875,0.6054582947313785,0.1748304972052574,-0.4246869362350553
2024-12-07 20:03:41.934112300,1.3801123046875,0.4953611856561153,0.0296960500836372,-0.4259645184228196
2024-12-07 20:03:41.944126500,1.39012646484375,0.3949836526930332,-0.0569967294633388,-0.3362578344147652
2024-12-07 20:03:41.954140400,1.400140380859375,0.3696154026806354,-0.060396308773756,-0.2720124124648049
2024-12-07 20:03:41.964154400,1.410154296875,0.3423333549361675,-0.0896200651705265,-0.2593478689419105
2024-12-07 20:03:41.974168300,1.420168212890625,0.3664565733235329,-0.1177390751957893,-0.2644147238774225
2024-12-07 20:03:41.984182300,1.430182373046875,0.3882662540715187,-0.1016542018353939,-0.2858108919210732
2024-12-07 20:03:41.994196500,1.440196533203125,0.3515431548953056,-0.0531780479580163,-0.236590787808597
2024-12-07 20:03:42.004210200,1.450210205078125,0.3597754881244152,-0.0704126758754253,-0.0996913773298263
2024-12-07 20:03:42.014224400,1.460224365234375,0.4030195865672081,-0.0686263769805431,0.1188193081805482
2024-12-07 20:03:42.024238300,1.47023828125,0.439355805317685,0.0192173261672258,0.3585052855255082
2024-12-07 20:03:42.034252300,1.480252197265625,0.4486217924434691,0.1312228261470794,0.5399511092172935
2024-12-07 20:03:42.044266200,1.490266357421875,0.4816788433928042,0.1547498322069644,0.6482209663327783
2024-12-07 20:03:42.054280200,1.5002802734375,0.3936170405149459,0.0783089820832014,0.7305094465062022
2024-12-07 20:03:42.064294400,1.51029443359375,0.2187702497620135,-0.0770154351413249,0.690142803195864
2024-12-07 20:03:42.074308400,1.520308349609375,0.3856593595087528,-0.1591477749049663,0.6742993373759091
2024-12-07 20:03:42.084322300,1.530322265625,0.548645032076165,-0.0274053087979555,1.0134942481558769
2024-12-07 20:03:42.094335200,1.540335205078125,0.2003180627483874,0.044784313622117,1.0436822464749216
2024-12-07 20:03:42.104349400,1.550349365234375,0.083363269798085,-0.0853793588608503,0.8201242509797215
2024-12-07 20:03:42.114363100,1.560363037109375,0.2658650322835892,-0.1928922235965728,0.7618062828499823
2024-12-07 20:03:42.124377300,1.57037744140625,0.1810322013895958,-0.2341132917791605,0.7185553893402219
2024-12-07 20:03:42.134391300,1.580391357421875,-0.1629531585372984,-0.1565647726744413,0.6266366918385029
2024-12-07 20:03:42.144405200,1.5904052734375,-0.4401367996275425,-0.0635153175771236,0.5802763610713183
2024-12-07 20:03:42.154419500,1.60041943359375,-0.4698655098717659,-0.0113490770101547,0.5443815659454092
2024-12-07 20:03:42.164433200,1.61043310546875,-0.3018750878196209,0.0680681585758924,0.451422748273611
2024-12-07 20:03:42.174447400,1.620447265625,-0.1096153899729251,0.1324859779506921,0.3222843271851539
2024-12-07 20:03:42.184461300,1.63046142578125,0.0726057289402931,0.1491863528609275,0.2475145703450776
2024-12-07 20:03:42.194475500,1.6404755859375,0.1999661075055599,0.1386567755401134,0.2115202238348312
2024-12-07 20:03:42.204489200,1.6504892578125,0.2709959654312581,0.0333522345036268,0.1157426772141829
2024-12-07 20:03:42.214503200,1.660503173828125,0.2964063740849494,-0.1127466737359762,-0.0347196686656214
2024-12-07 20:03:42.224517400,1.670517333984375,0.2020984433591365,-0.2335913137316703,-0.1940228533280082
2024-12-07 20:03:42.234531300,1.68053125,0.0041231443446129,-0.2921715129941701,-0.3334502296481281
2024-12-07 20:03:42.244544300,1.690544189453125,-0.1699006395876407,-0.2526379595071077,-0.4800865692326799
2024-12-07 20:03:42.254558200,1.70055810546875,-0.2708686127245426,-0.1459229671508073,-0.5465955522004514
2024-12-07 20:03:42.264572400,1.710572509765625,-0.4632066365044563,0.0291068520188331,-0.4820941461954265
2024-12-07 20:03:42.274586400,1.72058642578125,-0.6207435421466827,0.0792588301539421,-0.5552067286793142
2024-12-07 20:03:42.284600300,1.730600341796875,-0.5832664097327739,0.051582303199172,-0.5925109887443483
2024-12-07 20:03:42.294614300,1.7406142578125,-0.4405716839134693,0.0293295548588037,-0.5373745001949369
2024-12-07 20:03:42.304628500,1.75062841796875,-0.2746153249721973,0.0644201574623584,-0.4637826462941244
2024-12-07 20:03:42.314642400,1.760642333984375,-0.1763958468258381,0.0852910960555076,-0.452650974894315
2024-12-07 20:03:42.324656000,1.77065625,-0.2279179442703723,0.0389507851630449,-0.4830817689932882
2024-12-07 20:03:42.334670300,1.78067041015625,-0.3824631938159465,-0.0326700974583625,-0.5348328528881072
2024-12-07 20:03:42.344684300,1.790684326171875,-0.5395569588005542,-0.0759422529518604,-0.6147782770667225
2024-12-07 20:03:42.354698500,1.800698486328125,-0.6249439164459705,-0.0905108765304088,-0.6492896184775978
2024-12-07 20:03:42.364712200,1.810712158203125,-0.5503999859847128,-0.0917453867614269,-0.6273740662023425
2024-12-07 20:03:42.374726400,1.820726318359375,-0.4562392086446285,-0.0854927561074495,-0.5534782243862748
2024-12-07 20:03:42.384740400,1.830740234375,-0.3776315358757972,-0.0708271018952131,-0.4719024225268513
2024-12-07 20:03:42.394754300,1.84075439453125,-0.3069230919241905,-0.0599415507435798,-0.4024488740071654
2024-12-07 20:03:42.404767200,1.850767333984375,-0.2431927433568984,-0.083013214251399,-0.3916642990119755
2024-12-07 20:03:42.414781400,1.860781494140625,-0.1415466517627239,-0.205398653948307,-0.3436880940133705
2024-12-07 20:03:42.424795400,1.87079541015625,0.0241139391023665,-0.2542716981887817,-0.2429879232334904
2024-12-07 20:03:42.434809300,1.880809326171875,0.085674542415142,-0.2253910561412572,-0.2688383307396434
2024-12-07 20:03:42.444823300,1.8908232421875,-0.090574004894495,-0.1137105503320694,-0.3434603131394833
2024-12-07 20:03:42.454837200,1.900837158203125,-0.3782266522247344,0.0558545736908912,-0.3884118000220507
2024-12-07 20:03:42.464851500,1.9108515625,-0.6625509588498621,0.1907902828812599,-0.3969358827393501
2024-12-07 20:03:42.474865400,1.920865478515625,-0.6887900734126567,0.0721148036181926,-0.4351941555935889
2024-12-07 20:03:42.484879400,1.93087939453125,-0.3823463625032454,-0.1015969186902046,-0.3426224010106176
2024-12-07 20:03:42.494893300,1.940893310546875,-0.0076771104991436,-0.1563409007906913,-0.2685137201614678
2024-12-07 20:03:42.504907300,1.9509072265625,0.2161982803821563,-0.1553869610667228,-0.3141446406755596
2024-12-07 20:03:42.514921500,1.96092138671875,0.1132487780392169,-0.1280021105349063,-0.4165335865262896
2024-12-07 20:03:42.524935200,1.97093505859375,-0.1905493867974728,-0.1685690987229347,-0.5125930370945483
2024-12-07 20:03:42.534949400,1.980949462890625,-0.2886918541848659,-0.3866039468824863,-0.5343818211849779
2024-12-07 20:03:42.544963300,1.99096337890625,-0.0632148733258247,-0.5345365002900362,-0.3894479746693745
2024-12-07 20:03:42.554977500,2.0009775390625,0.3375263930458575,-0.3267734552979469,-0.0727194549804553
2024-12-07 20:03:42.564991200,2.0109912109375,0.4935913264393806,0.1612649131894111,0.3136558342453092
2024-12-07 20:03:42.575005200,2.021005126953125,0.3587831160861998,0.6182365277618169,0.5902501311402768
2024-12-07 20:03:42.585019400,2.031019287109375,0.4796270984947681,0.3973474592149257,0.7030244235355406
2024-12-07 20:03:42.595033300,2.041033447265625,0.8736438789170234,-0.2018184573739767,0.8074265358395875
2024-12-07 20:03:42.605047600,2.051047607421875,1.0315816935103386,-0.4308288730561733,0.945372532761842
2024-12-07 20:03:42.615061200,2.061061279296875,0.9025601037345826,-0.3591390168517828,0.9676185591004788
2024-12-07 20:03:42.625075500,2.071075439453125,0.7219055034857242,-0.1390735396474599,0.8548929281525314
2024-12-07 20:03:42.635089400,2.08108935546875,0.6361094535827636,0.1356686996400356,0.772558197684586
2024-12-07 20:03:42.645103400,2.091103271484375,0.6655377195756882,0.2910977462828159,0.6418107339642941
2024-12-07 20:03:42.655117300,2.101117431640625,0.6072772537868469,0.2078273423999548,0.3069142144979909
2024-12-07 20:03:42.665131300,2.11113134765625,0.3414742538888007,0.1362988142371177,-0.0079341174675151
2024-12-07 20:03:42.675145500,2.1211455078125,0.0032019378464668,0.1197416471898555,-0.207162704478763
2024-12-07 20:03:42.685159400,2.131159423828125,-0.3607564619857817,0.1298228962212801,-0.370702796058543
2024-12-07 20:03:42.695172400,2.14117236328125,-0.5279600445091724,0.1070955161064863,-0.4909772349508479
2024-12-07 20:03:42.705186300,2.151186279296875,-0.5752421662963927,0.096678166988492,-0.5750648735007271
2024-12-07 20:03:42.715200500,2.161200439453125,-0.6038998132430017,0.0500064321845769,-0.6043718512015417
2024-12-07 20:03:42.725214200,2.171214111328125,-0.5418294337771833,-0.0188438166797161,-0.4650544197956099
2024-12-07 20:03:42.735228400,2.181228515625,-0.2570692199528217,-0.066000704652071,-0.1617837494317442
2024-12-07 20:03:42.745242400,2.191242431640625,0.0900187821645289,-0.1225093583375215,0.1677545309370383
2024-12-07 20:03:42.755256300,2.20125634765625,0.4186427606999874,-0.1940215198874473,0.4051147322155535
2024-12-07 20:03:42.765270300,2.211270263671875,0.5293184003155679,-0.2093558671414852,0.5477048651492222
2024-12-07 20:03:42.775284200,2.2212841796875,0.3870516906499862,-0.187595286232233,0.675323785052821
2024-12-07 20:03:42.785298400,2.23129833984375,0.1023684145193546,-0.1354658705443144,0.7743183392249048
2024-12-07 20:03:42.795312400,2.2413125,-0.2681517549812793,-0.1121580601930618,0.8296173248596489
2024-12-07 20:03:42.805326300,2.251326416015625,-0.420454851623252,-0.1116308214485645,0.860461522065103
2024-12-07 20:03:42.815340300,2.26134033203125,-0.3487292665183544,-0.1012245782464742,0.8042351193871349
2024-12-07 20:03:42.825354200,2.271354248046875,-0.1194106616698205,-0.0821890383869409,0.6892892551064491
2024-12-07 20:03:42.835368400,2.281368408203125,0.0924479090075939,-0.0597521656513214,0.5566160109553486
2024-12-07 20:03:42.845382400,2.29138232421875,0.2159317384004593,-0.0145657009690999,0.2925224453236907
2024-12-07 20:03:42.855396400,2.301396240234375,0.1615842082716524,-0.0022848960667848,0.0234722801979631
2024-12-07 20:03:42.865410300,2.311410400390625,-0.0986145418785512,-0.0644867929577827,-0.194127099153772
2024-12-07 20:03:42.875424500,2.321424560546875,-0.3996479912422597,-0.1068809965729713,-0.2691911079663783
2024-12-07 20:03:42.885438500,2.3314384765625,-0.529387446963787,-0.0930062004774808,-0.2220792281795293
2024-12-07 20:03:42.895452200,2.3414521484375,-0.4872879154462367,-0.0763496647089719,-0.1756930688513442
2024-12-07 20:03:42.905466400,2.35146630859375,-0.386357424775511,-0.0813332983404397,-0.121023795954883
2024-12-07 20:03:42.915480300,2.361480224609375,-0.3160463826436549,-0.0942646761059761,-0.0524207450510002
2024-12-07 20:03:42.925494500,2.37149462890625,-0.2706416721008718,-0.0928144772976636,0.0334253910713829
2024-12-07 20:03:42.935508200,2.38150830078125,-0.2400421703714877,-0.0647919133841991,0.1288752218413166
2024-12-07 20:03:42.945522400,2.3915224609375,-0.2467243515491485,-0.0500356582790613,0.2905023924718611
2024-12-07 20:03:42.955536400,2.401536376953125,-0.260260563340038,-0.0875830063849687,0.5440539048936218
2024-12-07 20:03:42.965550300,2.41155029296875,-0.193006643756479,-0.1898667382955551,0.7732029983941465
2024-12-07 20:03:42.975564300,2.421564208984375,-0.0481165267847478,-0.2841378441423177,0.8890691193249076
2024-12-07 20:03:42.985577500,2.431577392578125,0.0830770732678473,-0.338259894952178,0.9066125209305436
2024-12-07 20:03:42.995591400,2.44159130859375,0.2139151378810405,-0.3025210575729608,0.786819947271049
2024-12-07 20:03:43.005605400,2.45160546875,0.2440228375054896,-0.1667629260838031,0.5412330022539943
2024-12-07 20:03:43.015619300,2.461619384765625,0.153182144498825,-0.0524310289829969,0.2653196916268207
2024-12-07 20:03:43.025633300,2.47163330078125,0.0080989891730248,-0.0169505502790212,0.0434072348489426
2024-12-07 20:03:43.035647500,2.4816474609375,-0.1731995350025594,-0.1027361518532037,-0.1316342382258735
2024-12-07 20:03:43.045661400,2.491661376953125,-0.3101158235508948,-0.2294692653656005,-0.2207894075646996
2024-12-07 20:03:43.055675400,2.50167529296875,-0.3736133862756192,-0.2943511951208114,-0.2387064282556995
2024-12-07 20:03:43.065689300,2.511689453125,-0.3426327032089233,-0.318626973721385,-0.1815120207957923
2024-12-07 20:03:43.075703300,2.521703369140625,-0.2612916599534451,-0.2608428932726383,-0.0608266219158424
2024-12-07 20:03:43.085717500,2.531717529296875,-0.1520904037393629,-0.1450596283197402,0.1317774186893832
2024-12-07 20:03:43.095731200,2.541731201171875,-0.1065513992924243,-0.0892915638685226,0.3044903848845511
2024-12-07 20:03:43.105745400,2.551745361328125,-0.1207424947954714,-0.1796732610613107,0.4963699973724782
2024-12-07 20:03:43.115759400,2.56175927734375,-0.1337210727035999,-0.3079454207092523,0.7159330780126154
2024-12-07 20:03:43.125773300,2.571773193359375,-0.0893255392033606,-0.421586412936449,0.9130142046663908
2024-12-07 20:03:43.135787300,2.581787353515625,-0.0087679744757711,-0.506328642937541,1.0462122033439576
2024-12-07 20:03:43.145801200,2.59180126953125,0.0516879555307328,-0.4957803609162569,1.2353336762301623
2024-12-07 20:03:43.155815400,2.6018154296875,0.1367534261368215,-0.3807704184234142,1.4309725681863723
2024-12-07 20:03:43.165829400,2.611829345703125,0.1687536615096032,-0.270412685650587,1.557909972099215
2024-12-07 20:03:43.175843300,2.62184326171875,0.1514965294994413,-0.1826128216445446,1.6562778457403182
2024-12-07 20:03:43.185857300,2.631857177734375,0.0497029191933572,-0.0769020378947258,1.709898230638355
2024-12-07 20:03:43.195871200,2.641871337890625,-0.1062076273560524,0.1009498529583215,1.6790961190089582
2024-12-07 20:03:43.205885400,2.651885498046875,-0.3070785747468471,0.3182984724193811,1.5944260774612429
2024-12-07 20:03:43.215899400,2.6618994140625,-0.4728152265228331,0.5093371771037578,1.517229586664587
2024-12-07 20:03:43.225913300,2.671913330078125,-0.5592132609069347,0.75991528147161,1.521280323360115
2024-12-07 20:03:43.235927300,2.68192724609375,-0.4797555471800267,0.9461310960441828,1.6091349862933155
2024-12-07 20:03:43.245942000,2.69194189453125,-0.303144596298784,0.9971113416969776,1.606829631960392
2024-12-07 20:03:43.255956200,2.701956298828125,-0.1528640184603631,0.9569920972764492,1.501475114302337
2024-12-07 20:03:43.265969200,2.71196923828125,-0.0494062743343412,0.7642956885129213,1.1886619414262474
2024-12-07 20:03:43.275983000,2.721983154296875,-0.118617173204571,0.3903156608819961,0.5920983893554658
2024-12-07 20:03:43.285997000,2.7319970703125,-0.2625356686651706,0.0321785145491361,-0.0402067765735089
2024-12-07 20:03:43.296011000,2.742010986328125,-0.4293104313172399,-0.1479611949801444,-0.561507326660864
2024-12-07 20:03:43.306025000,2.75202490234375,-0.5341792112849653,-0.1952799955159425,-0.9993874699354172
2024-12-07 20:03:43.316039200,2.7620390625,-0.5353004703998565,-0.0465308650285005,-1.260412149515748
2024-12-07 20:03:43.326053000,2.77205322265625,-0.4458392490528524,0.2654740602046251,-1.375904322567582
2024-12-07 20:03:43.336067000,2.782067138671875,-0.2751483358703553,0.7135504206597805,-1.2913178676500916
2024-12-07 20:03:43.346081000,2.7920810546875,-0.0609726473569869,1.163607141277194,-1.043760645473376
2024-12-07 20:03:43.356095000,2.802094970703125,0.1184172667182981,1.4972954905301332,-0.7675642618548124
2024-12-07 20:03:43.366109200,2.812109130859375,0.2079166281186044,1.6257102735191582,-0.4990186487177386
2024-12-07 20:03:43.376123000,2.822122802734375,0.1735268672607839,1.4624942262619731,-0.2178713281609118
2024-12-07 20:03:43.386137000,2.83213720703125,-0.0043945816971361,0.9752923085987568,-0.0153665324905887
2024-12-07 20:03:43.396151000,2.842151123046875,-0.3229157569564879,0.4064940577447414,0.1647435490854084
2024-12-07 20:03:43.406165200,2.852165283203125,-0.5633775409795344,-0.0714648152768611,0.3029824280070141
2024-12-07 20:03:43.416179000,2.862178955078125,-0.6242144331276417,-0.299913505423069,0.4531641120482236
2024-12-07 20:03:43.426193000,2.87219287109375,-0.5029997907757758,-0.3565495848804712,0.5797995373398065
2024-12-07 20:03:43.436207000,2.88220703125,-0.3491406237982213,-0.3366910382002592,0.65912814479433
2024-12-07 20:03:43.446221000,2.892220947265625,-0.2271276706755161,-0.3270172009259462,0.6393005047090351
2024-12-07 20:03:43.456235300,2.9022353515625,-0.1051109181605279,-0.3333692003011703,0.5799903837367892
2024-12-07 20:03:43.466249000,2.9122490234375,0.0171967801250517,-0.3350058615922928,0.4687529455199837
2024-12-07 20:03:43.476263200,2.92226318359375,0.1459761586427688,-0.309512523895502,0.3317102541130036
2024-12-07 20:03:43.486277000,2.932277099609375,0.2261455277703702,-0.2203232513576745,0.197542241359502
2024-12-07 20:03:43.496291000,2.942291015625,0.2516458797298371,-0.106088969412446,0.0675160045858472
2024-12-07 20:03:43.506305000,2.952304931640625,0.2021837835550308,-0.0647013124912977,-0.0842665022481232
2024-12-07 20:03:43.516319000,2.962319091796875,0.1171616406340152,-0.0528536383092403,-0.2315719367332756
2024-12-07 20:03:43.526333200,2.972333251953125,-0.0059597121220082,-0.0642313568919897,-0.3096527360837906
2024-12-07 20:03:43.536347100,2.98234716796875,-0.1386894357006997,-0.088686583712697,-0.3159492789447307
2024-12-07 20:03:43.546360000,2.992360107421875,-0.2406710428595542,-0.1095978543162345,-0.2800635804407298
2024-12-07 20:03:43.556374000,3.0023740234375,-0.2842915733993053,-0.1353010353714227,-0.2125427535492926
2024-12-07 20:03:43.566388200,3.01238818359375,-0.2856886537808925,-0.1178659164458513,-0.1196765095317736
2024-12-07 20:03:43.576402000,3.02240185546875,-0.2511678869545459,-0.1030003557473421,-0.0059712929619476
2024-12-07 20:03:43.586416000,3.032416015625,-0.2503039636015892,-0.1020294648885726,0.060908203818649
2024-12-07 20:03:43.596430000,3.04243017578125,-0.3245475959420204,-0.0199018013000488,0.1142176596039906
2024-12-07 20:03:43.606444000,3.052444091796875,-0.4391899472314864,0.1870873367100954,0.193017384346202
2024-12-07 20:03:43.616458200,3.062458251953125,-0.5994225582310929,0.4971294374376535,0.1874856153126806
2024-12-07 20:03:43.626472000,3.072471923828125,-0.7158885082185268,0.7618570631891488,0.1052068893482908
2024-12-07 20:03:43.636486100,3.082486083984375,-0.8211737600326537,0.9071785573154688,-0.0329938495200127
2024-12-07 20:03:43.646500000,3.0925,-0.9257377118349076,0.8941904809266328,-0.1639062580110505
2024-12-07 20:03:43.656514000,3.10251416015625,-0.957352162760496,0.7895382663190365,-0.2468584993228316
2024-12-07 20:03:43.666528000,3.112528076171875,-0.8325573238343,0.6721715315669775,-0.2805599491229281
2024-12-07 20:03:43.676542000,3.1225419921875,-0.5934592293798923,0.5499269616454839,-0.2830331708360463
2024-12-07 20:03:43.686556200,3.13255615234375,-0.3030751843243837,0.421409302803874,-0.2578327151386067
2024-12-07 20:03:43.696570000,3.142570068359375,-0.0365741191595792,0.3297060016185045,-0.1747313111471012
2024-12-07 20:03:43.706584000,3.152583984375,0.1728641655683517,0.2524222709298134,-0.0616650135353207
2024-12-07 20:03:43.716598000,3.162597900390625,0.2092904006898403,0.2280740116149187,-0.0126102925850078
2024-12-07 20:03:43.726612000,3.172612060546875,0.1009813440751284,0.2169400386601686,-0.0903974062185734
2024-12-07 20:03:43.736626200,3.182626220703125,0.0577582884203642,0.2466197221308946,-0.2105789243967272
2024-12-07 20:03:43.746640000,3.192639892578125,0.2011111128222197,0.2643640531361103,-0.2160350709107704
2024-12-07 20:03:43.756654000,3.202654052734375,0.4162305119264871,0.1961398272156715,-0.1449418106263503
2024-12-07 20:03:43.766668000,3.21266796875,0.7041747626144439,0.2031897457271814,-0.0510203584674745
2024-12-07 20:03:43.776682200,3.22268212890625,1.0054349334061146,0.1750508619576692,0.0402216453490778
2024-12-07 20:03:43.786696000,3.232696044921875,1.1705891091190277,0.185295777118206,0.135529510365054
2024-12-07 20:03:43.796710000,3.2427099609375,1.0559129286251965,0.3034545390307903,0.1488973798517137
2024-12-07 20:03:43.806724000,3.25272412109375,0.7433223124586046,0.535588639691472,0.1247439855217933
2024-12-07 20:03:43.816737300,3.2627373046875,0.4909948802053928,0.7163818446934223,-0.0613137158796191
2024-12-07 20:03:43.826751000,3.2727509765625,0.4050495580248534,0.7987450706034899,-0.3608072423249482
2024-12-07 20:03:43.836765000,3.282764892578125,0.5369556902609766,0.7314736153632402,-0.6762213184144348
2024-12-07 20:03:43.846779100,3.292779052734375,0.7716398407306522,0.5147369903206825,-0.8634307471342384
2024-12-07 20:03:43.856793000,3.30279296875,1.0339964995671065,0.2577612938702106,-0.9933904214777052
2024-12-07 20:03:43.866807000,3.31280712890625,1.1393792934715747,0.0094195702522993,-1.08120913631469
2024-12-07 20:03:43.876821000,3.322821044921875,0.9961978070486336,-0.1811795739710331,-1.0539919704999774
2024-12-07 20:03:43.886835200,3.332835205078125,0.756664755243063,-0.2908621839612722,-0.944022287196666
2024-12-07 20:03:43.896849200,3.34284912109375,0.6668314857132732,-0.41337855656147,-0.8443842474892735
2024-12-07 20:03:43.906862800,3.35286279296875,0.7512861309446394,-0.5627595552116632,-0.8295970127239822
2024-12-07 20:03:43.916877000,3.362876953125,0.8281770629234612,-0.6108627841234207,-0.9675172906830908
2024-12-07 20:03:43.926891000,3.37289111328125,0.8306108659416437,-0.5612824683964253,-1.0726738015510142
2024-12-07 20:03:43.936905200,3.3829052734375,0.6879086144030093,-0.4515595263957977,-1.0847354107446967
2024-12-07 20:03:43.946919000,3.3929189453125,0.5725096725925802,-0.3761918584614992,-1.152472729931027
2024-12-07 20:03:43.956933000,3.40293310546875,0.5289790122933685,-0.3999345530986786,-1.3454391878075898
2024-12-07 20:03:43.966947000,3.412947021484375,0.5460102265931666,-0.5430108986467123,-1.645573204113543
2024-12-07 20:03:43.976961000,3.4229609375,0.4322587597288191,-0.6967366485029458,-1.805590893720836
2024-12-07 20:03:43.986975000,3.43297509765625,0.1871811524733901,-0.7632137384951114,-1.805192980444431
2024-12-07 20:03:43.996989000,3.442989013671875,-0.0381282167337834,-0.6862304520577192,-1.7134212901979684
2024-12-07 20:03:44.007003100,3.453003173828125,-0.2176495021037757,-0.5266968927055597,-1.5059649730674922
2024-12-07 20:03:44.017017000,3.46301708984375,-0.3900828750394284,-0.3311374957263469,-1.2053614395536485
2024-12-07 20:03:44.027031000,3.473031005859375,-0.4962916714392602,-0.1476899768233299,-0.8189312418028711
2024-12-07 20:03:44.037045000,3.483044921875,-0.5630033008396625,0.0108048871308565,-0.4678625725515186
2024-12-07 20:03:44.047059000,3.493058837890625,-0.5138016091667116,0.1226777006417512,-0.2011393890686333
2024-12-07 20:03:44.057073200,3.5030732421875,-0.3080253540776669,0.1360907244443893,-0.0111424485221505
2024-12-07 20:03:44.067087000,3.513087158203125,-0.0569495293207466,0.0874754543572664,0.0775360980145633
2024-12-07 20:03:44.077101000,3.52310107421875,0.1715786558024585,0.0216436765313148,0.1042901032969355
2024-12-07 20:03:44.087114000,3.533114013671875,0.4870144322670996,-0.1163444059669971,0.0605935849115252
2024-12-07 20:03:44.097128200,3.543128173828125,0.7080296114116906,-0.3012006226241588,-0.0950457434810698
2024-12-07 20:03:44.107142000,3.553141845703125,0.6717584207214414,-0.4281529318451881,-0.2271246019355952
2024-12-07 20:03:44.117156000,3.563156005859375,0.5357565436042845,-0.5833183591157197,-0.2485632574141025
2024-12-07 20:03:44.127170000,3.573170166015625,0.4505846900142729,-0.6719862381279468,-0.3852798586718738
2024-12-07 20:03:44.137184300,3.583184326171875,0.4501755246914923,-0.6546756223648786,-0.5160965882360935
2024-12-07 20:03:44.147198000,3.593197998046875,0.3661830901443958,-0.5241372713506222,-0.543881397870928
2024-12-07 20:03:44.157212000,3.6032119140625,0.2382669043272733,-0.3593547054290771,-0.4839217269487679
2024-12-07 20:03:44.167226000,3.61322607421875,0.050729047370702,-0.2254752272933721,-0.3164583975106477
2024-12-07 20:03:44.177240000,3.623239990234375,0.0086054773904383,-0.2528746908724308,-0.0770686266332864
2024-12-07 20:03:44.187254000,3.63325390625,-0.1065951653689146,-0.3404226259440183,0.1081258820675313
2024-12-07 20:03:44.197268000,3.64326806640625,-0.4443890502445399,-0.4484253200232982,0.2958240441523492
2024-12-07 20:03:44.207282200,3.6532822265625,-0.6059855334758758,-0.5233809000253677,0.464367862303555
2024-12-07 20:03:44.217296100,3.663296142578125,-0.4667185170829296,-0.564453499647975,0.5464218761339783
2024-12-07 20:03:44.227309800,3.673309814453125,-0.0180909524857997,-0.5211509490162134,0.5284527964621782
2024-12-07 20:03:44.237324000,3.683323974609375,0.3335404652148485,-0.4589326855123042,0.3265921073816716
2024-12-07 20:03:44.247338200,3.693338134765625,0.4426315390527248,-0.5032160638749599,-0.0877493028625845
2024-12-07 20:03:44.257352200,3.703352294921875,0.252448136023432,-0.6526543456703424,-0.5380035918787122
2024-12-07 20:03:44.267366100,3.7133662109375,0.0266664731293916,-0.7805705314874649,-0.8551539171762764
2024-12-07 20:03:44.277380400,3.72338037109375,0.0158292911641299,-0.8658668882399797,-1.0916726626619695
2024-12-07 20:03:44.287394300,3.733394287109375,0.0277766263283789,-0.8558347390472888,-1.2966317561492322
2024-12-07 20:03:44.297408300,3.743408203125,0.1307564507443457,-0.8414461482107639,-1.4970193039372564
2024-12-07 20:03:44.307422200,3.753422119140625,0.3121365157235413,-0.8286655770927667,-1.606732601326704
2024-12-07 20:03:44.317436200,3.763436279296875,0.4375029439926147,-0.8174971173465252,-1.624598074493557
2024-12-07 20:03:44.327450400,3.773450439453125,0.236039364470914,-0.7346510763555765,-1.556182417654246
2024-12-07 20:03:44.337464300,3.78346435546875,-0.0011491700351238,-0.5489712683558464,-1.3684070986799894
2024-12-07 20:03:44.347477200,3.793477294921875,-0.2717898192226886,-0.3451508235096931,-1.080676052351296
2024-12-07 20:03:44.357491200,3.8034912109375,-0.4049165792949497,-0.2621855400532484,-0.7818969577856362
2024-12-07 20:03:44.367505400,3.81350537109375,-0.3451303652435541,-0.3588707213044166,-0.4799775193676352
2024-12-07 20:03:44.377519000,3.82351904296875,-0.2978543809361755,-0.5311825136870145,-0.2729813670948147
2024-12-07 20:03:44.387533300,3.833533203125,-0.2636527630615979,-0.5914145718097686,-0.1248106210172176
2024-12-07 20:03:44.397547300,3.84354736328125,-0.4048937098760157,-0.5025824421465397,0.1082120990462601
2024-12-07 20:03:44.407561200,3.853561279296875,-0.6594728665787726,-0.2430138065934181,0.3866715322259813
2024-12-07 20:03:44.417575200,3.8635751953125,-0.7301128484040499,0.2392068155258893,0.6048631783824414
2024-12-07 20:03:44.427589000,3.873589111328125,-0.6297696561019868,0.9434574929207564,0.77352302412875
2024-12-07 20:03:44.437603300,3.883603271484375,-0.7900058107655495,1.658943265557289,0.9334640683032572
2024-12-07 20:03:44.447617300,3.8936171875,-1.0866548344999551,2.110442586198449,1.0940240480937062
2024-12-07 20:03:44.457631200,3.90363134765625,-1.304438922768831,2.1165613613396883,1.1531550861719997
2024-12-07 20:03:44.467645200,3.913645263671875,-1.4964987871944904,1.8197715408951043,1.203322919463366
2024-12-07 20:03:44.477659100,3.9236591796875,-1.659040296190977,1.3207073360025885,1.2391964891381562
2024-12-07 20:03:44.487673300,3.93367333984375,-1.7143401586085556,0.6960504198044538,1.3380423555545509
2024-12-07 20:03:44.497687300,3.943687255859375,-1.519388664394617,0.1240986733555793,1.4024647049739956
2024-12-07 20:03:44.507701200,3.953701171875,-0.9718319390118122,-0.3205184865564108,1.355825995656848
2024-12-07 20:03:44.517715200,3.963715087890625,-0.3786836752772331,-0.5670990457206965,1.1484409171316772
2024-12-07 20:03:44.527729200,3.973729248046875,-0.067293082550168,-0.5328384642004966,0.8881763352036476
2024-12-07 20:03:44.537743400,3.983743408203125,-0.0774614253431558,-0.3179857532083988,0.7097755782961845
2024-12-07 20:03:44.547757000,3.993757080078125,-0.2771077628424391,-0.0368435837507247,0.5490164226718247
2024-12-07 20:03:44.557771300,4.003771240234375,-0.5198275549253448,0.1746416966348886,0.496785811631754
2024-12-07 20:03:44.567785200,4.01378515625,-0.6002794307887553,0.1970879217207431,0.4868107263885438
2024-12-07 20:03:44.577799400,4.02379931640625,-0.560924740999937,0.0939408509790897,0.3869284295964986
2024-12-07 20:03:44.587813000,4.033813232421875,-0.594030270733498,-0.1067097316592931,0.2472670801237225
2024-12-07 20:03:44.597827000,4.0438271484375,-0.6640180357277393,-0.2632137140572071,0.0944293651483953
2024-12-07 20:03:44.607841300,4.05384130859375,-0.7147960368067026,-0.3149532536447048,-0.0350080388866364
2024-12-07 20:03:44.617854200,4.063854248046875,-0.7599088517308235,-0.3556634496957063,-0.108619656933844
2024-12-07 20:03:44.627868200,4.0738681640625,-0.6033691769650206,-0.2739566418677568,-0.1721522179067134
2024-12-07 20:03:44.637882000,4.083882080078125,-0.3337386181354522,-0.1142827972620725,-0.2728512379091233
2024-12-07 20:03:44.647896300,4.093896240234375,-0.3330284240394831,0.1388596046358347,-0.3246538327954709
2024-12-07 20:03:44.657910000,4.103909912109375,-0.3893757496833801,0.4224158494979143,-0.2191980467200279
2024-12-07 20:03:44.667924200,4.11392431640625,-0.3496276766628027,0.5562018041312694,-0.0572309766106307
2024-12-07 20:03:44.677938200,4.123938232421875,-0.1160217498838901,0.3655979837328195,0.0317515943739563
2024-12-07 20:03:44.687952400,4.133952392578125,0.248088625639677,-0.0279611891150474,-0.0327189050361514
2024-12-07 20:03:44.697966300,4.14396630859375,0.4001753761172294,-0.4309644821345806,-0.2162544675488024
2024-12-07 20:03:44.707980000,4.15397998046875,0.3751660225450992,-0.5760083283632993,-0.4922472183540463
2024-12-07 20:03:44.717994200,4.163994140625,0.453007971638441,-0.4758399811714887,-0.8111713483911007
2024-12-07 20:03:44.728008200,4.17400830078125,0.4725619824141264,-0.295159588894248,-1.0185371376939116
2024-12-07 20:03:44.738022400,4.1840224609375,0.4499211115390062,-0.1465758781015873,-1.1279939030390231
2024-12-07 20:03:44.748036000,4.1940361328125,0.474136684384942,-0.0548848518759012,-1.1579209853995591
2024-12-07 20:03:44.758050300,4.20405029296875,0.5487731154352427,0.115022217452526,-1.253212447270006
2024-12-07 20:03:44.768064300,4.214064208984375,0.5462970807105303,0.2949555907547473,-1.36961399025172
2024-12-07 20:03:44.778078200,4.224078125,0.364084656560421,0.2312631630450487,-1.4138259108133613
2024-12-07 20:03:44.788092200,4.234092041015625,0.069797758847475,-0.0027653730601072,-1.3872539840996263
2024-12-07 20:03:44.798106000,4.244106201171875,-0.1565104121387004,-0.1102899282336235,-1.2031316346749663
2024-12-07 20:03:44.808120300,4.254120361328125,-0.1895604488253593,-0.1633680229485034,-0.9228699013136328
2024-12-07 20:03:44.818134300,4.26413427734375,-0.0580091305094305,-0.2345171964049339,-0.7390601980347186
2024-12-07 20:03:44.828148200,4.274148193359375,0.1418611428056843,-0.3641203123956918,-0.6000365619435906
2024-12-07 20:03:44.838162200,4.284162109375,0.3272691298604011,-0.3999555958867072,-0.488621648268029
2024-12-07 20:03:44.848176000,4.294176025390625,0.4290963501751422,-0.2371206569015979,-0.3445244717722758
2024-12-07 20:03:44.858190300,4.3041904296875,0.5528782126665115,0.0113157592624425,-0.1985160182951018
2024-12-07 20:03:44.868204000,4.3142041015625,0.6376490842401981,0.1939367642134428,0.0493746005544438
2024-12-07 20:03:44.878217200,4.32421728515625,0.7464683553993702,0.2698585588991641,0.1951384681534022
2024-12-07 20:03:44.888231200,4.334231201171875,0.6767874278645962,0.2181108360052108,0.2667599352966994
2024-12-07 20:03:44.898245400,4.344245361328125,0.4476081218888983,0.186342071300745,0.199065395806171
2024-12-07 20:03:44.908259000,4.354259033203125,-0.0088321257531642,0.079921093454957,-0.0028209391722455
2024-12-07 20:03:44.918273300,4.364273193359375,-0.5226654452323913,-0.0973258172422647,-0.1030977517072111
2024-12-07 20:03:44.928287200,4.374287353515625,-0.7513631417036056,-0.1954886698305606,-0.0993879739364609
2024-12-07 20:03:44.938301400,4.384301513671875,-0.5673416588375344,-0.1734890194684266,-0.0506718007581308
2024-12-07 20:03:44.948315100,4.394315185546875,-0.1510532792439684,-0.1253875441223383,-0.0029624300021678
2024-12-07 20:03:44.958329000,4.4043291015625,0.1924444798290729,-0.0573380902469158,0.0329300635688006
2024-12-07 20:03:44.968343300,4.41434326171875,0.3411924047401174,0.0110486327588558,0.1089898419531062
2024-12-07 20:03:44.978357200,4.424357177734375,0.3706325073013082,0.041078444841504,0.2165568845614791
2024-12-07 20:03:44.988371200,4.43437109375,0.4124186985533684,-0.0359375748217105,0.3750646079972386
2024-12-07 20:03:44.998385200,4.44438525390625,0.5451181000590324,-0.1755897911399603,0.4973675935750827
2024-12-07 20:03:45.008399400,4.4543994140625,0.7202338439464568,-0.2345025833576917,0.5115640228403732
2024-12-07 20:03:45.018413300,4.464413330078125,0.9233762434005736,-0.2181213573992252,0.4227505248123779
2024-12-07 20:03:45.028427000,4.474427001953125,1.0999638864714651,-0.1067787052422761,0.2444794952318072
2024-12-07 20:03:45.038441200,4.484441162109375,1.135716679310799,-0.0066033437877893,-0.0117338385440409
2024-12-07 20:03:45.048455200,4.494455078125,0.9156792591571808,0.1823760902792215,-0.301817220152542
2024-12-07 20:03:45.058469400,4.504469482421875,0.4509107070982456,0.2347118421941995,-0.5235073028840125
2024-12-07 20:03:45.068483000,4.514483154296875,0.0435094713807105,0.1041051021188497,-0.6329943172369152
2024-12-07 20:03:45.078497300,4.524497314453125,-0.028624036937952,-0.067742579883337,-0.6569029430255293
2024-12-07 20:03:45.088511200,4.53451123046875,0.1271908672172576,-0.242639128062129,-0.7146995176296681
2024-12-07 20:03:45.098525200,4.544525146484375,0.3157073599476367,-0.2294640046685934,-0.6526636249553411
2024-12-07 20:03:45.108539400,4.554539306640625,0.3857446266394108,-0.3586778290808201,-0.6296686068803071
2024-12-07 20:03:45.118553000,4.564552978515625,0.4943102152984589,-0.5125549701064824,-0.6997999085310846
2024-12-07 20:03:45.128567300,4.5745673828125,0.6032055473685264,-0.4226280309438705,-0.6499050469622015
2024-12-07 20:03:45.138580200,4.584580322265625,0.7888835287373512,-0.1480576410919427,-0.5384317541629076
2024-12-07 20:03:45.148594200,4.59459423828125,1.0190390958666802,0.0721358464062213,-0.3834233806176111
2024-12-07 20:03:45.158608100,4.604608154296875,1.251510465657711,0.1978992381036281,-0.2790384386440739
2024-12-07 20:03:45.168622300,4.614622314453125,1.3822013768851755,0.2373895369708538,-0.2563700587075203
2024-12-07 20:03:45.178636300,4.62463623046875,1.3293337100505829,0.1695493419319391,-0.2587118360606953
2024-12-07 20:03:45.188650200,4.634650146484375,1.0567968718528746,0.0870417391151189,-0.2182553955750539
2024-12-07 20:03:45.198664200,4.644664306640625,0.8185154275435954,0.0540875640183687,-0.2055010914094746
2024-12-07 20:03:45.208678100,4.65467822265625,0.7110534162122756,0.0881125832170248,-0.1160236861126497
2024-12-07 20:03:45.218692400,4.6646923828125,0.6403332818228751,0.0116284784734249,0.028363778566569
2024-12-07 20:03:45.228706000,4.6747060546875,0.58061377633214,-0.1990565914452076,0.056780529429391
2024-12-07 20:03:45.238720300,4.68472021484375,0.4922844085592776,-0.4245037616878748,0.1088470359489321
2024-12-07 20:03:45.248734000,4.69473388671875,0.4780173252105713,-0.493338812983036,0.1931426181610673
2024-12-07 20:03:45.258748000,4.704747802734375,0.586494066542387,-0.283842660588026,0.2053041440652683
2024-12-07 20:03:45.268761900,4.714761962890625,0.6217861830674112,0.2218646355807781,0.2466866864198818
2024-12-07 20:03:45.278775800,4.72477587890625,0.4997988027773797,0.6621154169768094,0.1907008144995197
2024-12-07 20:03:45.288790000,4.7347900390625,0.2544084763109683,0.8634177415221929,0.0692612042853608
2024-12-07 20:03:45.298804000,4.744803955078125,-0.0098712595425546,0.7728349687993527,-0.1277287734862417
2024-12-07 20:03:45.308818000,4.75481787109375,-0.2988413461469114,0.5621306096583605,-0.2703536854723468
2024-12-07 20:03:45.318831900,4.764831787109375,-0.5634393541693687,0.3276812177926301,-0.3751596293369308
2024-12-07 20:03:45.328846000,4.77484619140625,-0.821014770078659,0.0997556747376918,-0.4667794900225475
2024-12-07 20:03:45.338860000,4.784860107421875,-1.0105180088240653,-0.1169131457656621,-0.4953668116793036
2024-12-07 20:03:45.348873700,4.794873779296875,-1.0370436121780424,-0.2143371626853942,-0.282345809626393
2024-12-07 20:03:45.358888000,4.804887939453125,-0.8011224672593176,-0.1622241136103868,0.0474937187112867
2024-12-07 20:03:45.368902000,4.81490185546875,-0.3984171342730522,0.0085486326366662,0.2905103017836809
2024-12-07 20:03:45.378916000,4.824916015625,0.0890074862301349,0.2526893974334001,0.4880211616242304
2024-12-07 20:03:45.388928800,4.8349287109375,0.4643478424288332,0.353854938969016,0.607825535319373
2024-12-07 20:03:45.398943000,4.84494287109375,0.6031589317478239,0.2267301957905292,0.6321585239998996
2024-12-07 20:03:45.408957000,4.85495703125,0.5313492485560476,-0.1419160695970058,0.5748147346645593
2024-12-07 20:03:45.418971000,4.864970947265625,0.3480746020019054,-0.5141758493065833,0.4532812356218695
2024-12-07 20:03:45.428984800,4.87498486328125,0.2622038063623011,-0.6835036574423313,0.3962187474459409
2024-12-07 20:03:45.438999000,4.8849990234375,0.280543619042635,-0.6586983020097017,0.3725673112887889
2024-12-07 20:03:45.449013000,4.895012939453125,0.3588146072030067,-0.4745610472768545,0.4016958636827766
2024-12-07 20:03:45.459027000,4.90502685546875,0.4675121516786515,-0.3579612052440643,0.454656615628302
2024-12-07 20:03:45.469041000,4.915041015625,0.4665221177279949,-0.380462959909439,0.4966203919369727
2024-12-07 20:03:45.479054800,4.925054931640625,0.362324076628685,-0.4664391156196594,0.4827582726599648
2024-12-07 20:03:45.489069000,4.935069091796875,0.1949240216851234,-0.4310626818120479,0.4605012865358963
2024-12-07 20:03:45.499083000,4.9450830078125,0.0228290869235992,-0.2107809315085411,0.4024395581895485
2024-12-07 20:03:45.509097000,4.955096923828125,-0.2274139402709901,0.04686754963696,0.277787707930617
2024-12-07 20:03:45.519111000,4.96511083984375,-0.4729259934209286,0.2326250990480184,0.1606257750356569
2024-12-07 20:03:45.529124900,4.975124755859375,-0.6403612658083438,0.2695177826374769,0.055633734014444
2024-12-07 20:03:45.539139000,4.98513916015625,-0.7003763201795518,0.2043213801056146,-0.0942635435948148
2024-12-07 20:03:45.549152800,4.99515283203125,-0.6744096658825874,0.1319195762395858,-0.2659569118181243
2024-12-07 20:03:45.559167000,5.0051669921875,-0.5449542877994478,0.086153850364685,-0.3900796601690351
2024-12-07 20:03:45.569181000,5.015180908203125,-0.411885541524738,0.0599082329958677,-0.4448980957452207
2024-12-07 20:03:45.579195100,5.025195068359375,-0.3517874850451946,-0.026395254972577,-0.4253142378205433
2024-12-07 20:03:45.589208800,5.035208740234375,-0.4570191069759428,-0.1032306573718786,-0.2852674874930642
2024-12-07 20:03:45.599222800,5.045222900390625,-0.5291885633908212,-0.1926268506586551,-0.0585639057148247
2024-12-07 20:03:45.609237000,5.055237060546875,-0.4829296471714973,-0.3016764234423637,0.1355237930103205
2024-12-07 20:03:45.619251000,5.0652509765625,-0.4169312806069851,-0.3011392478257417,0.303222922232002
2024-12-07 20:03:45.629265000,5.075264892578125,-0.3557062659241259,-0.2002536922752857,0.4144027850426733
2024-12-07 20:03:45.639277800,5.08527783203125,-0.3175160898700356,-0.0602139379441738,0.3911168211970478
2024-12-07 20:03:45.649292000,5.0952919921875,-0.3180456667020916,0.105044428795576,0.2807421190231107
2024-12-07 20:03:45.659306000,5.105305908203125,-0.3503542373716831,0.2091460237830877,0.1399649081297684
2024-12-07 20:03:45.669320000,5.11531982421875,-0.4311784171462058,0.2353700138419866,0.0389358615885488
2024-12-07 20:03:45.679334000,5.125333984375,-0.522581127949804,0.1538467458873987,0.0324272925452794
2024-12-07 20:03:45.689348000,5.13534814453125,-0.5314497863210738,0.0218909292906522,0.1601440194007009
2024-12-07 20:03:45.699362000,5.145362060546875,-0.3779099144257605,-0.1453144798636436,0.3114397290984168
2024-12-07 20:03:45.709375700,5.155375732421875,-0.1867456836655736,-0.2662467981427908,0.436231828078255
2024-12-07 20:03:45.719390000,5.165389892578125,-0.0323896730817854,-0.2720890944302082,0.504948623288609
2024-12-07 20:03:45.729404000,5.17540380859375,0.0174691673256456,-0.1702624586373567,0.5846823044126853
2024-12-07 20:03:45.739418000,5.185418212890625,-0.0247067173637449,-0.0578226588934659,0.6228977245058864
2024-12-07 20:03:45.749431800,5.195431884765625,-0.1207797580659389,0.018539865297079,0.6093344420449808
2024-12-07 20:03:45.759446000,5.205446044921875,-0.1698423335291445,0.0989531261831521,0.5924444263141602
2024-12-07 20:03:45.769460000,5.2154599609375,-0.1775017622411251,0.1640688646942377,0.5852818412084132
2024-12-07 20:03:45.779474000,5.225473876953125,-0.1506638780675828,0.132305360686779,0.542838574287109
2024-12-07 20:03:45.789487900,5.23548779296875,-0.2053042536631226,0.0066354924917221,0.5108263196829707
2024-12-07 20:03:45.799501800,5.245501708984375,-0.2943744298659265,-0.0959872621148824,0.4569816975750029
2024-12-07 20:03:45.809516000,5.25551611328125,-0.4233516690433025,-0.0733826315969228,0.4358654059186577
2024-12-07 20:03:45.819530000,5.265530029296875,-0.516728894790262,0.0166875154286623,0.4981297370539977
2024-12-07 20:03:45.829544000,5.2755439453125,-0.4500700184904038,0.1277852529138326,0.6017847207851708
2024-12-07 20:03:45.839558000,5.285557861328125,-0.2368903552770614,0.2607528769016266,0.7489279504459351
2024-12-07 20:03:45.849571800,5.29557177734375,0.0246339443884789,0.3722212012648582,0.9336731810092924
2024-12-07 20:03:45.859586000,5.3055859375,0.2745803267240524,0.405603246384859,1.060633892732486
2024-12-07 20:03:45.869599700,5.315599853515625,0.5261700923524797,0.3855623288750648,1.1302646975152193
2024-12-07 20:03:45.879613000,5.325613037109375,0.7410543675266206,0.4680775304764509,1.1994991233915089
2024-12-07 20:03:45.889627000,5.335626953125,0.9074247871614992,0.6826087544292211,1.2528076658613978
2024-12-07 20:03:45.899641000,5.34564111328125,0.9521534250736235,0.8981254822880029,1.2315189402475952
2024-12-07 20:03:45.909654800,5.35565478515625,0.874770764055103,1.1988368600904942,1.3116158286608754
2024-12-07 20:03:45.919669000,5.3656689453125,0.6991033776342869,1.0469394947052002,1.05731855763942
2024-12-07 20:03:45.929683000,5.375682861328125,0.5310919127941132,0.7278636081725358,0.510469505601935
2024-12-07 20:03:45.939697200,5.385697265625,0.3845090204298496,0.4924854110240936,0.0519418937591835
2024-12-07 20:03:45.949710800,5.3957109375,0.2231773256145417,0.2204763960927724,-0.4742681287448853
2024-12-07 20:03:45.959724800,5.405724853515625,0.059733314820379,-0.1626075599700212,-1.077716764154285
2024-12-07 20:03:45.969739000,5.415739013671875,-0.0980875953949987,-0.5449877516776322,-1.633071157675981
2024-12-07 20:03:45.979753000,5.4257529296875,-0.2191666286684572,-0.7950175745129585,-2.047969178889692
2024-12-07 20:03:45.989767000,5.435766845703125,-0.3025530601464212,-0.8862444903582334,-2.0621559635438023
2024-12-07 20:03:45.999780900,5.44578076171875,-0.3092981504924595,-0.7558119378060102,-1.552626332607865
2024-12-07 20:03:46.009795000,5.455795166015625,-0.2157728945769369,-0.5505898094683885,-0.7826759793341159
2024-12-07 20:03:46.019809000,5.46580908203125,-0.0002184650562703,-0.3959498673766851,0.021373408222571
2024-12-07 20:03:46.029822700,5.47582275390625,0.2129142902754247,-0.2585860542565584,0.558045093910396
2024-12-07 20:03:46.039837000,5.4858369140625,0.3292283011041581,-0.232163326755166,0.8067753053892404
2024-12-07 20:03:46.049851000,5.495850830078125,0.3895509601198136,-0.2764467051178216,0.8398857670262455
2024-12-07 20:03:46.059865000,5.505864990234375,0.340040933150053,-0.3640507542908191,0.7739886688791215
2024-12-07 20:03:46.069878800,5.515878662109375,0.1873673226952552,-0.3917623525589704,0.6929086146473884
2024-12-07 20:03:46.079893000,5.52589306640625,0.0069699851430952,-0.336862887635827,0.6145547705091535
2024-12-07 20:03:46.089907000,5.535906982421875,-0.0955845265328884,-0.1589303327620029,0.5097434928823262
2024-12-07 20:03:46.099921000,5.5459208984375,-0.1633469801604747,0.0715343733817338,0.4071448498036712
2024-12-07 20:03:46.109935000,5.55593505859375,-0.2393839256584644,0.2121323461174964,0.3085318422950804
2024-12-07 20:03:46.119948800,5.56594873046875,-0.3080300302527844,0.3059352499306201,0.2351264874096959
2024-12-07 20:03:46.129962000,5.5759619140625,-0.4507821122825145,0.3792348794192075,0.241092044750601
2024-12-07 20:03:46.139976000,5.585975830078125,-0.5711293241500854,0.4799561843186616,0.2909947242997586
2024-12-07 20:03:46.149990000,5.595989990234375,-0.6197112764894962,0.503706477740407,0.3416132970333099
2024-12-07 20:03:46.160003800,5.60600390625,-0.6101942372120917,0.5108990195930004,0.3474037170030176
2024-12-07 20:03:46.170018000,5.61601806640625,-0.6330921515882015,0.4222270489275455,0.3662086629770696
2024-12-07 20:03:46.180032000,5.626031982421875,-0.7214030338563024,0.3045440878331661,0.4272284374114126
2024-12-07 20:03:46.190046000,5.6360458984375,-0.8797571741655469,0.2380593990564346,0.5116484497208148
2024-12-07 20:03:46.200060000,5.646059814453125,-1.0132229569338262,0.2746218277782201,0.6663529814813286
2024-12-07 20:03:46.210073900,5.656073974609375,-1.0018297485210002,0.3313572759568691,0.7880969084043056
2024-12-07 20:03:46.220088000,5.666088134765625,-0.978418185534328,0.4018313266307115,0.8337875962816178
2024-12-07 20:03:46.230101800,5.676101806640625,-0.9826644448019564,0.3823229085624218,0.8406986177790909
2024-12-07 20:03:46.240116000,5.686115966796875,-1.0578059027649462,0.2928349453389644,0.8693733619909733
2024-12-07 20:03:46.250130200,5.696130126953125,-1.1648105257175865,0.1273117901831865,0.8874179911170155
2024-12-07 20:03:46.260143900,5.706143798828125,-1.249256403120607,-0.0097813893020153,0.9095052466973662
2024-12-07 20:03:46.270158000,5.716157958984375,-1.2620726300738752,-0.0871457840114832,0.9578926263127476
2024-12-07 20:03:46.280172000,5.726172119140625,-1.1914006456751376,-0.1063584340035915,0.969044061858952
2024-12-07 20:03:46.290186200,5.736186279296875,-1.044955627411604,-0.1133738657236099,0.9922497270099818
2024-12-07 20:03:46.300200000,5.746199951171875,-0.894836523745209,-0.1159323180347681,1.017802832069993
2024-12-07 20:03:46.310214100,5.756214111328125,-0.7881763303160667,-0.0857791718333959,0.9925655880261212
2024-12-07 20:03:46.320228000,5.76622802734375,-0.6966776117920875,0.0795394006609916,0.8638993144940584
2024-12-07 20:03:46.330242000,5.776241943359375,-0.6722504420220852,0.3284773366063833,0.6361180752806365
2024-12-07 20:03:46.340256000,5.786256103515625,-0.6665677932757884,0.675119275456667,0.3452843502288684
2024-12-07 20:03:46.350270000,5.79627001953125,-0.6751590229451656,1.0146031592458489,0.0580778026983141
2024-12-07 20:03:46.360283100,5.806283203125,-0.8304325867652893,1.1893564995616674,-0.3064194167183712
2024-12-07 20:03:46.370296800,5.816296875,-1.0194038375258443,1.1504086370080708,-0.6972684172920882
2024-12-07 20:03:46.380311000,5.82631103515625,-1.2226619723141192,0.9860328983217476,-1.0088729450307783
2024-12-07 20:03:46.390325000,5.836324951171875,-1.3190578152298926,0.7775590747117995,-1.254906245575845
2024-12-07 20:03:46.400339200,5.846339111328125,-1.1935235561132431,0.5045043501198292,-1.3496204190149903
2024-12-07 20:03:46.410353000,5.856352783203125,-0.8498352063715457,0.2151940717756748,-1.2879843393132089
2024-12-07 20:03:46.420367000,5.8663671875,-0.3660007193148136,0.0148065239876508,-1.0775159808851775
2024-12-07 20:03:46.430381000,5.876381103515625,0.0520634012470021,-0.0716167909681797,-0.743762968898192
2024-12-07 20:03:46.440395000,5.88639501953125,0.2844067242115736,-0.0109095165491104,-0.4027994044778868
2024-12-07 20:03:46.450409200,5.8964091796875,0.3858522517323494,0.1343663848698139,-0.1218707316404208
2024-12-07 20:03:46.460423000,5.9064228515625,0.5718424408555031,0.3042144174873828,0.0731122171577066
2024-12-07 20:03:46.470437000,5.91643701171875,0.9027461278259754,0.550564675027132,0.1165532264120876
2024-12-07 20:03:46.480451000,5.926451171875,1.2646750676572325,0.7714747863620519,0.177005795417726
2024-12-07 20:03:46.490465300,5.93646533203125,1.7223447474963962,0.7781435966014861,0.2199758261594921
2024-12-07 20:03:46.500479000,5.94647900390625,2.1550848610013724,0.7457476399093866,0.2691218421224504
2024-12-07 20:03:46.510493000,5.956492919921875,2.322462119591236,0.7365010881364346,0.3169089908223599
2024-12-07 20:03:46.520507100,5.966507080078125,2.48713421087563,0.6906365780621767,0.4653583346456289
2024-12-07 20:03:46.530521000,5.97652099609375,2.273051461342722,0.6829898627012968,0.6997798886563629
2024-12-07 20:03:46.540535000,5.98653515625,1.853914048993588,0.761334500619769,0.8480011228121817
2024-12-07 20:03:46.550549000,5.996549072265625,1.6452344736784696,0.9740238960981368,0.8269285972323268
2024-12-07 20:03:46.560563200,6.006563232421875,1.5565766776688397,1.2395955714583395,0.7471541457064449
2024-12-07 20:03:46.570577200,6.0165771484375,1.4547225693471728,1.3423475054025649,0.4460951235100626
2024-12-07 20:03:46.580590800,6.0265908203125,1.3200871582776308,1.0281149672478438,-0.1331117086336016
2024-12-07 20:03:46.590604000,6.03660400390625,1.239761721805483,0.5389572393417358,-0.6990222752220928
2024-12-07 20:03:46.600618200,6.0466181640625,1.094558154970407,0.0369984820514917,-1.1507827310174703
2024-12-07 20:03:46.610632000,6.0566318359375,0.9183363495372237,-0.3791752581864595,-1.4604754337854682
2024-12-07 20:03:46.620646000,6.06664599609375,0.8068161488562822,-0.5589765295416116,-1.6566539855763316
2024-12-07 20:03:46.630660000,6.07666015625,0.7611842784941196,-0.5674824920803309,-1.7445270609490573
2024-12-07 20:03:46.640674000,6.086674072265625,0.7617600325554609,-0.4735720362395048,-1.7687522784061729
2024-12-07 20:03:46.650688300,6.096688232421875,0.9088836076676844,-0.4180383650660514,-1.7862103398159146
2024-12-07 20:03:46.660702000,6.106701904296875,0.879979730875045,-0.4446516467034817,-1.840984132532776
2024-12-07 20:03:46.670716200,6.116716064453125,0.7559482775367796,-0.5463327365458012,-1.8826983910597856
2024-12-07 20:03:46.680730000,6.126730224609375,0.6444130254171788,-0.712499450302124,-2.035667769590765
2024-12-07 20:03:46.690744000,6.136744140625,0.4859855276107788,-0.9148182584136724,-2.160171955007314
2024-12-07 20:03:46.700758000,6.146758056640625,0.2312891012039035,-1.0772452011197804,-2.1969677540935573
2024-12-07 20:03:46.710772000,6.15677197265625,-0.0369604881286621,-1.1467711572885513,-2.1751881762228904
2024-12-07 20:03:46.720786200,6.1667861328125,-0.2864944902710616,-1.0902665952563284,-2.081805397517979
2024-12-07 20:03:46.730800000,6.176800048828125,-0.5036566472493111,-0.9474351643800736,-1.9218897069804368
2024-12-07 20:03:46.740814000,6.18681396484375,-0.6726923405706882,-0.7363198863506317,-1.7790321187496183
2024-12-07 20:03:46.750828000,6.196828125,-0.7122153726637364,-0.5737532429128885,-1.6210523647107182
2024-12-07 20:03:46.760842000,6.206842041015625,-0.7590225704155862,-0.4471650908291339,-1.3969364430718123
2024-12-07 20:03:46.770856200,6.216856201171875,-0.7838233958035707,-0.3966442793816327,-1.0693336973428726
2024-12-07 20:03:46.780870000,6.226869873046875,-0.8215687506996094,-0.4160854774326086,-0.7387697637207805
2024-12-07 20:03:46.790884000,6.236884033203125,-0.7183801789037882,-0.4938935242563486,-0.3873948049992323
2024-12-07 20:03:46.800898000,6.24689794921875,-0.5501280371755362,-0.5639484727352857,-0.1715557133182883
2024-12-07 20:03:46.810911000,6.256910888671875,-0.4480057794369756,-0.5620534527689218,0.0259201848067343
2024-12-07 20:03:46.820925000,6.266925048828125,-0.3507680788695812,-0.4939268420040607,0.2114993089109659
2024-12-07 20:03:46.830939100,6.276939208984375,-0.3185731977075338,-0.4220440935760736,0.4022333315603434
2024-12-07 20:03:46.840953000,6.286953125,-0.2785018840819597,-0.3866185599297285,0.5821320719406008
2024-12-07 20:03:46.850967300,6.29696728515625,-0.1899466716639697,-0.398236517009139,0.6929575683556497
2024-12-07 20:03:46.860981000,6.30698095703125,-0.144181676441431,-0.5318775102138519,0.7557623995758592
2024-12-07 20:03:46.870995000,6.316994873046875,-0.2418395021170377,-0.7585112598925828,0.7991437145322561
2024-12-07 20:03:46.881009200,6.327009033203125,-0.4276806381583213,-1.015461821901798,0.835897574172914
2024-12-07 20:03:46.891023000,6.337023193359375,-0.5078856631211937,-1.1164648663520813,0.871154619384557
2024-12-07 20:03:46.901037000,6.347037109375,-0.4708100972454994,-1.03901337788105,1.1106544265076517
2024-12-07 20:03:46.911051000,6.357051025390625,-0.2682832724064588,-0.8194646180272102,1.5079846423268315
2024-12-07 20:03:46.921065200,6.367065185546875,0.11969605448246,-0.4920324065595865,1.9013452238626776
2024-12-07 20:03:46.931079200,6.3770791015625,0.415344303676486,-0.1229524259299039,2.2190973144456745
2024-12-07 20:03:46.941092900,6.3870927734375,0.4438428145386278,0.075128013959527,2.337902265307307
2024-12-07 20:03:46.951107000,6.397107177734375,0.1280570555925369,-0.0125146136581897,2.0711029478482903
2024-12-07 20:03:46.961121000,6.40712109375,-0.2435685178667306,-0.2689566416233778,1.5384772496156394
2024-12-07 20:03:46.971135200,6.41713525390625,-0.5098007029622793,-0.5568874483078717,1.0034520890258252
2024-12-07 20:03:46.981149000,6.42714892578125,-1.0733825343422592,-0.5907394490271807,0.7026290675424038
2024-12-07 20:03:46.991163100,6.4371630859375,-1.406780376216024,-0.4211322394281625,0.7240405427530408
2024-12-07 20:03:47.001177000,6.447177001953125,-0.8921201774585992,-0.3535340364515781,0.7250035425662994
2024-12-07 20:03:47.011191000,6.45719091796875,-0.206375974547863,-0.4653232633322477,0.3218522193782031
2024-12-07 20:03:47.021205000,6.467205078125,-0.0393190339535474,-0.687566084575653,-0.3762989720977842
2024-12-07 20:03:47.031219000,6.477218994140625,-0.4788963730674236,-0.956240986648202,-1.012360933277011
2024-12-07 20:03:47.041232100,6.487232177734375,-1.143884130610153,-1.132735617673397,-1.524077114471793
2024-12-07 20:03:47.051246000,6.49724609375,-1.5024755235165357,-1.0240788435995578,-1.878721742513776
2024-12-07 20:03:47.061260000,6.507260009765625,-1.500607976078987,-0.7252221537530422,-1.8534258270852264
2024-12-07 20:03:47.071274000,6.51727392578125,-1.3463754457443953,-0.4548047919273376,-1.4278274020284414
2024-12-07 20:03:47.081288200,6.5272880859375,-0.9515875348191708,-0.1966132899463176,-0.8218339775070548
2024-12-07 20:03:47.091302100,6.53730224609375,-0.3113373281698673,0.1816021832972764,-0.4059285328164696
2024-12-07 20:03:47.101316000,6.547316162109375,0.2849965798635036,0.5869412257879972,-0.2552167239539325
2024-12-07 20:03:47.111330000,6.557330078125,0.450367101740837,1.0104536383509637,-0.2582951084859669
2024-12-07 20:03:47.121344000,6.567343994140625,0.1543259807717055,1.4263760341763496,-0.3210315506450831
2024-12-07 20:03:47.131358200,6.577358154296875,-0.4023714248567819,1.889732381349802,-0.2848082907497882
2024-12-07 20:03:47.141372000,6.587371826171875,-1.0563146412938833,2.51078279748857,-0.0552253358766436
2024-12-07 20:03:47.151386000,6.59738623046875,-1.4091905060976744,3.068148969224095,0.4846431730911135
2024-12-07 20:03:47.161400000,6.607400146484375,-1.1962000818461178,3.2587557122319937,0.9817585820034146
2024-12-07 20:03:47.171414000,6.6174140625,-0.4884323362410068,2.968385695701837,1.0760704582519829
2024-12-07 20:03:47.181428000,6.627427978515625,0.2242863097697496,2.096196618703007,0.9646387395720928
2024-12-07 20:03:47.191442000,6.63744189453125,0.6760410664767027,0.7314765379726886,0.9366017818070947
2024-12-07 20:03:47.201456000,6.6474560546875,1.1970236731886863,-0.3714689215928315,0.6654223495677113
2024-12-07 20:03:47.211470000,6.657469970703125,1.3731436256825924,-1.1689333047360182,0.0710423520810902
2024-12-07 20:03:47.221484000,6.667484130859375,1.0435306361097842,-1.723379789632559,-0.7101559559158981
2024-12-07 20:03:47.231498000,6.677498046875,0.5048147312432527,-1.9863924281597136,-1.5649172205127777
2024-12-07 20:03:47.241512000,6.687511962890625,-0.0243938520222902,-1.823848581075668,-2.209106081785261
2024-12-07 20:03:47.251526000,6.69752587890625,-0.3694224373918026,-1.3727362139254808,-2.4313730145566166
2024-12-07 20:03:47.261538800,6.707538818359375,-0.4664998328309506,-0.8492045072525739,-2.1618987787999213
2024-12-07 20:03:47.271552800,6.717552734375,-0.1012135088631883,-0.4154173689126968,-1.5960934261515736
2024-12-07 20:03:47.281567000,6.72756689453125,0.2432639819622039,-0.0596001899600028,-0.9699420336119832
2024-12-07 20:03:47.291581000,6.737580810546875,0.3713333125144243,0.2084200475960969,-0.3956125251810997
2024-12-07 20:03:47.301594600,6.7475947265625,0.3700005660733207,0.4096621663868427,0.0487327589869499
2024-12-07 20:03:47.311608800,6.75760888671875,0.3879390314111486,0.5598369457632303,0.2888807278204709
2024-12-07 20:03:47.321622800,6.767622802734375,0.4643114559412002,0.577446836733818,0.3173085845991969
2024-12-07 20:03:47.331637000,6.777636962890625,0.6012456089397892,0.3892945011407137,0.2373602378111332
2024-12-07 20:03:47.341651000,6.78765087890625,0.771543759945035,0.130984925737977,0.0715591424968093
2024-12-07 20:03:47.351665000,6.797664794921875,0.8355576746940613,-0.0398714071393013,-0.1313871498633176
2024-12-07 20:03:47.361678800,6.807678955078125,0.7857651775211095,-0.1510229206383228,-0.3407495928760617
2024-12-07 20:03:47.371692800,6.81769287109375,0.5893056168317794,-0.2836035911351442,-0.5047258839160204
2024-12-07 20:03:47.381707000,6.82770703125,0.3854413693765178,-0.3945014221340417,-0.6252043209478259
2024-12-07 20:03:47.391720700,6.837720703125,0.3981967695206403,-0.407304205083847,-0.815733687870577
2024-12-07 20:03:47.401735000,6.84773486328125,0.5065899242222309,-0.304053673967719,-0.9341161755364388
2024-12-07 20:03:47.411748900,6.857748779296875,0.4442132552862167,-0.1484440100610256,-1.0136169977527112
2024-12-07 20:03:47.421762800,6.8677626953125,0.1970037505686283,0.0465180055469274,-1.0282868897486477
2024-12-07 20:03:47.431776800,6.87777685546875,-0.1114455280095338,0.1340542501807212,-1.005019192212075
2024-12-07 20:03:47.441790700,6.887790771484375,-0.3271498873949051,0.0827332282662391,-0.9820832108478992
2024-12-07 20:03:47.451805000,6.897804931640625,-0.441836589282751,-0.0666577072560787,-0.82958510309048
2024-12-07 20:03:47.461819000,6.90781884765625,-0.3719850544214248,-0.2752349912405014,-0.669817808047682
2024-12-07 20:03:47.471832800,6.917832763671875,-0.2336485968768596,-0.3629764030575752,-0.531016655600816
2024-12-07 20:03:47.481845800,6.927845703125,0.0274713506383355,-0.3676636840909719,-0.4388032860014587
2024-12-07 20:03:47.491860000,6.93785986328125,0.3041056964159012,-0.2498112116485834,-0.3219826408248394
2024-12-07 20:03:47.501873700,6.947873779296875,0.5301344659388065,-0.062177346971631,-0.316934344459325
2024-12-07 20:03:47.511888000,6.957887939453125,0.6401660354971885,0.1292968265205621,-0.2225887120716273
2024-12-07 20:03:47.521901800,6.96790185546875,0.6063958678424358,0.1271352645725011,-0.0977328636731952
2024-12-07 20:03:47.531915800,6.977915771484375,0.5997603753507137,0.0054115036547183,-0.0651009793333709
2024-12-07 20:03:47.541930000,6.987929931640625,0.6842915929496288,-0.1143523553669452,-0.0746170687627047
2024-12-07 20:03:47.551943700,6.997943603515625,0.623726941871643,-0.0313777195602655,0.0255748054351657
2024-12-07 20:03:47.561958000,7.0079580078125,0.467562566691637,0.0105383451491594,0.050758857987076
2024-12-07 20:03:47.571971800,7.017971923828125,0.3728057231545448,-0.0457347462147474,0.001791778787598
2024-12-07 20:03:47.581986000,7.027986083984375,0.4406570241093635,-0.1957096191048622,0.1293220340270549
2024-12-07 20:03:47.591999700,7.037999755859375,0.8166074750304222,-0.3208072403699159,0.324283026721701
2024-12-07 20:03:47.602014000,7.048013916015625,1.1818237659692763,-0.2808107455462217,0.4163010198794305
2024-12-07 20:03:47.612028000,7.05802783203125,1.454249545007944,-0.1133808799862861,0.5319882040467113
2024-12-07 20:03:47.622041900,7.068041748046875,1.6153998919069763,0.0900713160693645,0.6287327873349189
2024-12-07 20:03:47.632055800,7.078055908203125,1.5899778658807278,0.2274345446676015,0.6865660406876355
2024-12-07 20:03:47.642069800,7.08806982421875,1.3110638938665389,0.249711258405447,0.6472101818550378
2024-12-07 20:03:47.652084000,7.098083984375,0.862179139637947,0.1636222899705171,0.583133723263815
2024-12-07 20:03:47.662098000,7.108097900390625,0.3969815119793638,0.0492839631289243,0.4806621406309306
2024-12-07 20:03:47.672111900,7.11811181640625,-0.0920516762316226,-0.0402373178422451,0.2737080008689314
2024-12-07 20:03:47.682125800,7.128125732421875,-0.4755190786540508,-0.0422644397556781,0.014640592836216
2024-12-07 20:03:47.692139800,7.138139892578125,-0.5900479230990633,0.0133007955998182,-0.1814563450857997
2024-12-07 20:03:47.702153000,7.148153076171875,-0.4318821815013885,0.0707394236117601,-0.3514420326083898
2024-12-07 20:03:47.712167000,7.1581669921875,-0.3897498436927795,0.1133452241510152,-0.4711197477165609
2024-12-07 20:03:47.722180900,7.168180908203125,-0.4972726087680086,0.0029728783309459,-0.5094541545469313
2024-12-07 20:03:47.732194800,7.17819482421875,-0.5437222617864609,-0.1134521916568279,-0.4153070404060184
2024-12-07 20:03:47.742209000,7.188208984375,-0.411216994613409,-0.2576204240947962,-0.3370325451143086
2024-12-07 20:03:47.752222700,7.19822265625,-0.1234615444958209,-0.3599041560053825,-0.3140000445730984
2024-12-07 20:03:47.762237000,7.20823681640625,0.257249216162227,-0.4083054910808801,-0.2587586343444883
2024-12-07 20:03:47.772251000,7.2182509765625,0.548087398193404,-0.4359714966416358,-0.2155004343111068
2024-12-07 20:03:47.782264800,7.228264892578125,0.6593500439167023,-0.4254419193208217,-0.1346103496935218
2024-12-07 20:03:47.792278800,7.23827880859375,0.629499753119424,-0.3948644102275371,0.0148168261859565
2024-12-07 20:03:47.802292700,7.248292724609375,0.5280358862243593,-0.3518365848839282,0.1643212320201098
2024-12-07 20:03:47.812307000,7.258306884765625,0.31601003268864,-0.2964841154962778,0.2961922929428517
2024-12-07 20:03:47.822321000,7.26832080078125,0.0843920283239334,-0.1871902125626802,0.406765641227737
2024-12-07 20:03:47.832334800,7.2783349609375,-0.0489491051513701,-0.0280430221796035,0.4452017548669129
2024-12-07 20:03:47.842348800,7.288348876953125,-0.2088181800682097,0.1812736819952726,0.5600813489783555
2024-12-07 20:03:47.852362800,7.29836279296875,-0.3901905731976032,0.2085749458968639,0.5087034092448651
2024-12-07 20:03:47.862377000,7.308376953125,-0.4930243402063846,0.0903173997849225,0.3234208569344133
2024-12-07 20:03:47.872390700,7.318390625,-0.4852233841318636,-0.0781926622271537,0.1861946256540715
2024-12-07 20:03:47.882404900,7.32840478515625,-0.3359095324337482,-0.1707669010281562,0.1090982342310249
2024-12-07 20:03:47.892418800,7.338418701171875,-0.1094868682224303,-0.2085509804993867,0.0325800080221146
2024-12-07 20:03:47.902433000,7.34843310546875,0.0988368063271045,-0.2246077968090772,-0.040504517411068
2024-12-07 20:03:47.912445700,7.35844580078125,0.2571300102293491,-0.1976677674353122,-0.0852373931068927
2024-12-07 20:03:47.922460000,7.3684599609375,0.3273847921293228,-0.1847743835926056,-0.1867697221282869
2024-12-07 20:03:47.932473900,7.378473876953125,0.2505577922321856,-0.2154565221041441,-0.3230528638722375
2024-12-07 20:03:47.942488000,7.388488037109375,0.0574338787715882,-0.191998489627242,-0.4374350663881748
2024-12-07 20:03:47.952501800,7.398501708984375,-0.1980056210875511,-0.0947059901326894,-0.4837256929200142
2024-12-07 20:03:47.962515700,7.408515625,-0.4296339641831815,-0.0131464818209409,-0.488464302281849
2024-12-07 20:03:47.972530000,7.418530029296875,-0.5383481675326824,-0.0738812287688255,-0.4852573959993198
2024-12-07 20:03:47.982544000,7.4285439453125,-0.6745243052382022,0.0351987391531467,-0.1590875691503286
2024-12-07 20:03:47.992557800,7.438557861328125,-0.7273194913584738,-0.0861678788900375,0.0870536487486213
2024-12-07 20:03:48.002571800,7.44857177734375,-0.6226165694769471,-0.205437816914916,0.256323844945617
2024-12-07 20:03:48.012586000,7.4585859375,-0.4091912609394639,-0.2567407186508179,0.5384489244934171
2024-12-07 20:03:48.022600000,7.468599853515625,-0.1468961960971355,-0.1826496465235948,0.7607038015007972
2024-12-07 20:03:48.032613600,7.478613525390625,0.0439899483740329,-0.0368552741885185,0.8998623890832066
2024-12-07 20:03:48.042627800,7.4886279296875,0.1596539708614349,0.1183843873620033,0.9718212714873252
2024-12-07 20:03:48.052641800,7.498641845703125,0.1638182509340345,0.2007423525750637,0.9648490943871438
2024-12-07 20:03:48.062656000,7.508656005859375,0.0499532406926155,0.186371881917119,0.8950071310717612
2024-12-07 20:03:48.072669700,7.518669677734375,-0.1254746378839016,0.1175461829721927,0.7657544359538704
2024-12-07 20:03:48.082684000,7.528683837890625,-0.3009374416433275,0.0355044441014528,0.6696901630800217
2024-12-07 20:03:48.092697900,7.53869775390625,-0.3664567925192415,-0.013668459868431,0.5748259867109358
2024-12-07 20:03:48.102711800,7.5487119140625,-0.3896026903070509,-0.0503735119313001,0.4712430087700486
2024-12-07 20:03:48.112725800,7.558725830078125,-0.3765867029979824,-0.1207458557963371,0.3587076762298122
2024-12-07 20:03:48.122739000,7.568739013671875,-0.4212263474524021,-0.1869020432710647,0.3160594978535547
2024-12-07 20:03:48.132753000,7.5787529296875,-0.4649428857125341,-0.2334019286394119,0.2093898242100141
2024-12-07 20:03:48.142766800,7.588766845703125,-0.5209412517882883,-0.1884884356796741,0.1362360511992126
2024-12-07 20:03:48.152780800,7.59878076171875,-0.5628163999654352,-0.0645803164601326,0.1124478277867194
2024-12-07 20:03:48.162794800,7.608794677734375,-0.6601894173502921,0.0397200159698724,0.0807576173443347
2024-12-07 20:03:48.172809000,7.61880908203125,-0.831061532318592,-0.0284621243745088,-0.0354972928414586
2024-12-07 20:03:48.182823000,7.628822998046875,-0.96655356021747,-0.1618862599581479,-0.1465199740627314
2024-12-07 20:03:48.192836900,7.6388369140625,-0.9733704006254672,-0.3477712351411581,-0.2274146343907341
2024-12-07 20:03:48.202850800,7.648850830078125,-0.8712602717161179,-0.5171721085131168,-0.1799267974309623
2024-12-07 20:03:48.212864800,7.65886474609375,-0.6532159250758588,-0.517276153409481,0.0233517225582152
2024-12-07 20:03:48.222879000,7.66887890625,-0.4197672346852719,-0.3205523888260126,0.3452279438665137
2024-12-07 20:03:48.232892700,7.678892578125,-0.2429623686671257,-0.1805681640744209,0.6535156386747956
2024-12-07 20:03:48.242907000,7.688906982421875,-0.1313756786212325,-0.1739244882762432,0.8665316357590258
2024-12-07 20:03:48.252921000,7.698921142578125,-0.0797825617671012,-0.2266793423861265,0.9611094694674016
2024-12-07 20:03:48.262935000,7.70893505859375,-0.0542882011570036,-0.2784235581487417,1.046779701033607
2024-12-07 20:03:48.272949200,7.71894921875,0.0279424844145774,-0.2480453710198402,1.1135168302014469
2024-12-07 20:03:48.282963200,7.728963134765625,0.1783795679889619,0.1057388408005237,1.2655007048264144
2024-12-07 20:03:48.292977200,7.73897705078125,0.3253860925927758,0.4545195452451706,1.2690762252256274
2024-12-07 20:03:48.302991000,7.7489912109375,0.4673895482122898,0.769997699546814,1.1739920494303109
2024-12-07 20:03:48.313005300,7.75900537109375,0.5307832852363586,0.9931757558137178,1.0515201004937291
2024-12-07 20:03:48.323019300,7.769019287109375,0.5261293219506741,1.086220534735918,0.9199724993716925
2024-12-07 20:03:48.333032200,7.7790322265625,0.5057049580812454,1.2010761634498834,0.7461946530245244
2024-12-07 20:03:48.343046100,7.789046142578125,0.6072574531078339,1.5052105014383792,0.7319903327137232
2024-12-07 20:03:48.353060400,7.799060302734375,0.774812990874052,1.6666466795414685,0.6388223658032715
2024-12-07 20:03:48.363074300,7.80907421875,0.8775403748989105,1.7338690349429844,0.502023200828582
2024-12-07 20:03:48.373088000,7.819087890625,0.8125694516859948,1.9199533320903777,0.5279844482980668
2024-12-07 20:03:48.383102200,7.829102294921875,0.6361375106334686,1.975997875395417,0.2977204523582011
2024-12-07 20:03:48.393116200,7.8391162109375,0.3582034895673394,1.925430302196741,-0.1502930719938129
2024-12-07 20:03:48.403130400,7.84913037109375,-0.0326408713638782,1.4533289230316877,-0.6330887905873358
2024-12-07 20:03:48.413144000,7.85914404296875,-0.5175459102615714,0.7385059982180595,-1.1150848101705313
2024-12-07 20:03:48.423158300,7.869158203125,-1.0503539793238044,0.0111567693084478,-1.4693816476881505
2024-12-07 20:03:48.433172200,7.879172119140625,-1.4958917612120508,-0.5753963339447975,-1.5296061070263385
2024-12-07 20:03:48.443186200,7.889186279296875,-1.5416450659967955,-0.8489058165669441,-1.217422756486386
2024-12-07 20:03:48.453200100,7.8992001953125,-1.1666846490263938,-0.7952759331882,-0.7756583556570112
2024-12-07 20:03:48.463214000,7.909214111328125,-0.6449415793359279,-0.6915998701363801,-0.2741504839394241
2024-12-07 20:03:48.473228300,7.919228271484375,-0.2999953384876251,-0.6646072337925434,0.2654410347178578
2024-12-07 20:03:48.483242200,7.9292421875,-0.0652323506280779,-0.6908557737708091,0.7634286233548074
2024-12-07 20:03:48.493256200,7.939256103515625,0.0883551598012447,-0.666857058545947,1.2259336874611677
2024-12-07 20:03:48.503270100,7.949270263671875,0.1933285691872239,-0.5753495721936226,1.6472236016690731
2024-12-07 20:03:48.513284000,7.9592841796875,0.2681213598430156,-0.3852554548829793,1.981717275955528
2024-12-07 20:03:48.523298300,7.96929833984375,0.2714332608699798,-0.1291933661460876,2.180068203349411
2024-12-07 20:03:48.533312000,7.97931201171875,0.1201648410379886,0.0835667564809322,2.189641502858698
2024-12-07 20:03:48.543325200,7.9893251953125,-0.1706432746484875,0.135339613816142,1.9949391611002385
2024-12-07 20:03:48.553339100,7.999339111328125,-0.4699380636513233,0.1902420013487339,1.695164771886915
2024-12-07 20:03:48.563353300,8.009353271484375,-0.6947007587611674,0.2522983522891998,1.3679441573433575
2024-12-07 20:03:48.573367000,8.019366943359374,-0.8405366321504115,0.337810397619009,1.097797429152578
2024-12-07 20:03:48.583381200,8.02938134765625,-0.93216745262146,0.3862701848834752,0.8561378867123276
2024-12-07 20:03:48.593395200,8.039395263671874,-0.9944843541942536,0.3531657876610756,0.7212230741795153
2024-12-07 20:03:48.603409400,8.049409423828125,-1.0483959771238267,0.257577753996849,0.6415685957714915
2024-12-07 20:03:48.613423000,8.059423095703124,-1.1198773051440716,0.1618406672507524,0.6860558992084115
2024-12-07 20:03:48.623437000,8.06943701171875,-1.1904675295434892,0.1455932968050241,0.7938060067661106
2024-12-07 20:03:48.633451300,8.079451171875,-1.2583914573431014,0.2591302441358566,0.8564721601679921
2024-12-07 20:03:48.643465200,8.08946533203125,-1.3950785402454435,0.414611313226819,0.8168027053415775
2024-12-07 20:03:48.653479200,8.099479248046874,-1.6855751057647168,0.5559066205769777,0.642468467220664
2024-12-07 20:03:48.663493000,8.1094931640625,-2.02462702787742,0.6091010351479054,0.4192917261280119
2024-12-07 20:03:48.673507300,8.11950732421875,-2.215717901140452,0.5405395400971174,0.146448598460108
2024-12-07 20:03:48.683521300,8.129521240234375,-2.061138749325276,0.4617617714583873,-0.1347651749290525
2024-12-07 20:03:48.693535000,8.139534912109376,-1.616574927035719,0.4402683170527219,-0.3822365454532206
2024-12-07 20:03:48.703549200,8.149549072265625,-1.060101831682399,0.4356599464744329,-0.6425359794989228
2024-12-07 20:03:48.713563100,8.159563232421876,-0.5755366557309404,0.4183271188795566,-0.9028799833387136
2024-12-07 20:03:48.723577300,8.169577392578125,-0.150284121502377,0.4431044172614812,-1.152706830947846
2024-12-07 20:03:48.733591000,8.179591064453126,0.136384154433012,0.456704488068819,-1.3519598217479885
2024-12-07 20:03:48.743604200,8.189604248046875,0.359205652347207,0.546221092864871,-1.4628167362146078
2024-12-07 20:03:48.753618200,8.1996181640625,0.6273889715105295,0.7162392213523388,-1.4363503157019617
2024-12-07 20:03:48.763632400,8.20963232421875,0.929310309624672,0.9085621206283568,-1.4017133020848036
2024-12-07 20:03:48.773646000,8.21964599609375,1.1213023695111275,1.1414198593884706,-1.3616704839013516
2024-12-07 20:03:48.783660300,8.229660400390625,1.0233850161165,1.5032961922496555,-1.1698965968102215
2024-12-07 20:03:48.793674200,8.23967431640625,0.8158458430081605,2.002864255011082,-0.8372245849929749
2024-12-07 20:03:48.803688200,8.249688232421875,0.7167600303560495,2.2688860122263432,-0.5724770854972303
2024-12-07 20:03:48.813702100,8.2597021484375,0.5630412216972559,2.3591665871322154,-0.3606333105301484
2024-12-07 20:03:48.823716000,8.269716064453124,0.6810011000368744,2.2970412626087664,0.1742184297215193
2024-12-07 20:03:48.833730300,8.279730224609375,1.0155857405424118,1.983255883699656,0.6906133433170616
2024-12-07 20:03:48.843744300,8.289744140625,1.0638444522768258,1.4845628502070902,0.9264479059308768
2024-12-07 20:03:48.853758200,8.29975830078125,1.006039182909578,0.8097656463116407,1.0463473009657114
2024-12-07 20:03:48.863772200,8.309772216796874,0.9880921689391136,0.2289250754863023,0.9167236536435782
2024-12-07 20:03:48.873786000,8.3197861328125,0.9851935248881578,-0.1802519377321004,0.6411675406899303
2024-12-07 20:03:48.883800300,8.32980029296875,1.143036062413454,-0.4761100302845239,0.3271607010498643
2024-12-07 20:03:48.893814000,8.33981396484375,1.2725614369928837,-0.6214245101481676,-0.0444625343218445
2024-12-07 20:03:48.903828200,8.349828125,1.458966052135825,-0.6203454827398062,-0.481408428953588
2024-12-07 20:03:48.913842200,8.35984228515625,1.57216280772686,-0.621975714290142,-0.930424262215942
2024-12-07 20:03:48.923856400,8.3698564453125,1.5997409888736902,-0.6505898143559694,-1.3625643640011549
2024-12-07 20:03:48.933869000,8.379869140625,1.6139632832325994,-0.7329723294883966,-1.6666371810607612
2024-12-07 20:03:48.943883300,8.38988330078125,1.571778484584391,-0.8637988497942686,-1.8528636631578208
2024-12-07 20:03:48.953897200,8.399897216796875,1.4490291800111532,-0.9228712164878844,-1.9838637864649296
2024-12-07 20:03:48.963911200,8.4099111328125,1.2906776700504123,-1.0188146394610404,-2.16884845180735
2024-12-07 20:03:48.973925000,8.419925048828125,1.1055711318939925,-1.1121990256011485,-2.2438215674661097
2024-12-07 20:03:48.983939000,8.42993896484375,0.9035819941282272,-1.1630384014785289,-2.1157684573963285
2024-12-07 20:03:48.993953300,8.439953369140625,0.7584142292588949,-1.100661148020625,-1.841672553188353
2024-12-07 20:03:49.003967200,8.44996728515625,0.6847969121232629,-0.9899240605413911,-1.4632348154962065
2024-12-07 20:03:49.013981200,8.459981201171875,0.6117319681733846,-0.8216238418877124,-1.056561309531331
2024-12-07 20:03:49.023995100,8.4699951171875,0.4880694942779838,-0.6568968055456876,-0.6754713037647306
2024-12-07 20:03:49.034009300,8.48000927734375,0.3329420609302818,-0.563897619330883,-0.4018967930823564
2024-12-07 20:03:49.044023300,8.490023193359375,0.2033767927318811,-0.5021195008099079,-0.2795366339571773
2024-12-07 20:03:49.054037000,8.500037109375,0.0838321294188499,-0.4526216026693582,-0.2113955562755465
2024-12-07 20:03:49.064051200,8.51005126953125,0.0044441199272871,-0.4378244310319423,-0.1804211568191647
2024-12-07 20:03:49.074065200,8.520065185546875,-0.0654844256930053,-0.4617085799664259,-0.1243646308153867
2024-12-07 20:03:49.084079400,8.530079345703125,-0.0668441697388887,-0.5815455042243004,-0.0778119923464953
2024-12-07 20:03:49.094093000,8.540093017578124,-0.0084603698313236,-0.733074036297202,0.0050334641225636
2024-12-07 20:03:49.104107300,8.550107177734375,0.1052586560681462,-0.920093568468094,0.0479987456239759
2024-12-07 20:03:49.114121200,8.560121337890624,0.3011354484334588,-1.0714379761457442,0.0582249560840427
2024-12-07 20:03:49.124135200,8.57013525390625,0.4674439087480306,-1.3026689904868602,0.0782373781517148
2024-12-07 20:03:49.134149000,8.580149169921874,0.5819146297976374,-1.6826117259144782,-0.0303626972988247
2024-12-07 20:03:49.144162300,8.590162353515625,0.6877867415890098,-1.9483669411480429,-0.1600977691061794
2024-12-07 20:03:49.154176300,8.60017626953125,0.5842296287417411,-1.979077136710286,-0.2308526825480163
2024-12-07 20:03:49.164190200,8.610190185546875,0.4300786392107605,-1.743732257309556,-0.2848430698022246
2024-12-07 20:03:49.174204200,8.6202041015625,0.2628641699671745,-1.3619886099398135,-0.2731539471827447
2024-12-07 20:03:49.184218000,8.630218017578125,0.0613083090521395,-0.9597288287639616,-0.1604014282278716
2024-12-07 20:03:49.194232300,8.640232421875,-0.1465983821943402,-0.6809861216634512,0.0317274097807705
2024-12-07 20:03:49.204246300,8.650246337890625,-0.2312432893007993,-0.5301227755010127,0.2815639020010829
2024-12-07 20:03:49.214260200,8.66026025390625,-0.1933164403580129,-0.4962666831284761,0.5204115288257598
2024-12-07 20:03:49.224274200,8.670274169921875,-0.3609193243972957,-0.4916945529073476,0.6494092262692749
2024-12-07 20:03:49.234288000,8.6802880859375,-0.5874269634783268,-0.4374386465847492,0.736922674549371
2024-12-07 20:03:49.244302300,8.69030224609375,-0.7634663980819284,-0.3870879310071468,0.7473698342837393
2024-12-07 20:03:49.254316000,8.70031591796875,-0.9612976855158806,-0.3902326587736606,0.7816374300666153
2024-12-07 20:03:49.264330200,8.710330322265625,-0.9349516765125097,-0.3861374984145164,0.7177788520097732
2024-12-07 20:03:49.274344200,8.72034423828125,-0.9863999780684708,-0.3573416120409965,0.5742264133825897
2024-12-07 20:03:49.284358100,8.730358154296875,-1.1078671338766812,-0.3577519464075565,0.4749364564605057
2024-12-07 20:03:49.294372000,8.7403720703125,-1.1089363705433903,-0.4586246424764394,0.506942098660767
2024-12-07 20:03:49.304386000,8.750385986328125,-1.0737012449026109,-0.5345370848119259,0.500948118942976
2024-12-07 20:03:49.314400300,8.760400146484375,-0.875533565121144,-0.594280482634902,0.4410065681993961
2024-12-07 20:03:49.324414200,8.770414306640625,-0.7952833858422934,-0.6458382359147071,0.2013072929814457
2024-12-07 20:03:49.334428200,8.78042822265625,-1.0964617966346442,-0.6290367387175559,-0.0018134791627526
2024-12-07 20:03:49.344441000,8.790441162109374,-1.209655775746703,-0.6801561005800962,0.1079195458404719
2024-12-07 20:03:49.354455300,8.800455322265625,-1.0051828583411873,-0.761996763920784,0.2785650124460458
2024-12-07 20:03:49.364469200,8.81046923828125,-0.3032334436260163,-0.5561515352487564,-0.003414776879549
2024-12-07 20:03:49.374483200,8.820483154296875,0.1761047549247741,0.0679600220263004,-0.6021012393884361
2024-12-07 20:03:49.384497200,8.8304970703125,-0.3074086834840476,1.023054761248827,-0.9011972909487784
2024-12-07 20:03:49.394511000,8.840510986328125,-1.2205372352451085,2.018297970986366,-0.6849160084582865
2024-12-07 20:03:49.404525300,8.850525390625,-1.5610577686056497,2.95316182308495,-0.3403768871061504
2024-12-07 20:03:49.414539000,8.8605390625,-1.4285047167681155,4.026647379410266,-0.1249725335806608
2024-12-07 20:03:49.424553200,8.87055322265625,-1.0605278750747442,5.184443788582087,-0.0233744458466768
2024-12-07 20:03:49.434567200,8.880567138671875,-1.513428879207373,5.996876608276367,0.04070829635486
2024-12-07 20:03:49.444581400,8.890581298828126,-1.6527629694871604,5.827450600463152,0.2319721880972385
2024-12-07 20:03:49.454595000,8.900594970703125,-0.8775298535048961,4.058472258216143,0.2109825915604829
2024-12-07 20:03:49.464609000,8.910609130859376,0.0956089303217828,1.2710977941811084,0.0138721657469868
2024-12-07 20:03:49.474623200,8.920623291015625,1.1462556089818476,-1.1644359933167696,-0.6738621150024234
2024-12-07 20:03:49.484637200,8.93063720703125,1.4453520989336073,-2.953863833874464,-1.7889185758613049
2024-12-07 20:03:49.494651100,8.940651123046875,1.321183867473155,-3.96272698816359,-2.730841260430217
2024-12-07 20:03:49.504665000,8.9506650390625,1.2128035722531378,-4.18619262920022,-3.4748557929366823
2024-12-07 20:03:49.514679300,8.96067919921875,0.9647248834855854,-3.733594407406449,-3.903806304900348
2024-12-07 20:03:49.524693200,8.970693359375,0.7884194914221763,-2.742487274560332,-3.7433360492199657
2024-12-07 20:03:49.534706200,8.9807060546875,0.8509405372649431,-1.4748235464811323,-2.911032992407679
2024-12-07 20:03:49.544720100,8.99072021484375,1.1378963614374398,-0.2019429605364799,-1.823877953300625
2024-12-07 20:03:49.554734300,9.000734375,1.4506956519186496,0.827635649523139,-0.8499525491409003
2024-12-07 20:03:49.564748300,9.010748291015624,1.410002407002449,1.4834510895729065,0.0045984337061643
2024-12-07 20:03:49.574762000,9.020761962890624,1.0626076770234851,1.756876985564828,0.603195025974512
2024-12-07 20:03:49.584776200,9.030776123046875,0.7281085959095508,1.6498972047924994,0.8316545297756791
2024-12-07 20:03:49.594790100,9.0407900390625,0.331486528359726,1.150555352002382,0.6695746469415724
2024-12-07 20:03:49.604804400,9.050804443359375,-0.0169557379107922,0.4727303247183561,0.2896034160718321
2024-12-07 20:03:49.614818000,9.060818115234374,-0.1401724408000707,-0.184171157002449,-0.171968385772407
2024-12-07 20:03:49.624832300,9.070832275390623,-0.1436345639526844,-0.6091448742896318,-0.5783816333658993
2024-12-07 20:03:49.634846200,9.08084619140625,-0.0568120936114341,-0.8098182532817125,-0.8785741018608212
2024-12-07 20:03:49.644860200,9.090860107421875,0.0276724353015422,-0.8005097421884536,-1.0313657857373355
2024-12-07 20:03:49.654874000,9.1008740234375,0.0693447543829679,-0.710893768671155,-0.9742224143449216
2024-12-07 20:03:49.664888000,9.11088818359375,0.2390683203706517,-0.5620739110350609,-0.7423747294101863
2024-12-07 20:03:49.674902300,9.12090234375,0.4115315039226785,-0.4348457074820995,-0.4800524112347513
2024-12-07 20:03:49.684916200,9.130916259765623,0.5706108532339335,-0.3266770091861486,-0.2427916882753372
2024-12-07 20:03:49.694930200,9.14093017578125,0.7628776384085416,-0.2563946816921233,-0.0146151661340147
2024-12-07 20:03:49.704944000,9.150944091796877,0.8392442542523145,-0.2244400390267372,0.1688392209012061
2024-12-07 20:03:49.714958000,9.1609580078125,0.7305658528685569,-0.0809387460649013,0.2338141627021134
2024-12-07 20:03:49.724971300,9.17097119140625,0.6233002408921718,0.0883335324913263,0.21769743289873
2024-12-07 20:03:49.734985200,9.180985107421876,0.4603489820510149,0.3005594021111726,0.2259962554927915
2024-12-07 20:03:49.744999200,9.190999267578125,0.2691349207997321,0.3661982877135276,0.1974932876512408
2024-12-07 20:03:49.755013000,9.20101318359375,0.0811234549820423,0.3172638686746358,0.10697897705473
2024-12-07 20:03:49.765027300,9.21102734375,0.0205120512860361,0.1465560043573379,0.0357936363063752
2024-12-07 20:03:49.775041000,9.221041015625,0.3110451402902603,-0.0965729530483484,0.1481273453272879
2024-12-07 20:03:49.785055200,9.23105517578125,0.8795522992432117,-0.351954658305645,0.3110064157150685
2024-12-07 20:03:49.795069200,9.241069091796875,1.4334002337247131,-0.5018155494272709,0.3753828071009367
2024-12-07 20:03:49.805083400,9.25108349609375,1.929035633212328,-0.4908744686961174,0.4382303814843297
2024-12-07 20:03:49.815097000,9.26109716796875,2.231242802530527,-0.3863660464733839,0.5034671890918165
2024-12-07 20:03:49.825111000,9.271111083984374,2.261881101900339,-0.1892670188367366,0.6065712974745779
2024-12-07 20:03:49.835125200,9.281125244140624,1.9922879159390925,0.0135591542750597,0.7126319906406104
2024-12-07 20:03:49.845139200,9.29113916015625,1.5711176825881004,0.2410655951350927,0.7166026478372514
2024-12-07 20:03:49.855153200,9.301153076171875,1.0506874490618705,0.4485960004150867,0.648381636787206
2024-12-07 20:03:49.865167000,9.3111669921875,0.5151636913001537,0.4763303950369358,0.3848371198730543
2024-12-07 20:03:49.875181300,9.321181396484375,-0.0428220553721301,0.3526566690951586,-0.0831502115692943
2024-12-07 20:03:49.885195300,9.3311953125,-0.5591325968861579,0.1360170746862888,-0.5672685205360875
2024-12-07 20:03:49.895209000,9.341208984375,-0.9766472303390502,-0.087699910762906,-0.9857361803974956
2024-12-07 20:03:49.905222100,9.35122216796875,-1.23330962305665,-0.3526262739568948,-1.2054396193563937
2024-12-07 20:03:49.915236400,9.361236328125,-1.1445137337505815,-0.5610451525092125,-1.2262784092456105
2024-12-07 20:03:49.925250300,9.371250244140626,-0.9205658621549606,-0.7358341486603022,-1.12889735468477
2024-12-07 20:03:49.935264000,9.381263916015625,-0.5325800689926371,-0.7806745763838291,-0.8170692473232746
2024-12-07 20:03:49.945278200,9.3912783203125,-0.0577882086345925,-0.6943295873612165,-0.4962069157652556
2024-12-07 20:03:49.955292200,9.401292236328125,0.2765980597546324,-0.418475587439537,-0.0415583373129367
2024-12-07 20:03:49.965306400,9.411306396484376,0.5572410840511322,-0.1862707596302032,0.4138097875855863
2024-12-07 20:03:49.975320000,9.421320068359377,0.8227894516009837,0.0522118332743644,0.7806528029434382
2024-12-07 20:03:49.985334300,9.431334228515626,0.956568903428316,0.1615285325616598,1.0569928328163922
2024-12-07 20:03:49.995348200,9.44134814453125,0.8505822253465652,0.394706004795432,1.428340612247586
2024-12-07 20:03:50.005362200,9.451362060546876,0.5853566600102931,0.48796004255414,1.7010542683169243
2024-12-07 20:03:50.015376100,9.461376220703125,0.2680231601655483,0.3023766806662082,1.7273611143536864
2024-12-07 20:03:50.025390000,9.47139013671875,-0.147935402951762,0.0508545734465122,1.5903250718832016
2024-12-07 20:03:50.035404300,9.481404296875,-0.610147256265208,-0.1871323448956012,1.2976226668827235
2024-12-07 20:03:50.045418200,9.491418212890624,-0.9655320351500064,-0.2912082209199667,0.8700200623966753
2024-12-07 20:03:50.055432200,9.50143212890625,-1.0939994251091032,-0.2851134111762046,0.5201162356736139
2024-12-07 20:03:50.065446100,9.511446044921875,-0.9867558788340538,-0.2489958036124706,0.3212463624395429
2024-12-07 20:03:50.075460000,9.521460205078125,-0.817937919916585,-0.2807283279597759,0.1267139521542005
2024-12-07 20:03:50.085474300,9.531474365234375,-0.4571580770552158,-0.2201040556490421,0.0581786509905941
2024-12-07 20:03:50.095487200,9.5414873046875,-0.0222772982597351,-0.0867336960792541,0.0523721932015381
2024-12-07 20:03:50.105501200,9.551501220703123,0.268137799521163,-0.0554798951596021,-0.0807709882825613
2024-12-07 20:03:50.115515100,9.56151513671875,0.460057232562825,-0.1790185965448618,-0.2437330425123684
2024-12-07 20:03:50.125529300,9.571529296875,0.4677823469221591,-0.3690010701745748,-0.3208985719151794
2024-12-07 20:03:50.135543000,9.58154296875,0.3152349931955337,-0.5327794274896382,-0.399336514140293
2024-12-07 20:03:50.145557200,9.59155712890625,-0.0163760383266955,-0.5712286928713322,-0.4076122115870937
2024-12-07 20:03:50.155571200,9.6015712890625,-0.4492728767633437,-0.5599380680501461,-0.3598479688387364
2024-12-07 20:03:50.165585200,9.611585205078123,-0.8563421040475367,-0.535411529558897,-0.302225490426179
2024-12-07 20:03:50.175599000,9.62159912109375,-1.0445254193007945,-0.4911638070315122,-0.1377812256814446
2024-12-07 20:03:50.185613000,9.631613037109377,-0.9411375255405904,-0.4883931732743978,-0.0394947923792526
2024-12-07 20:03:50.195627300,9.641627197265626,-0.7245780106306076,-0.2313105093181133,0.2674943687847815
2024-12-07 20:03:50.205641200,9.65164111328125,-0.5463035104513168,-0.1037590651601552,0.5263083317793905
2024-12-07 20:03:50.215655200,9.6616552734375,-0.3057997869826853,-0.0336199455291032,0.6200625010799616
2024-12-07 20:03:50.225669000,9.671669189453125,-0.1205997253239154,0.0682920304596424,0.7431501707620918
2024-12-07 20:03:50.235683300,9.681683349609376,-0.0553552458666265,0.108759649926424,0.8224539360363036
2024-12-07 20:03:50.245697300,9.691697265625,-0.1570084247887134,0.0359913508355617,0.8263465595606714
2024-12-07 20:03:50.255710700,9.701710693359376,-0.3897229556858539,-0.1073953758358955,0.8200674062259494
2024-12-07 20:03:50.265724700,9.711724609375,-0.6056899115301668,-0.229550513908267,0.8992327128775417
2024-12-07 20:03:50.275738600,9.721738525390624,-0.6284009250320494,-0.2421510522842407,0.974419763547927
2024-12-07 20:03:50.285752600,9.731752685546876,-0.4770550560496747,-0.2299316221803426,0.920267609860748
2024-12-07 20:03:50.295765800,9.741765869140623,-0.3144308372057974,-0.2021978120803833,0.7764723023883998
2024-12-07 20:03:50.305779700,9.75177978515625,-0.0767969700850546,-0.0297065714776515,0.6126387077547609
2024-12-07 20:03:50.315793400,9.76179345703125,0.0189081140875816,0.3291150499880313,0.5819767352484166
2024-12-07 20:03:50.325807600,9.7718076171875,0.1370177761614322,0.5098568170636892,0.3894839592982083
2024-12-07 20:03:50.335821600,9.781821533203123,0.1898141313254833,0.640249037605524,0.1616257093258202
2024-12-07 20:03:50.345835800,9.791835693359374,0.0946925461292266,0.6516694262862205,0.0212086461149156
2024-12-07 20:03:50.355849500,9.801849365234377,-0.1347982004158198,0.6457973193824291,0.0053502019215375
2024-12-07 20:03:50.365863700,9.81186376953125,-0.3585787526205182,0.5380260959714651,0.0057239306047558
2024-12-07 20:03:50.375877600,9.821877685546877,-0.6658326839342713,0.7305588386058807,0.2547016140386462
2024-12-07 20:03:50.385891600,9.8318916015625,-0.8854428185865283,0.9700292735040188,0.7621214132137596
2024-12-07 20:03:50.395905500,9.841905517578123,-0.8639441034838556,1.2873346432328223,1.436589969676733
2024-12-07 20:03:50.405919500,9.85191943359375,-0.6332122708365321,1.5611317106246947,2.1997188063673674
2024-12-07 20:03:50.415933700,9.86193359375,-0.2298407290264964,1.7421359280288218,2.8621602404281496
2024-12-07 20:03:50.425947600,9.87194775390625,0.1263704176798462,1.8705799371123315,3.268185219356418
2024-12-07 20:03:50.435961600,9.881961669921877,0.329851401438564,1.8467337821006773,3.402524131697416
2024-12-07 20:03:50.445975600,9.8919755859375,0.3244777455762028,1.681746633517742,3.2913112433999774
2024-12-07 20:03:50.455989500,9.901989501953125,0.2487631639003753,1.2851280730992556,2.715860548919439
2024-12-07 20:03:50.466002700,9.912002685546875,0.2793576241284609,0.9830828163444996,1.9697393995225427
2024-12-07 20:03:50.476016600,9.9220166015625,0.3369935282781719,0.8439899874746799,1.289169895835966
2024-12-07 20:03:50.486030600,9.932030517578124,0.2750806774616241,0.7562555899202823,0.6500418250843882
2024-12-07 20:03:50.496044500,9.94204443359375,0.0587274987787008,0.6407353598177432,-0.0350368265897035
2024-12-07 20:03:50.506058800,9.952058837890624,-0.3031841976568102,0.4376724553406238,-0.6616058600194752
2024-12-07 20:03:50.516072400,9.962072509765624,-0.7023541961237788,0.0881312879174947,-1.0821849956095215
2024-12-07 20:03:50.526086700,9.972086669921875,-1.15421928133741,-0.2905599861443043,-1.6221011431112884
2024-12-07 20:03:50.536100600,9.9821005859375,-1.27844289624691,-0.5335469047307968,-1.332855746696889
2024-12-07 20:03:50.546114600,9.992114501953123,-1.1522251849107443,-0.6405991662174463,-0.605506298591569
2024-12-07 20:03:50.556128500,10.00212841796875,-0.8395701252058148,-0.5898059675693511,-0.0729039812345057
2024-12-07 20:03:50.566142500,10.012142578125,-0.5300048482097685,-0.5576449886769056,0.4622824343316257
2024-12-07 20:03:50.576156700,10.02215673828125,-0.3601720131613314,-0.4868155486941337,0.8756682974167168
2024-12-07 20:03:50.586170600,10.032170654296875,-0.3598126783296466,-0.3713555243462323,1.181181449477747
2024-12-07 20:03:50.596184600,10.0421845703125,-0.453774572096765,-0.2240869878053665,1.2562731500148772
2024-12-07 20:03:50.606198500,10.052198486328123,-0.6581633183501661,-0.1110252567708492,1.129503065492958
2024-12-07 20:03:50.616212500,10.06221240234375,-0.9422375957369804,-0.0125549456685781,0.8625725959349423
2024-12-07 20:03:50.626226700,10.072226806640623,-1.227070582536608,-0.0011228665500879,0.5452624039005488
2024-12-07 20:03:50.636240400,10.082240478515626,-1.398531603308767,0.0519318472892045,0.2654817320544272
2024-12-07 20:03:50.646254600,10.092254638671877,-1.424403857320547,0.2944745292395353,0.0969752502389252
2024-12-07 20:03:50.656267500,10.102267578125,-1.391050892164558,0.6604243951499462,-0.0377479852445423
2024-12-07 20:03:50.666281700,10.11228173828125,-1.328392483677715,0.9387748880624772,-0.2065176480408757
2024-12-07 20:03:50.676295400,10.12229541015625,-1.3560416842341425,1.1529290953963995,-0.3748388364173471
2024-12-07 20:03:50.686309600,10.1323095703125,-1.374436588102579,1.2879291019946335,-0.5010415693800896
2024-12-07 20:03:50.696323600,10.142323486328126,-1.297787063664198,1.2986270216196774,-0.5516038453491404
2024-12-07 20:03:50.706337800,10.152337890625,-1.1918915709972382,1.1991916648775338,-0.6692136316094547
2024-12-07 20:03:50.716351500,10.1623515625,-1.0451134483218192,1.0109083963811396,-0.8213458286639302
2024-12-07 20:03:50.726365400,10.172365478515625,-0.7605062331020832,0.7551373995453119,-0.9898933731421828
2024-12-07 20:03:50.736379600,10.182379638671875,-0.2559364165306091,0.5357897152215242,-1.2171549723956734
2024-12-07 20:03:50.746393600,10.1923935546875,0.3984153807073831,0.3815419873178005,-1.5200335381694137
2024-12-07 20:03:50.756407600,10.202407470703124,1.0148176787793637,0.4177694849967956,-1.6825184946730731
2024-12-07 20:03:50.766421500,10.21242138671875,1.4614023393720388,0.4619938266485929,-1.6943153154507278
2024-12-07 20:03:50.776435700,10.222435791015624,1.6203607291847466,0.7804717472881079,-1.353891812723875
2024-12-07 20:03:50.786449700,10.23244970703125,1.6916472652852534,1.1711878056645393,-1.0411316852092742
2024-12-07 20:03:50.796463600,10.242463623046875,1.633340622267127,1.491627966287732,-0.7275763156637549
2024-12-07 20:03:50.806477600,10.2524775390625,1.232273265746236,1.8150491885483264,-0.6108087889138609
2024-12-07 20:03:50.816491500,10.262491455078123,0.4282389296282082,2.14762928429842,-0.4591236415071412
2024-12-07 20:03:50.826505700,10.272505615234374,-0.2654273715186864,2.505464232814312,-0.1316631172604858
2024-12-07 20:03:50.836518400,10.282518310546877,-0.2582131292909383,2.460733695206046,0.1002536143224686
2024-12-07 20:03:50.846532600,10.29253271484375,0.2653805367022752,1.9008990875303744,0.2149510568000376
2024-12-07 20:03:50.856546600,10.302546630859377,1.0251559713117775,1.181952945306897,0.3935395913645625
2024-12-07 20:03:50.866560800,10.312560791015626,1.521451442143321,0.3690478319257497,0.4240451312001794
2024-12-07 20:03:50.876574500,10.322574462890625,1.6317998225659132,-0.2877344073295593,0.1725664247307926
2024-12-07 20:03:50.886588700,10.332588623046876,1.5156835262663662,-0.8483318160712718,-0.4133165972411632
2024-12-07 20:03:50.896602600,10.3426025390625,1.266780077112466,-1.1303683040201664,-1.0484520912252366
2024-12-07 20:03:50.906616600,10.352616455078126,1.3121021508730948,-1.0824468614161014,-1.4269156940110026
2024-12-07 20:03:50.916630500,10.362630615234377,1.6218233490832148,-0.92075349368155,-1.576039941421151
2024-12-07 20:03:50.926644500,10.37264453125,1.9553866106517608,-0.8329460308909415,-1.527771877336502
2024-12-07 20:03:50.936658700,10.38265869140625,2.098955123630911,-0.8340998771011829,-1.3895225135535
2024-12-07 20:03:50.946672600,10.392672607421876,2.048207371559739,-0.8495265788137912,-1.3111547870203852
2024-12-07 20:03:50.956686600,10.4026865234375,1.8512926144488155,-0.94884035500288,-1.4134496248468755
2024-12-07 20:03:50.966700500,10.412700439453126,1.5356538627579808,-1.125392853695154,-1.5589001521803438
2024-12-07 20:03:50.976714500,10.422714599609376,1.1912779691435396,-1.3951368463039395,-1.8649701344065368
2024-12-07 20:03:50.986728700,10.432728759765626,0.9259561768911778,-1.647412402239442,-2.0747462727867068
2024-12-07 20:03:50.996742400,10.442742431640625,0.6935689782522618,-1.77123342769742,-2.085463773895055
2024-12-07 20:03:51.006756600,10.452756591796875,0.4223708413124084,-1.7486375650078056,-2.074460879974067
2024-12-07 20:03:51.016769500,10.46276953125,0.2145084275990724,-1.4722493120789526,-1.965871325917541
2024-12-07 20:03:51.026783700,10.47278369140625,0.1358041625879704,-1.0518401262283326,-1.7178494819037615
2024-12-07 20:03:51.036797400,10.48279736328125,0.0470417371600866,-0.641442631304264,-1.326778180348873
2024-12-07 20:03:51.046811600,10.492811767578123,0.0105237321019172,-0.2651893980443477,-0.8835298245720565
2024-12-07 20:03:51.056825600,10.50282568359375,0.0057424891747534,0.0359182855993509,-0.3221951875969767
2024-12-07 20:03:51.066839800,10.51283984375,-0.0035706980936229,0.219651051184535,0.339076764293015
2024-12-07 20:03:51.076853500,10.522853515625,0.0436655387252569,0.2529009943574666,0.8849296083673834
2024-12-07 20:03:51.086867500,10.532867431640623,0.1712060230977833,0.167415837034583,1.1934979832805692
2024-12-07 20:03:51.096881700,10.542881591796874,0.3793706346280872,-0.0203238261044025,1.2915658510617911
2024-12-07 20:03:51.106895600,10.5528955078125,0.6487808652378618,-0.3347837432742118,1.1771630806818605
2024-12-07 20:03:51.116909600,10.56290966796875,0.993649949196726,-0.7903606886178255,0.9298663360722362
2024-12-07 20:03:51.126923500,10.572923583984377,1.1197434496313332,-1.2892477833777665,0.6233021405883133
2024-12-07 20:03:51.136937700,10.582937744140626,1.085987310501933,-1.80592363280654,0.2013093388080596
2024-12-07 20:03:51.146951700,10.59295166015625,0.98955347366333,-2.2446920666903254,-0.2857144458092749
2024-12-07 20:03:51.156965400,10.60296533203125,0.779363493785262,-2.5025854625076054,-0.759461254093796
2024-12-07 20:03:51.166979600,10.6129794921875,0.646183688351512,-2.529448334991932,-1.1901409279376267
2024-12-07 20:03:51.176993500,10.62299365234375,0.3436899571768939,-2.22273216381669,-1.2916976607479154
2024-12-07 20:03:51.187007700,10.6330078125,0.088376056458801,-1.721740205731988,-1.1334157088920471
2024-12-07 20:03:51.197020400,10.6430205078125,-0.1664694960951805,-1.111047517478466,-0.7350310155838727
2024-12-07 20:03:51.207034600,10.65303466796875,-0.5275210685700178,-0.5441390258938074,-0.1619834367223084
2024-12-07 20:03:51.217048600,10.663048583984375,-0.9020546384304762,-0.0894984846174716,0.4526313934110105
2024-12-07 20:03:51.227062800,10.673062744140625,-1.1086666136913002,0.2205640743762254,1.1122658072270453
2024-12-07 20:03:51.237076500,10.683076416015624,-1.2785128927432,0.413799996843934,1.6484940599963067
2024-12-07 20:03:51.247090700,10.693090576171874,-1.3379575998805462,0.5556260500699282,1.809779139190912
2024-12-07 20:03:51.257106000,10.70310595703125,-1.4901273524664342,0.6801268744856118,1.6796119595766066
2024-12-07 20:03:51.267119900,10.713119873046876,-1.504502060908079,0.7471428936600685,1.4511875270888208
2024-12-07 20:03:51.277133800,10.7231337890625,-1.3236902973361313,0.6668424454987049,0.9889353417649864
2024-12-07 20:03:51.287147800,10.733147705078125,-1.0961014388896524,0.4365583566188812,0.4552928677052259
2024-12-07 20:03:51.297161700,10.74316162109375,-0.958598363429308,0.1372919169276952,0.088622140174359
2024-12-07 20:03:51.307176000,10.753176025390625,-0.7910154992647469,-0.1837257513225078,-0.2098692234911024
2024-12-07 20:03:51.317190000,10.76318994140625,-0.5847346556544304,-0.485589806291461,-0.4521794118598103
2024-12-07 20:03:51.327203800,10.773203857421874,-0.5364334199525416,-0.6732324387967586,-0.5769875486589968
2024-12-07 20:03:51.337217800,10.7832177734375,-0.4008176195435226,-0.6553039833962917,-0.7981941587224602
2024-12-07 20:03:51.347231700,10.793231689453124,-0.266646464984864,-0.3876145852297544,-1.0137487343735991
2024-12-07 20:03:51.357246000,10.803245849609375,-0.3778367030590772,-0.0317886384487152,-1.2051343527995049
2024-12-07 20:03:51.367259600,10.813259765625,-0.4480692731272429,0.3630190731555223,-1.1388644758172333
2024-12-07 20:03:51.377272800,10.82327294921875,-0.7248088237117976,0.7053291202813387,-1.0900666887700556
2024-12-07 20:03:51.387286800,10.833286865234374,-1.0619921024084091,1.1339186899781226,-1.137249003444612
2024-12-07 20:03:51.397301000,10.843301025390623,-1.1507090081941336,1.8998633147418496,-1.085250812920928
2024-12-07 20:03:51.407314700,10.853314697265626,-0.8694475232057273,3.017141251042485,-0.9702793027423322
2024-12-07 20:03:51.417329000,10.863328857421877,-0.8248058329246938,4.367133718240261,-0.7125253153957426
2024-12-07 20:03:51.427342800,10.8733427734375,-1.1835685638099909,5.356285625365376,-0.2725646029874682
2024-12-07 20:03:51.437357000,10.883357177734377,-1.2392583023279904,5.294325720536708,0.298358092674613
2024-12-07 20:03:51.447370800,10.893370849609376,-0.5476653733890503,4.079810814321041,0.6394337756998837
2024-12-07 20:03:51.457384700,10.903384765625,0.3463822650007903,1.9765718758910893,0.6415056135378777
2024-12-07 20:03:51.467399000,10.91339892578125,1.0387205324143172,-0.1318418348282575,0.0527498856738209
2024-12-07 20:03:51.477412900,10.923412841796877,1.368460290171951,-1.8274585882663723,-1.0221598582357168
2024-12-07 20:03:51.487426800,10.9334267578125,1.5976473775953053,-3.0952883205622435,-2.078767052735388
2024-12-07 20:03:51.497440800,10.943440673828125,1.4778672980912029,-3.7549236111611126,-3.0082796069338915
2024-12-07 20:03:51.507455000,10.953455078125,1.0462486628968268,-3.907064137652516,-3.671049396166205
2024-12-07 20:03:51.517469000,10.963468994140625,0.5567798232149332,-3.7275381761074073,-3.842812614755332
2024-12-07 20:03:51.527482600,10.973482666015624,0.3329915260951966,-3.2165082236111164,-3.3900603714436293
2024-12-07 20:03:51.537496800,10.983496826171876,0.6042869859296828,-2.34487210431993,-2.4323836529038845
2024-12-07 20:03:51.547510000,10.993510009765624,0.9302379458636044,-1.2819804227232932,-1.4927550706215202
2024-12-07 20:03:51.557524000,11.00352392578125,1.1143740315526722,-0.0889116246402263,-0.7006864090420305
2024-12-07 20:03:51.567537700,11.01353759765625,0.9886725991755724,1.2024573886752128,-0.0264363176353275
2024-12-07 20:03:51.577552000,11.0235517578125,0.3778144912272692,2.3338322393894195,0.6041159402117133
2024-12-07 20:03:51.587565800,11.03356591796875,-0.3031821883628144,2.842403692817688,1.379771665520221
2024-12-07 20:03:51.597580000,11.043580078125,-0.6739812113374472,2.504820089691877,1.8740593036606907
2024-12-07 20:03:51.607593700,11.05359375,-0.5335211857676506,1.4699404506146907,1.8016911098033188
2024-12-07 20:03:51.617608000,11.06360791015625,-0.3342793008834123,0.361014747595787,1.377232064040005
2024-12-07 20:03:51.627622000,11.073621826171877,-0.2300064409822225,-0.514713609445095,0.7904354343544692
2024-12-07 20:03:51.637635800,11.0836357421875,-0.0147018945693969,-0.8421183483839034,0.1999358584977686
2024-12-07 20:03:51.647649800,11.09364990234375,0.3333405587285757,-0.913793007019162,-0.3549021829996258
2024-12-07 20:03:51.657663700,11.103663818359376,0.7140870117545127,-0.8765683149963617,-0.8156449136085808
2024-12-07 20:03:51.667678000,11.113677978515623,0.9117968647658824,-0.6525234127670526,-1.0277833241406829
2024-12-07 20:03:51.677692000,11.12369189453125,0.9287830708801744,-0.4525514600425958,-1.1377735387753694
2024-12-07 20:03:51.687705900,11.133705810546877,0.6946487363129854,-0.2892424738049507,-1.2007716275453566
2024-12-07 20:03:51.697719800,11.1437197265625,0.3161275581210852,-0.2607534614235162,-1.1232975619163363
2024-12-07 20:03:51.707733800,11.153733642578125,0.0792611682415008,-0.4142296204328536,-0.958673985948786
2024-12-07 20:03:51.717746700,11.16374658203125,0.2060720231652259,-0.5513502724468707,-0.7028285356372594
2024-12-07 20:03:51.727761000,11.173760986328125,0.608859043085575,-0.5927841065973043,-0.2983933831837028
2024-12-07 20:03:51.737774800,11.18377490234375,1.1760831764906643,-0.4571849650621414,0.2349209549002349
2024-12-07 20:03:51.747788800,11.193788818359376,1.6435224090635776,-0.1967372085869312,0.6570108603794127
2024-12-07 20:03:51.757803000,11.203802978515624,2.034039729997516,0.079307345470786,0.9603780864529312
2024-12-07 20:03:51.767816700,11.213816650390624,2.212074576202035,0.2236252155125141,1.1918997543036938
2024-12-07 20:03:51.777831000,11.223830810546875,2.120539032799005,0.2791296605914831,1.3722795561991632
2024-12-07 20:03:51.787844900,11.233844970703124,1.8981278692513703,0.3929378260791301,1.528268867073208
2024-12-07 20:03:51.797859000,11.243859130859375,1.5979565896749497,0.5419955841243267,1.4971750790208578
2024-12-07 20:03:51.807872800,11.253872802734374,1.1494400842368602,0.6829366712093353,1.312360801809281
2024-12-07 20:03:51.817886700,11.26388671875,0.5874947680175304,0.7179197217851877,0.8804775973945855
2024-12-07 20:03:51.827901000,11.27390087890625,0.0430780759598128,0.5862953290998936,0.309090024167113
2024-12-07 20:03:51.837915000,11.283914794921875,-0.4235399581570178,0.2407084522604942,-0.2855732472402975
2024-12-07 20:03:51.847928800,11.2939287109375,-0.6472516098439693,-0.1057096147060394,-0.7722122337911278
2024-12-07 20:03:51.857942800,11.30394287109375,-0.6534416966557502,-0.4716963054955005,-1.2780582808434962
2024-12-07 20:03:51.867957000,11.31395703125,-0.7519114232361316,-0.6979553766429424,-1.6063284044399857
2024-12-07 20:03:51.877971000,11.323970947265623,-0.6898106486320496,-0.8412304596334695,-1.679856435856968
2024-12-07 20:03:51.887983900,11.33398388671875,-0.2682722030231729,-0.7328910809457302,-1.489138195298612
2024-12-07 20:03:51.897997800,11.343997802734377,0.3894470248213038,-0.3360544938623905,-1.126145571758598
2024-12-07 20:03:51.908012000,11.354011962890626,0.8247557101726531,-0.0064314943522214,-0.7854683865316212
2024-12-07 20:03:51.918025700,11.364025634765625,1.0212988574922084,0.0976432126283645,-0.5665273102473467
2024-12-07 20:03:51.928039700,11.374039794921876,0.9843477217137812,0.0684171181440353,-0.271796194164548
2024-12-07 20:03:51.938054000,11.384053955078125,0.7738369123835116,-0.0879991859704256,0.0148583455064333
2024-12-07 20:03:51.948067800,11.39406787109375,0.7020762559652328,-0.3458610176056623,0.2710557693270966
2024-12-07 20:03:51.958082000,11.40408203125,0.817139389950037,-0.4651040676236152,0.6027198096781968
2024-12-07 20:03:51.968095700,11.414095703125,0.729014604838565,-0.5398386983513832,0.8405161738842726
2024-12-07 20:03:51.978110000,11.42410986328125,0.450959733871743,-0.6626175212800502,0.972227002744004
2024-12-07 20:03:51.988124000,11.4341240234375,0.1754852347869425,-0.7108037523001433,1.189009805015847
