time,seconds_elapsed,z,y,x
2024-12-07 20:21:07.597195800,0.01519580078125,0.0160492175251245,-1.279584467497468,-0.1124146653026342
2024-12-07 20:21:07.607210000,0.0252099609375,0.4680506424695253,-1.9472645328640936,0.8793208285748958
2024-12-07 20:21:07.617224000,0.035223876953125,0.981295348405838,-1.2750935858190058,0.8986579817295074
2024-12-07 20:21:07.627238100,0.045238037109375,0.6091507195085287,-1.4380775778859851,-0.2539157243579626
2024-12-07 20:21:07.637250800,0.055250732421875,0.1232055421744473,-1.1981243279069662,-1.1850187626183033
2024-12-07 20:21:07.647265000,0.06526513671875,-0.2720797238136641,-0.5974076747447252,-1.7018319746911523
2024-12-07 20:21:07.657279000,0.075279052734375,-0.7504471959024668,-0.2361567803055048,-1.5458073002427817
2024-12-07 20:21:07.667293000,0.08529296875,-0.8304261570245027,-0.0155693250536918,-1.0289233610212802
2024-12-07 20:21:07.677305900,0.095305908203125,-0.2908306015129201,0.3231353910565376,-0.4332154759317636
2024-12-07 20:21:07.687320000,0.105320068359375,-0.0150333184808492,-0.2808545846879482,0.733501321798563
2024-12-07 20:21:07.697333800,0.115333740234375,-0.0090308631956577,-1.321591717621684,1.6191133594721554
2024-12-07 20:21:07.707348000,0.125347900390625,-0.0841904413372278,-1.8354314668416976,1.4787193848758935
2024-12-07 20:21:07.717361000,0.13536083984375,-0.0782914098938927,-1.6611778927415608,0.6190045895248651
2024-12-07 20:21:07.727375000,0.145375,-0.0684082772504538,-0.8258183709681034,-0.6275158127605914
2024-12-07 20:21:07.737388800,0.155388916015625,-0.0531815185567364,0.094811204072833,-1.6217033759653567
2024-12-07 20:21:07.747403000,0.165403076171875,-0.1263584349811077,0.6859849528640508,-1.961908559766412
2024-12-07 20:21:07.757416000,0.175416015625,-0.2289332587927579,0.99119481112957,-1.6056681869655849
2024-12-07 20:21:07.767430000,0.185429931640625,-0.2161374901056289,1.1408289077579974,-0.9605027357459068
2024-12-07 20:21:07.777443800,0.19544384765625,-0.0339238786454312,1.205075462219119,-0.1408276898384094
2024-12-07 20:21:07.787458000,0.2054580078125,0.0797393254135735,1.138684881466627,0.6605541590094566
2024-12-07 20:21:07.797471000,0.215470947265625,0.0614139796500094,1.1585896053761242,1.230504502508044
2024-12-07 20:21:07.807485000,0.22548486328125,0.1513426541119814,1.0429781898587942,1.6327742205560207
2024-12-07 20:21:07.817499000,0.235498779296875,0.7882073099762201,-0.6283709682852029,1.5561808102190493
2024-12-07 20:21:07.827513000,0.24551318359375,1.1903425879895686,-4.039925963178277,0.1042623385071754
2024-12-07 20:21:07.837525800,0.25552587890625,0.5310603486120701,-4.511985841289162,-1.2252946589052676
2024-12-07 20:21:07.847540000,0.2655400390625,-0.7326853292405605,-1.8477754001080988,-1.667244645434618
2024-12-07 20:21:07.857554000,0.275553955078125,-1.0498363851904868,-0.875333220243454,-1.7631033127337694
2024-12-07 20:21:07.867568000,0.285568115234375,-0.8130909913420676,-1.0940578042328355,-1.7273633063107727
2024-12-07 20:21:07.877581800,0.295581787109375,-0.5245885222494602,-0.9985556952863932,-1.7348294044077397
2024-12-07 20:21:07.887595000,0.305594970703125,-0.2173322528481483,-0.9549024315208196,-1.498696589499712
2024-12-07 20:21:07.897609000,0.31560888671875,0.1655050349771976,-1.835274230453372,-0.6658923051670194
2024-12-07 20:21:07.907623000,0.325622802734375,0.911443229022622,-2.9550077432125805,-0.3282163475826382
2024-12-07 20:21:07.917636900,0.335636962890625,1.0731026944875717,-2.6776567827314137,-0.6894190189659595
2024-12-07 20:21:07.927650000,0.345650146484375,0.6801753898024558,-2.1962913161367177,-0.8162462405025959
2024-12-07 20:21:07.937664000,0.3556640625,-0.3160089001774788,-1.550452495700121,-0.7361354696944356
2024-12-07 20:21:07.947678000,0.365677978515625,-0.9518903902232646,-1.028394368711114,-0.5622226718559861
2024-12-07 20:21:07.957692000,0.37569189453125,-0.8634440450072288,-0.7998024707019329,-0.5032350608363747
2024-12-07 20:21:07.967705000,0.385705078125,-0.594664513516426,-0.7684487165391445,-0.4471265123844146
2024-12-07 20:21:07.977718800,0.39571875,-0.284751025870908,-0.886429783797264,-0.509801287484169
2024-12-07 20:21:07.987733000,0.40573291015625,0.19990999340415,-1.0568868882238864,-0.5998425006762147
2024-12-07 20:21:07.997747000,0.415746826171875,0.6848644244015216,-1.254016895520687,-0.4962324885979294
2024-12-07 20:21:08.007760000,0.425759765625,0.6620856063604355,-0.9198129979610442,0.129604869556427
2024-12-07 20:21:08.017773800,0.43577392578125,0.751000738132,0.7663339163422584,1.485951089695096
2024-12-07 20:21:08.027788000,0.4457880859375,0.8823848923206329,2.716267376154661,2.7464821894153952
2024-12-07 20:21:08.037802000,0.455802001953125,0.6037807169079781,4.933713708522916,3.9486461481019854
2024-12-07 20:21:08.047815000,0.46581494140625,0.1999813050746917,5.385062807038426,4.269336484093964
2024-12-07 20:21:08.057828900,0.475828857421875,0.3902922069411724,3.4389620572566986,3.1964816268876195
2024-12-07 20:21:08.067843000,0.485843017578125,0.1222421587686985,3.453776764550805,2.6216940724909303
2024-12-07 20:21:08.077857000,0.49585693359375,-0.3679016210326924,4.025886331909895,2.0889625757962462
2024-12-07 20:21:08.087870000,0.505869873046875,-0.3849415666282176,2.98587575968504,1.0917487966381012
2024-12-07 20:21:08.097884000,0.5158837890625,-0.1554851972768083,1.685464192736149,0.1643928359515964
2024-12-07 20:21:08.107898000,0.525898193359375,-0.2111199176719412,1.6480524537086485,-0.49775136872828
2024-12-07 20:21:08.117911800,0.535911865234375,-0.4468798076143488,2.2324054165691134,-1.3146652793593705
2024-12-07 20:21:08.127924200,0.54592431640625,-0.6275999839127063,2.6688614818572995,-2.4765514420628545
2024-12-07 20:21:08.137938000,0.55593798828125,-0.8438684069216251,2.45945826844275,-4.013637091189623
2024-12-07 20:21:08.147952000,0.5659521484375,-1.1542810945272446,1.8452695547670124,-4.438979641789198
2024-12-07 20:21:08.157966000,0.575966064453125,-1.4011983382999895,1.6251713443368672,-3.5082319928377865
2024-12-07 20:21:08.167979000,0.58597900390625,-0.9792378313541412,0.9038502896755932,-2.51029764432013
2024-12-07 20:21:08.177993000,0.595992919921875,0.4907470429241657,-1.3680892649024723,-2.1152602156132456
2024-12-07 20:21:08.188007200,0.606007080078125,1.531997970598936,-2.493930446887016,-0.2916686780385673
2024-12-07 20:21:08.198021000,0.616021240234375,1.850557724303007,-1.337783558487892,2.133779914905131
2024-12-07 20:21:08.208034000,0.626033935546875,1.519896029394865,-1.1234428886711596,3.495020336826145
2024-12-07 20:21:08.218048000,0.636048095703125,0.7161725858569145,-0.9899813436865806,3.366519921380281
2024-12-07 20:21:08.228062200,0.646062255859375,0.0795674577116966,-0.7356698980093002,2.8311376179158687
2024-12-07 20:21:08.238076200,0.656076171875,-0.0157610573666635,-0.441924267566204,2.2780858022481203
2024-12-07 20:21:08.248089000,0.666089111328125,-0.1111269818459637,0.0945505073100328,1.4464556762613354
2024-12-07 20:21:08.258103000,0.67610302734375,-0.0863689635532442,-0.0083475571066141,0.2172599182642996
2024-12-07 20:21:08.268117200,0.6861171875,0.1810088935792446,0.0122568395048379,-0.797385180427134
2024-12-07 20:21:08.278131000,0.696130859375,0.1516857867275364,0.2011824975579977,-1.317890963407606
2024-12-07 20:21:08.288144100,0.70614404296875,-0.0551157197560183,0.2756248673409223,-1.396314657911658
2024-12-07 20:21:08.298158000,0.716157958984375,-0.2593348267972469,0.1273129592269659,-1.220237960037589
2024-12-07 20:21:08.308172000,0.726172119140625,-0.2974924157559871,0.0976741922885179,-0.8495742173478007
2024-12-07 20:21:08.318186000,0.73618603515625,-0.1392202363754622,0.0556155042380094,-0.4138222086757421
2024-12-07 20:21:08.328199200,0.74619921875,-0.0703729283869266,-0.0512783518165349,-0.2170641034312546
2024-12-07 20:21:08.338213000,0.756213134765625,-0.0330488676428794,-0.0724853904962539,-0.2590149471931159
2024-12-07 20:21:08.348227000,0.76622705078125,0.0282674785852432,0.0192249249517917,-0.289512230657041
2024-12-07 20:21:08.358241000,0.776240966796875,0.0968435866832733,0.1330465344429016,-0.3046533934265375
2024-12-07 20:21:08.368254200,0.786254150390625,0.2156254671965725,0.1320154378294944,-0.2734581908263266
2024-12-07 20:21:08.378268000,0.796267822265625,0.2374889056921005,0.0565817189216613,-0.2481254505187272
2024-12-07 20:21:08.388282000,0.8062822265625,0.0705552992165088,-0.0690893183171749,-0.2077918326951563
2024-12-07 20:21:08.398296000,0.816296142578125,-0.133793535151612,-0.1252718087881803,-0.1059359708078205
2024-12-07 20:21:08.408309000,0.82630908203125,-0.1666506978809833,-0.1225672260046005,0.003833440683037
2024-12-07 20:21:08.418323000,0.836322998046875,-0.0831412062789313,-0.078512980222702,0.0690128920800983
2024-12-07 20:21:08.428337200,0.846337158203125,-0.019548731812369,0.025287585991621,0.1098765251271426
2024-12-07 20:21:08.438351000,0.85635107421875,-0.0528349336087703,0.0715308662503957,0.133778648109734
2024-12-07 20:21:08.448364000,0.866364013671875,-0.0370119260549545,0.0364227279901504,0.0976008347913622
2024-12-07 20:21:08.458378000,0.8763779296875,-0.0270224560933653,-0.0007931962043046,0.0115524906277656
2024-12-07 20:21:08.468392200,0.88639208984375,-0.1057481931507587,-0.0448112016290426,-0.1107883792750537
2024-12-07 20:21:08.478406100,0.89640625,-0.2369979073047637,-0.0865320360273122,-0.2224617246910929
2024-12-07 20:21:08.488419000,0.906419189453125,-0.2607692435145378,-0.0880547155499458,-0.282674347461015
2024-12-07 20:21:08.498433000,0.91643310546875,-0.184240112319123,-0.0501695137917995,-0.2218963458932936
2024-12-07 20:21:08.508447200,0.926447265625,-0.0926350290775299,-0.0501858804047107,-0.1087133265666663
2024-12-07 20:21:08.518461000,0.9364609375,-0.0101449436510913,-0.064348261269927,-0.0178039522379636
2024-12-07 20:21:08.528474000,0.94647412109375,0.0280219702584203,-0.0705722503513097,0.0344392990879714
2024-12-07 20:21:08.538488000,0.956488037109375,-0.0206710412400309,-0.0686234543710947,0.0511538486540317
2024-12-07 20:21:08.548502300,0.966502197265625,0.0045639286483637,-0.0059971945881843,0.055011985386908
2024-12-07 20:21:08.558516000,0.976515869140625,0.0588367861057631,0.0460533106446266,0.020679946065694
2024-12-07 20:21:08.568529200,0.986529052734375,0.0326911402463913,0.0725648854732513,-0.0428188587680459
2024-12-07 20:21:08.578543000,0.996543212890625,-0.076642528442014,0.046593408870697,-0.1325206108726561
2024-12-07 20:21:08.588557000,1.00655712890625,-0.1337771868050098,0.0149415485441684,-0.186534086741507
2024-12-07 20:21:08.598571000,1.016571044921875,-0.124230784435803,-0.0285135623008012,-0.1982781544186174
2024-12-07 20:21:08.608584200,1.026584228515625,-0.0225742353796958,-0.0434516037136316,-0.2223242159165442
2024-12-07 20:21:08.618598000,1.036597900390625,0.1149953294456005,-0.0223527015835046,-0.2788745167866349
2024-12-07 20:21:08.628612000,1.046612060546875,0.2127601226270198,-0.0282552036255598,-0.3077433222658932
2024-12-07 20:21:08.638626000,1.0566259765625,0.2341805117964744,-0.0762695852100849,-0.3200010385535657
2024-12-07 20:21:08.648639200,1.06663916015625,0.2229249582886695,-0.0571831919461488,-0.2696669818498194
2024-12-07 20:21:08.658653000,1.07665283203125,0.0957341641366481,-0.0303343479871749,-0.2280199433401226
2024-12-07 20:21:08.668667100,1.086667236328125,-0.1114753386259078,-0.0191191264897584,-0.1798587006308138
2024-12-07 20:21:08.678681000,1.09668115234375,-0.2444061377346515,0.0093844989389181,-0.0140698802761733
2024-12-07 20:21:08.688694000,1.106694091796875,-0.2339607315659523,-0.0513017326921224,0.1724409717202186
2024-12-07 20:21:08.698708000,1.1167080078125,-0.0885831050719134,-0.1349187580555677,0.2380453705310821
2024-12-07 20:21:08.708722200,1.12672216796875,0.0614554807041771,-0.2219388698607683,0.2214079778544604
2024-12-07 20:21:08.718736100,1.136736083984375,0.2181435692310333,-0.243911047694087,0.200003224645555
2024-12-07 20:21:08.728749000,1.1467490234375,0.2590308754146099,-0.2022521726161241,0.2004630972422659
2024-12-07 20:21:08.738763000,1.156762939453125,0.1794646050130017,-0.12545885579288,0.2772793565496802
2024-12-07 20:21:08.748777200,1.166777099609375,0.1173392530900891,-0.0715980862677097,0.3156726539604366
2024-12-07 20:21:08.758791200,1.176791259765625,0.0943757352650165,-0.1285328564107418,0.2638448515675962
2024-12-07 20:21:08.768804000,1.18680419921875,0.0163362177729606,-0.1628998209148645,0.1427227098047733
2024-12-07 20:21:08.778818000,1.196818115234375,-0.0657142706598155,-0.140690327194333,0.0521035505943
2024-12-07 20:21:08.788832300,1.206832275390625,-0.1484100895251147,-0.0723579647243022,0.010283493605256
2024-12-07 20:21:08.798846000,1.216845947265625,-0.2219511448204517,-0.0047281975656747,-0.0471529424495995
2024-12-07 20:21:08.808859100,1.226859130859375,-0.3107715840458869,-0.0270218624383211,-0.1446358499497175
2024-12-07 20:21:08.818873000,1.236873046875,-0.2912742901598103,-0.029357027387619,-0.1868476827353239
2024-12-07 20:21:08.828887000,1.246886962890625,-0.1762123069524765,-0.0435503879129886,-0.1942323861591517
2024-12-07 20:21:08.838901000,1.25690087890625,-0.0874643484413623,-0.0408060576409101,-0.1836249212965369
2024-12-07 20:21:08.848914200,1.2669140625,0.0319616386617533,-0.0649012189775705,-0.0838734843425452
2024-12-07 20:21:08.858928000,1.27692822265625,0.1070049152135848,-0.0596487052768468,0.0582497982643544
2024-12-07 20:21:08.868942000,1.286942138671875,0.1435200159286148,-0.0376437942177057,0.1814928777039051
2024-12-07 20:21:08.878956000,1.2969560546875,0.0869137105549685,-0.0136065005481243,0.2262025186546147
2024-12-07 20:21:08.888969200,1.30696923828125,-0.0176759602104313,0.0270668706238269,0.1425011760085821
2024-12-07 20:21:08.898983000,1.31698291015625,-0.1663326997066848,0.0295960968405008,0.0302303030908107
2024-12-07 20:21:08.908997000,1.3269970703125,-0.247198983323574,-0.0248626385778188,-0.1028542252749204
2024-12-07 20:21:08.919011000,1.337010986328125,-0.1736287202000618,-0.0517179122775793,-0.238475432511419
2024-12-07 20:21:08.929024000,1.34702392578125,0.0034100824381224,-0.0480915384739637,-0.3113734954617917
2024-12-07 20:21:08.939038000,1.357037841796875,0.1407224758982658,-0.0051391164541244,-0.3609459201432764
2024-12-07 20:21:08.949052200,1.36705224609375,0.1352186177849769,0.0372960036933422,-0.3838166542515158
2024-12-07 20:21:08.959066000,1.377066162109375,0.0690729517042636,0.0474351203918457,-0.3257886820442974
2024-12-07 20:21:08.969079000,1.3870791015625,0.0138005435491912,0.0115361240148544,-0.20422274203673
2024-12-07 20:21:08.979093000,1.397093017578125,-0.0092997249986045,-0.0443523519456386,-0.0942651144973933
2024-12-07 20:21:08.989107200,1.407107177734375,0.0564122075736522,-0.1318961953639984,0.0013880933575332
2024-12-07 20:21:08.999121200,1.41712109375,0.2082335851132869,-0.1515554200798273,0.0548304913401603
2024-12-07 20:21:09.009134000,1.427134033203125,0.2595908291186206,-0.1304378132492303,0.0637384588085114
2024-12-07 20:21:09.019148000,1.43714794921875,0.1989525465488433,-0.10009469743371,0.0583208176739513
2024-12-07 20:21:09.029162200,1.447162353515625,0.1095218847368843,-0.0274205063670873,0.0463489325903356
2024-12-07 20:21:09.039176000,1.457176025390625,0.0308382058560848,0.0191454299747943,0.0310443959526717
2024-12-07 20:21:09.049189000,1.467189208984375,0.000137947165966,0.0188385559827089,-0.0131568570844829
2024-12-07 20:21:09.059203000,1.477203125,-0.0582768324017524,-0.012629764470458,-0.0322882585339248
2024-12-07 20:21:09.069217300,1.48721728515625,-0.1087245786130428,-0.0108241763532161,-0.0184551096230745
2024-12-07 20:21:09.079231000,1.49723095703125,-0.1433189038659446,-0.0257990426450967,-0.0020760756216943
2024-12-07 20:21:09.089244200,1.507244140625,-0.1808136632680893,-0.016904373049736,0.0151851480416953
2024-12-07 20:21:09.099258000,1.517258056640625,-0.1349169862235896,-0.0493739794999361,-0.045993835542351
2024-12-07 20:21:09.109272000,1.52727197265625,0.0236602770507335,-0.0380693261533975,-0.0845204039439559
2024-12-07 20:21:09.119286000,1.5372861328125,0.2173275766730308,-0.0118242933064699,-0.1246202130116522
2024-12-07 20:21:09.129298400,1.54729833984375,0.3383481577575206,-0.0158913966149091,-0.1626245111048221
2024-12-07 20:21:09.139312400,1.5573125,0.3424152610659599,-0.0081920742839574,-0.229203600166738
2024-12-07 20:21:09.149326600,1.56732666015625,0.1874959357772953,-0.0143377374321222,-0.2315596617735922
2024-12-07 20:21:09.159340500,1.577340576171875,0.0010895670686848,-0.0190519064724445,-0.2218598132751882
2024-12-07 20:21:09.169353500,1.587353515625,-0.1421580616593361,-0.0365524918496608,-0.1857579878024756
2024-12-07 20:21:09.179367400,1.597367431640625,-0.2205131661728955,-0.0479839864462614,-0.1093418337285518
2024-12-07 20:21:09.189381600,1.607381591796875,-0.1794587415277957,-0.0406786318689584,-0.0096235683917999
2024-12-07 20:21:09.199395600,1.6173955078125,-0.0896902077972889,-0.0488777204155921,0.0846174345776438
2024-12-07 20:21:09.209408500,1.627408447265625,-0.0388005630373954,-0.0410118093460798,0.1345939100153744
2024-12-07 20:21:09.219422500,1.63742236328125,0.0078512980222702,-0.0493874235033988,0.1457766905479133
2024-12-07 20:21:09.229436700,1.647436767578125,0.0192553200900554,-0.0538192684710025,0.1052703465059399
2024-12-07 20:21:09.239449600,1.65744970703125,0.0230383274937979,-0.0593745645105838,0.0071856737203896
2024-12-07 20:21:09.249463600,1.667463623046875,0.033426468783617,-0.0392494758486747,-0.0998366310194134
2024-12-07 20:21:09.259477500,1.6774775390625,-0.001616769280564,-0.0237093768894672,-0.1517335531257093
2024-12-07 20:21:09.269491500,1.687491455078125,0.0527168601870536,-0.0078816931605339,-0.1238156186304986
2024-12-07 20:21:09.279504600,1.697504638671875,0.1540916605591774,0.0175280579060316,-0.0840253139033913
2024-12-07 20:21:09.289518600,1.7075185546875,0.2471826167106628,0.033232407516241,-0.0937102570936083
2024-12-07 20:21:09.299532500,1.717532470703125,0.2488391517460346,-0.0230272398442029,-0.0879126767307519
2024-12-07 20:21:09.309546500,1.72754638671875,0.1943511719669215,-0.087787589046359,-0.1185549216233193
2024-12-07 20:21:09.319559700,1.7375595703125,0.1302583650290966,-0.1189548807263374,-0.1431865279242396
2024-12-07 20:21:09.329573600,1.74757373046875,0.0732581467007286,-0.0789876119971275,-0.1755662641339004
2024-12-07 20:21:09.339587300,1.75758740234375,0.0384217928528785,-0.0173036015003919,-0.155136785697937
2024-12-07 20:21:09.349601500,1.7676015625,-0.0187830264031887,0.0209019182533025,-0.1412308638118207
2024-12-07 20:21:09.359614700,1.77761474609375,-0.0771405045594088,0.0398112013846635,-0.1350013217724859
2024-12-07 20:21:09.369628700,1.787628662109375,-0.071743047696352,0.0309317293584346,-0.1165519112378358
2024-12-07 20:21:09.379642400,1.797642333984375,-0.0015337854385375,0.002858896562457,-0.067340574953705
2024-12-07 20:21:09.389656600,1.807656494140625,0.0496399004271253,-0.0484662170052528,-0.0145363287441432
2024-12-07 20:21:09.399669800,1.817669677734375,0.0869078836023807,-0.0812450355350971,0.0067328153863549
2024-12-07 20:21:09.409683500,1.827683349609375,0.0954512190094217,-0.0759451755613088,-0.0225451554156839
2024-12-07 20:21:09.419697400,1.837697509765625,0.063234747070074,-0.0578577302068471,-0.0363565308861434
2024-12-07 20:21:09.429711600,1.847711669921875,0.024407296025753,-0.1101876369029283,-0.0647121261462569
2024-12-07 20:21:09.439724500,1.857724609375,0.0651250908613205,-0.1546113005191087,-0.0493475298844277
2024-12-07 20:21:09.449738500,1.867738525390625,0.0908487484489567,-0.1326835463494062,-0.0111275432139635
2024-12-07 20:21:09.459752400,1.87775244140625,0.0736766643737442,-0.0700689770042896,0.0449263524413108
2024-12-07 20:21:09.469766700,1.8877666015625,0.0441267447625286,-0.0104991821825504,0.0544878153823316
2024-12-07 20:21:09.479779600,1.897779541015625,-0.0541968696117401,0.0006716156512498,0.0442544445291161
2024-12-07 20:21:09.489793500,1.90779345703125,-0.1696481261312961,0.0066202949225902,0.045800797188282
2024-12-07 20:21:09.499807500,1.917807373046875,-0.2319312898312695,-0.0490706126391887,0.0495082734040915
2024-12-07 20:21:09.509821700,1.92782177734375,-0.2260252258589491,-0.0879793122261762,0.0574963495485484
2024-12-07 20:21:09.519834600,1.937834716796875,-0.1381084940075874,-0.0636690468341112,0.1032705509908497
2024-12-07 20:21:09.529848600,1.9478486328125,-0.0293768645992502,-0.0297445654004812,0.0790190300486981
2024-12-07 20:21:09.539862500,1.957862548828125,-0.0427975237190723,-0.0326677593708038,-0.0199691674478352
2024-12-07 20:21:09.549876500,1.96787646484375,-0.0955517567744478,-0.0314993001133203,-0.1309605219490826
2024-12-07 20:21:09.559889700,1.9778896484375,-0.0959212111413478,-0.0045832361370325,-0.2170107658088207
2024-12-07 20:21:09.569903600,1.987903564453125,-0.0687070044687017,0.0219295077353715,-0.2800771705746651
2024-12-07 20:21:09.579917600,1.99791748046875,-0.0251577855994924,0.0430178884714841,-0.3220682002164423
2024-12-07 20:21:09.589931500,2.007931640625,-0.0077589435636997,0.0786088418126106,-0.339021673104912
2024-12-07 20:21:09.599944700,2.01794482421875,0.0231026249016635,0.0985474679917097,-0.3102756172224879
2024-12-07 20:21:09.609958700,2.027958740234375,0.0573684671188704,0.0472936660945415,-0.2560632577806711
2024-12-07 20:21:09.619972400,2.037972412109375,0.1203460062911734,-0.0654594373822212,-0.2284405068397521
2024-12-07 20:21:09.629986600,2.047986572265625,0.1721066069330088,-0.0660386985749006,-0.2180861399553716
2024-12-07 20:21:09.639999700,2.057999755859375,0.1645311849763616,-0.0007639701098203,-0.2161491805434227
2024-12-07 20:21:09.650013400,2.068013427734375,0.0892307735919952,0.0091781627118587,-0.2325584635525941
2024-12-07 20:21:09.660027400,2.07802734375,0.0997603143801912,-0.0587111321657896,-0.1807167787648737
2024-12-07 20:21:09.670040600,2.08804052734375,0.169256459932588,-0.1254214463919401,-0.1457328514061868
2024-12-07 20:21:09.680054800,2.0980546875,0.2314940491914749,-0.1059001688420772,-0.1219756898522377
2024-12-07 20:21:09.690068500,2.108068359375,0.1987082163989544,-0.0864583862692117,-0.0701132545374333
2024-12-07 20:21:09.700082400,2.11808251953125,0.0932195144345983,-0.0755763422489166,-0.0125920628085732
2024-12-07 20:21:09.710095600,2.128095703125,0.0383060575187206,-0.0241202957779169,0.0659882835619151
2024-12-07 20:21:09.720109600,2.138109619140625,0.0038519992530345,0.0147422265797853,0.130496265438199
2024-12-07 20:21:09.730123500,2.14812353515625,-0.100874449634552,-0.0382394220232963,0.1290044194452464
2024-12-07 20:21:09.740137500,2.158137451171875,-0.2509212369834073,-0.0883510681480169,0.1162285245023667
2024-12-07 20:21:09.750150400,2.168150390625,-0.2178290599217638,-0.1034802482187747,0.1142597086474299
2024-12-07 20:21:09.760164600,2.17816455078125,-0.0884171191215515,-0.1187456218898296,0.1256403498396277
2024-12-07 20:21:09.770178600,2.188178466796875,-0.0453647803911939,-0.1189122106283903,0.1134011921219527
2024-12-07 20:21:09.780192500,2.198192626953125,-0.0219534366002306,-0.0847398919135332,0.1148768176324665
2024-12-07 20:21:09.790205400,2.208205322265625,0.0682055577525869,-0.0374666840851306,0.1154364973418414
2024-12-07 20:21:09.800219600,2.2182197265625,0.1042938844229094,-0.0412117158323526,0.0956572995081543
2024-12-07 20:21:09.810233600,2.228233642578125,0.0859831699728965,-0.0862988117933273,0.0108792675413191
2024-12-07 20:21:09.820247600,2.23824755859375,-0.002083254281152,-0.1207294891834259,-0.0740780665151774
2024-12-07 20:21:09.830260500,2.248260498046875,-0.0895885009884834,-0.0681780486911535,-0.0487257447242736
2024-12-07 20:21:09.840274700,2.258274658203125,-0.1822246991097927,-0.0121060328572988,-0.0116050975978374
2024-12-07 20:21:09.850288600,2.26828857421875,-0.2271077969312667,-0.0406406379461288,0.032108810313791
2024-12-07 20:21:09.860302300,2.27830224609375,-0.2208896530687809,-0.0378548066198825,0.0421245928935706
2024-12-07 20:21:09.870315500,2.2883154296875,-0.1802992840051651,-0.0216740716695785,-0.0061048927463591
2024-12-07 20:21:09.880329700,2.298329833984375,-0.0964133420398458,0.0226905552357435,-0.0832991915859282
2024-12-07 20:21:09.890343700,2.30834375,-0.1033703215708956,-0.0253466227024793,-0.1744309764936566
2024-12-07 20:21:09.900357400,2.318357421875,-0.1753261717677116,-0.1118242981940507,-0.2510999362848699
2024-12-07 20:21:09.910370600,2.32837060546875,-0.2064496243059635,-0.1122176814258098,-0.2521212421566248
2024-12-07 20:21:09.920384800,2.338384765625,-0.162523973339796,-0.0769113902449607,-0.2422080431684851
2024-12-07 20:21:09.930398500,2.3483984375,-0.0881038153886795,-0.0307815072327852,-0.2016654587693512
2024-12-07 20:21:09.940412400,2.358412353515625,-0.025776246291399,0.0038140053302049,-0.1650635748200118
2024-12-07 20:21:09.950425600,2.368425537109375,-0.0263280532215721,0.0560439587831497,-0.1412780639544129
2024-12-07 20:21:09.960439600,2.378439453125,-0.0875088086375966,0.087200144547224,-0.1690700339823961
2024-12-07 20:21:09.970453500,2.38845361328125,-0.1809200645183213,0.0434270537942647,-0.1927780956976115
2024-12-07 20:21:09.980466700,2.398466796875,-0.2479424951672554,-0.0469949754089117,-0.2298122335843741
2024-12-07 20:21:09.990480600,2.408480712890625,-0.2909060596356168,-0.0446323379307985,-0.2547320091769099
2024-12-07 20:21:10.000494600,2.41849462890625,-0.276888019144535,0.0213806416809558,-0.2136944808676838
2024-12-07 20:21:10.010508500,2.428508544921875,-0.2255763495802879,0.0929267055004835,-0.1743297080762684
2024-12-07 20:21:10.020521700,2.438521728515625,-0.1218073110153898,0.1002992800951003,-0.1608683150872588
2024-12-07 20:21:10.030535400,2.448535400390625,-0.0478805260717868,0.0352490080356597,-0.182807759694755
2024-12-07 20:21:10.040549600,2.458549560546875,-0.0636567718744278,-0.0729629448801279,-0.1774675677105784
2024-12-07 20:21:10.050563600,2.4685634765625,-0.1274468512723222,-0.1554115109860896,-0.1135154661513865
2024-12-07 20:21:10.060576500,2.478576416015625,-0.0976946505546569,-0.1504196940481662,0.0213680744603276
2024-12-07 20:21:10.070590500,2.488590576171875,0.0410626627504825,-0.0410451270937919,0.1554689402617514
2024-12-07 20:21:10.080604700,2.498604736328125,0.1285609499940648,0.0848100345402955,0.1977589528501033
2024-12-07 20:21:10.090618600,2.50861865234375,0.1306277463307604,0.067225862532854,0.1415874221645295
2024-12-07 20:21:10.100631600,2.518631591796875,0.0528010313391685,-0.1229734687179326,0.0164256496220827
2024-12-07 20:21:10.110645500,2.5286455078125,-0.0361269233813509,-0.3128583271920681,-0.1411718271009624
2024-12-07 20:21:10.120659700,2.53865966796875,-0.1369896460454911,-0.3366378467082977,-0.1752509145744144
2024-12-07 20:21:10.130673000,2.5486728515625,-0.2178665058553218,-0.2134130335777997,-0.0669112436257302
2024-12-07 20:21:10.140686000,2.55868603515625,-0.2611608366480097,-0.0120773912847042,0.0435952499680221
2024-12-07 20:21:10.150699800,2.56869970703125,-0.2025485252141952,0.1152753154307603,0.1392360367327928
2024-12-07 20:21:10.160714000,2.5787138671875,-0.1056160546710714,0.1005500399857759,0.1106222289279103
2024-12-07 20:21:10.170728000,2.58872802734375,-0.0820691748669371,-0.0236731365323066,0.0376985931448638
2024-12-07 20:21:10.180740900,2.598740966796875,-0.0369861705591902,-0.2080909617722034,-0.0144844524264335
2024-12-07 20:21:10.190754800,2.6087548828125,-0.0141512384166941,-0.2999976765751838,-0.1141127013921737
2024-12-07 20:21:10.200769000,2.61876904296875,-0.0251274269938468,-0.2309247248709201,-0.2182956910528242
2024-12-07 20:21:10.210783000,2.628782958984375,-0.1151414599180221,-0.0371107102543115,-0.2869353659063577
2024-12-07 20:21:10.220796000,2.6387958984375,-0.2466366732656955,0.2218798331499099,-0.3252789789564907
2024-12-07 20:21:10.230809900,2.648809814453125,-0.4133504629781469,0.3419610875576734,-0.4450580355472862
2024-12-07 20:21:10.240824000,2.658823974609375,-0.4658733349630609,0.2633586754858493,-0.5542524236291647
2024-12-07 20:21:10.250838000,2.668838134765625,-0.378864913595654,0.1715501603603363,-0.5744809726655483
2024-12-07 20:21:10.260851000,2.678850830078125,-0.196651904923655,0.0777227066278457,-0.5937167112722993
2024-12-07 20:21:10.270865000,2.688864990234375,-0.0497779206583276,0.0084416651308536,-0.688027710738033
2024-12-07 20:21:10.280879000,2.698879150390625,-0.0233142400920391,-0.0677881725907325,-0.7434282570511103
2024-12-07 20:21:10.290891800,2.708891845703125,0.0046866599788889,-0.0981423943221569,-0.6109643448017538
2024-12-07 20:21:10.300906000,2.718906005859375,0.0042179099559783,-0.0644593204289674,-0.4218054625146091
2024-12-07 20:21:10.310920000,2.728919921875,-0.0252665797362104,-0.0359340676903724,-0.3181460583366453
2024-12-07 20:21:10.320934000,2.738933837890625,-0.0342997810194268,-0.0290244344323873,-0.2273340069025755
2024-12-07 20:21:10.330946800,2.74894677734375,-0.0578513004660606,-0.0733744482904672,-0.0934007527530193
2024-12-07 20:21:10.340961000,2.7589609375,-0.1766215088078752,-0.1155833584666252,0.0472894283108413
2024-12-07 20:21:10.350975000,2.76897509765625,-0.2331026534318923,-0.0614969634920358,0.2936901008635759
2024-12-07 20:21:10.360989000,2.778989013671875,-0.1552501829445362,-0.0283119022488594,0.5890672780312597
2024-12-07 20:21:10.371001900,2.789001953125,0.0233890588939189,-0.1000958664774894,0.746127286876738
2024-12-07 20:21:10.381016000,2.79901611328125,0.2415805223872885,-0.2633101601690054,0.7646190752483903
2024-12-07 20:21:10.391029800,2.80902978515625,0.2575051636846736,-0.4274491674900054,0.7001007181085646
2024-12-07 20:21:10.401044000,2.8190439453125,0.0780487967770546,-0.4376110805422067,0.7447963305339217
2024-12-07 20:21:10.411057000,2.829056884765625,-0.1967138277113437,-0.3500321658104658,0.870198779964447
2024-12-07 20:21:10.421070800,2.83907080078125,-0.4254628890436142,-0.119599023848772,0.7394802500776946
2024-12-07 20:21:10.431084800,2.849084716796875,-0.5052420167446137,-0.0973527052491903,0.4123027440235018
2024-12-07 20:21:10.441099000,2.85909912109375,-0.4048409567754715,-0.0527308887124061,0.3533561956666409
2024-12-07 20:21:10.451112000,2.86911181640625,-0.2481038232088089,-0.0350473479837179,0.2898496459178626
2024-12-07 20:21:10.461126000,2.8791259765625,-0.2229260542672127,-0.3178834618777036,0.0300119841650128
2024-12-07 20:21:10.471139800,2.889139892578125,-0.0886333191554993,-0.4317039023250341,0.3735229315131902
2024-12-07 20:21:10.481154000,2.899154052734375,0.1164472818195819,-0.3182698308467865,0.5929464575521648
2024-12-07 20:21:10.491166700,2.909166748046875,0.2744774143388495,-0.2417798808842897,0.7688518905125558
2024-12-07 20:21:10.501181000,2.919180908203125,0.3779822490096092,-0.2596352710485458,1.0206368864521385
2024-12-07 20:21:10.511195000,2.92919482421875,0.3820961140692234,-0.3672831603407859,1.0814606268577276
2024-12-07 20:21:10.521209000,2.939208984375,0.3749509915549308,-0.3748305069804191,1.1086286197684705
2024-12-07 20:21:10.531221800,2.9492216796875,0.2696505421716719,-0.3025409313172101,0.94190266469419
2024-12-07 20:21:10.541236000,2.959236083984375,0.1537386824030429,-0.2183469828486442,0.7149960894234478
2024-12-07 20:21:10.551250000,2.96925,0.0191278943181037,-0.1560714361995458,0.4777779634967446
2024-12-07 20:21:10.561264000,2.97926416015625,-0.1282312431156635,-0.1455745921045541,0.275836172004044
2024-12-07 20:21:10.571276800,2.98927685546875,-0.2195534360289573,-0.1416992119759321,0.1234065994381904
2024-12-07 20:21:10.581291000,2.999291015625,-0.2609493493217975,-0.0997089129865169,0.0241390004783868
2024-12-07 20:21:10.591305000,3.009304931640625,-0.3212110719304532,-0.0679512541979551,-0.0186532625436782
2024-12-07 20:21:10.601319000,3.01931884765625,-0.3843429431479424,0.0378816946268081,0.0539509320266544
2024-12-07 20:21:10.611331800,3.029331787109375,-0.3786322373509407,0.0865910727381706,0.2365615617141127
2024-12-07 20:21:10.621346000,3.039345947265625,-0.265180118759349,0.0578290886342525,0.4421823339805006
2024-12-07 20:21:10.631359700,3.04935986328125,-0.0749042151410132,-0.0234685538709163,0.5370457066319883
2024-12-07 20:21:10.641373000,3.059373046875,0.0975017583310604,-0.1363824008673429,0.5408068127311766
2024-12-07 20:21:10.651387000,3.069386962890625,0.2309925294101238,-0.2509112818449736,0.477610351844877
2024-12-07 20:21:10.661401000,3.079401123046875,0.3645908525168895,-0.3299421484619378,0.3363470470681786
2024-12-07 20:21:10.671414800,3.089414794921875,0.4473147284328937,-0.3294505655527114,0.1385698279090225
2024-12-07 20:21:10.681428000,3.099427978515625,0.3868598944049328,-0.2695487622976303,-0.0368486983172595
2024-12-07 20:21:10.691442000,3.10944189453125,0.2762625076573342,-0.1821469576984644,-0.1234236967034637
2024-12-07 20:21:10.701456000,3.119455810546875,0.1530371100049465,-0.0795025757819414,-0.1122667812645435
2024-12-07 20:21:10.711469800,3.1294697265625,0.0327262115597724,0.0008048866420984,0.0192665721364319
2024-12-07 20:21:10.721483000,3.13948291015625,-0.0195732999980449,-0.0474947416245937,0.1968845081031322
2024-12-07 20:21:10.731496700,3.14949658203125,-0.0221218885023146,-0.1594400358498096,0.3521827679730951
2024-12-07 20:21:10.741511000,3.159510986328125,-0.058669704176858,-0.2146831996440887,0.4272717650964855
2024-12-07 20:21:10.751524900,3.16952490234375,-0.2364917844135314,-0.1924807201862335,0.4319957248784601
2024-12-07 20:21:10.761538000,3.1795380859375,-0.4287234982747584,-0.1057932013362646,0.3474507710151374
2024-12-07 20:21:10.771551700,3.1895517578125,-0.5112346082229167,-0.0237818576037883,0.2609359783835709
2024-12-07 20:21:10.781566000,3.19956591796875,-0.4517302067875862,-0.079969608771801,0.1161577973537147
2024-12-07 20:21:10.791580000,3.209579833984375,-0.3364625632066279,-0.1399842247515916,0.0245556184552609
2024-12-07 20:21:10.801592800,3.2195927734375,-0.2907962060529738,-0.2352940259963274,0.0404853012539446
2024-12-07 20:21:10.811606800,3.229606689453125,-0.23458032476902,-0.3261351573944092,0.197389388885349
2024-12-07 20:21:10.821621000,3.23962109375,-0.0637456192016601,-0.3716951315641403,0.397237715230137
2024-12-07 20:21:10.831635000,3.249635009765625,0.2046984697896987,-0.4192553396403789,0.5194818467602134
2024-12-07 20:21:10.841647900,3.25964794921875,0.4008873237788677,-0.4773685059130191,0.5524105951547622
2024-12-07 20:21:10.851661800,3.269661865234375,0.5015032686077058,-0.4465256238818168,0.5384530892118812
2024-12-07 20:21:10.861676000,3.279676025390625,0.5065537569303066,-0.3181897513478994,0.4876023151576519
2024-12-07 20:21:10.871690000,3.28968994140625,0.4357341807544231,-0.2254582761585712,0.448912519018352
2024-12-07 20:21:10.881703000,3.299702880859375,0.2992356061615049,-0.1725292345255613,0.4226955432221293
2024-12-07 20:21:10.891716900,3.309716796875,0.1959739691294729,-0.1278700085878372,0.3643644964151084
2024-12-07 20:21:10.901731000,3.31973095703125,0.1064825718399137,-0.1417056417167186,0.3165430070541798
2024-12-07 20:21:10.911744800,3.329744873046875,-0.0006839636761695,-0.226303494811058,0.2836028604827821
2024-12-07 20:21:10.921758000,3.339758056640625,-0.1217453882277011,-0.2606634450525045,0.3303768866173923
2024-12-07 20:21:10.931772000,3.34977197265625,-0.1833820524513721,-0.3108750444203615,0.3456653489030897
2024-12-07 20:21:10.941785900,3.359785888671875,-0.2758860024951398,-0.3302069368779659,0.3270842748127877
2024-12-07 20:21:10.951799800,3.3697998046875,-0.3916634222291409,-0.2036351514071226,0.4023262705408036
2024-12-07 20:21:10.961813000,3.37981298828125,-0.4658405652046203,-0.0515413866668939,0.5451080170564353
2024-12-07 20:21:10.971827000,3.389826904296875,-0.5347136834878474,0.0276180747658014,0.6881324862867594
2024-12-07 20:21:10.981841000,3.3998408203125,-0.5155952145852148,0.0541080222845077,0.8297805525973438
2024-12-07 20:21:10.991854000,3.40985400390625,-0.4985119047719984,-0.0443657959491014,0.933492709875852
2024-12-07 20:21:11.001868000,3.419867919921875,-0.4696447067279368,-0.1864753422915935,1.0454847658522426
2024-12-07 20:21:11.011881700,3.4298818359375,-0.4681950193762779,-0.3042150020092725,1.233848406108469
2024-12-07 20:21:11.021896000,3.43989599609375,-0.5371592500090598,-0.2105687500625848,1.4900078177399934
2024-12-07 20:21:11.031908900,3.449908935546875,-0.5388039484761655,-0.0340337870270013,1.6450785524643956
2024-12-07 20:21:11.041923000,3.459923095703125,-0.4850152943391352,0.0818769036978483,1.724149604961276
2024-12-07 20:21:11.051936800,3.469936767578125,-0.3546305995166302,0.1806178484350442,1.8612202803537248
2024-12-07 20:21:11.061951000,3.479950927734375,-0.0819474847160279,0.3328577436476945,1.979524588216841
2024-12-07 20:21:11.071964000,3.4899638671875,0.2991851180832833,0.5213777435094118,1.9877561177283525
2024-12-07 20:21:11.081977900,3.499977783203125,0.7725039832793176,0.6641548138499259,1.8457493011079729
2024-12-07 20:21:11.091991800,3.50999169921875,1.139870145728439,0.7369096689373255,1.5904517670027911
2024-12-07 20:21:11.102006000,3.520006103515625,1.1860356845758857,0.7899240507662296,1.2465129496313632
2024-12-07 20:21:11.112019000,3.53001904296875,0.9477904806237668,0.9773755446135998,0.8494771867141128
2024-12-07 20:21:11.122033000,3.540032958984375,0.4291045334815979,1.3713187483429907,0.4425577431641518
2024-12-07 20:21:11.132047600,3.550047607421875,-0.306204129999876,1.7849632623642682,0.0578982083477079
2024-12-07 20:21:11.142061800,3.560061767578125,-1.266810910642147,1.9951655172020195,-0.2897095798600465
2024-12-07 20:21:11.152074500,3.570074462890625,-2.2081679241523147,1.8556185148239133,-0.6684517073262483
2024-12-07 20:21:11.162088700,3.580088623046875,-2.5691081452071667,1.383960787773132,-0.8457071666561067
2024-12-07 20:21:11.172102700,3.5901025390625,-2.2011128910742697,0.8713701618313788,-0.5827440663591027
2024-12-07 20:21:11.182116900,3.600116943359375,-1.442567290520668,0.3868172973722219,-0.0293964826151728
2024-12-07 20:21:11.192129500,3.610129638671875,-0.6705330436449497,-0.0278700037002563,0.5325787172857671
2024-12-07 20:21:11.202143700,3.620143798828125,-0.0641558805029839,-0.3227408387809992,1.0510922304704784
2024-12-07 20:21:11.212157700,3.63015771484375,0.2680500481724739,-0.5297323148787021,1.48886230096668
2024-12-07 20:21:11.222172000,3.640171875,0.3381553385991603,-0.6407897203534841,1.7660273834869264
2024-12-07 20:21:11.232184600,3.6501845703125,0.1464799799790606,-0.6266401989698409,1.7819884843371807
2024-12-07 20:21:11.242198800,3.66019873046875,-0.1099754554569721,-0.447743182978034,1.5594631928905844
2024-12-07 20:21:11.252212700,3.670212646484375,-0.4130325926680117,-0.1726812102168798,1.1768394016854464
2024-12-07 20:21:11.262225700,3.6802255859375,-0.7213374212741851,0.0955956324487924,0.7990288559809327
2024-12-07 20:21:11.272239600,3.690239501953125,-1.0014251132428649,0.354725876584649,0.5242613361217081
2024-12-07 20:21:11.282253800,3.70025390625,-1.127375551944971,0.5708084216326474,0.3767149324875324
2024-12-07 20:21:11.292267500,3.710267578125,-1.062389577293396,0.7025187390357256,0.2392749853912741
2024-12-07 20:21:11.302280700,3.72028076171875,-0.8137900795221328,0.7063707382887602,0.0793216662570834
2024-12-07 20:21:11.312294700,3.730294677734375,-0.5301847348213196,0.5431126054555178,-0.1030810197681188
2024-12-07 20:21:11.322308900,3.740308837890625,-0.2999263649046421,0.2415717910915613,-0.297239025516808
2024-12-07 20:21:11.332322600,3.750322509765625,-0.1146259116113185,-0.0615542466372251,-0.3361925871588289
2024-12-07 20:21:11.342335700,3.760335693359375,0.0635977351635694,-0.3507587265193462,-0.3045418228108436
2024-12-07 20:21:11.352349700,3.770349609375,0.2365507845917716,-0.5958557691276073,-0.2704103475630283
2024-12-07 20:21:11.362363600,3.78036376953125,0.2612058813661336,-0.7615536963284015,-0.1748977172225713
2024-12-07 20:21:11.372377600,3.790377685546875,0.1180021465787664,-0.8324000874459743,-0.0122756903357803
2024-12-07 20:21:11.382390800,3.800390869140625,-0.2172305095067247,-0.7080109067112207,0.1618735466070473
2024-12-07 20:21:11.392404700,3.81040478515625,-0.528408372798562,-0.3734983815938234,0.1875213442131877
2024-12-07 20:21:11.402418700,3.820418701171875,-0.329863895593956,0.1226169103652238,0.0526280128598213
2024-12-07 20:21:11.412432600,3.8304326171875,0.4770020106881856,0.700828301730752,-0.2510087508700788
2024-12-07 20:21:11.422445800,3.84044580078125,1.326314069968462,1.2937468483626842,-0.365545815154165
2024-12-07 20:21:11.432459500,3.85045947265625,1.5514111115992069,1.4554647660166025,-0.2668317584238946
2024-12-07 20:21:11.442473700,3.8604736328125,1.1889648698955773,1.1305524284154176,-0.0904343041628599
2024-12-07 20:21:11.452487700,3.87048779296875,0.6280886442124843,0.7244435705959796,0.1886154230602085
2024-12-07 20:21:11.462500600,3.88050048828125,0.024668613843061,0.2293003385394811,0.2978165331438183
2024-12-07 20:21:11.472514600,3.8905146484375,-0.3972516706902533,-0.2261404132038354,0.2397548047974705
2024-12-07 20:21:11.482528800,3.90052880859375,-0.3910363398393616,-0.5296493127703666,0.0103914840243756
2024-12-07 20:21:11.492542700,3.910542724609375,-0.0066494844844564,-0.6427437770307064,-0.3165473909683525
2024-12-07 20:21:11.502555600,3.9205556640625,0.3386779011685401,-0.5668669905304908,-0.6527922928363085
2024-12-07 20:21:11.512569600,3.930569580078125,0.5273522148091345,-0.3539548922121525,-0.868566794848442
2024-12-07 20:21:11.522583800,3.940583740234375,0.4946060564398765,-0.1313537590503692,-0.937238180014491
2024-12-07 20:21:11.532597800,3.95059765625,0.4657680844902992,-0.0483645101964473,-0.8420169338360428
2024-12-07 20:21:11.542610700,3.960610595703125,0.5167196885704994,-0.1951426328718662,-0.7051537637144327
2024-12-07 20:21:11.552624600,3.970624755859375,0.5609107124745846,-0.4734738365620374,-0.5860276180744171
2024-12-07 20:21:11.562638800,3.980638916015625,0.5769902520727366,-0.7548147434622049,-0.545230620522797
2024-12-07 20:21:11.572652500,3.990652587890625,0.5392805530119688,-1.0108271478384732,-0.5769435633867979
2024-12-07 20:21:11.582665700,4.000665771484375,0.5789140597421676,-1.2222487153381107,-0.5989347381815314
2024-12-07 20:21:11.592679700,4.0106796875,0.5408925182532519,-1.3372358614772557,-0.7119871168658137
2024-12-07 20:21:11.602694000,4.02069384765625,0.4595977983575314,-1.3581453785151243,-0.901187500207126
2024-12-07 20:21:11.612706600,4.03070654296875,0.4159090248871594,-1.295655312332511,-1.1100567528754473
2024-12-07 20:21:11.622720800,4.040720703125,0.3338017464995384,-1.2304092254400252,-1.329622756125033
2024-12-07 20:21:11.632734700,4.050734619140625,0.2192436394274234,-1.1645441298663617,-1.487014335012436
2024-12-07 20:21:11.642748700,4.060748779296875,0.0862649825889617,-1.137612868320942,-1.5911963017597794
2024-12-07 20:21:11.652761600,4.07076171875,-0.0897889189314097,-1.1373042407631873,-1.5771911572828887
2024-12-07 20:21:11.662775800,4.08077587890625,-0.2634462807040661,-1.169716564068198,-1.4848063035741448
2024-12-07 20:21:11.672789500,4.09078955078125,-0.1658971760999411,-1.4081909736663103,-1.3350968036219475
2024-12-07 20:21:11.682803700,4.1008037109375,-0.1790735416024923,-1.6919962248533964,-1.1764786055490375
2024-12-07 20:21:11.692816600,4.110816650390625,-0.6125356857717037,-1.8181483236074447,-0.9474518232539296
2024-12-07 20:21:11.702830800,4.120830810546875,-1.1984891426313669,-1.74275435218811,-0.5208350149348377
2024-12-07 20:21:11.712844500,4.130844482421875,-1.71774499861598,-1.5000591100245713,0.1453805308371782
2024-12-07 20:21:11.722858800,4.140858642578125,-1.7671254078567027,-1.127011979329586,1.0352531485646963
2024-12-07 20:21:11.732871700,4.15087158203125,-1.3609838168114423,-0.6595195552647113,2.026369341500103
2024-12-07 20:21:11.742885600,4.1608857421875,-1.036733669446036,-0.2888327239602804,2.790935371387005
2024-12-07 20:21:11.752899600,4.170899658203125,-0.9348316303294152,-0.0371767612278461,3.251942817346752
2024-12-07 20:21:11.762913800,4.180913818359375,-0.989418960563466,0.1581967577904462,3.2964868924722075
2024-12-07 20:21:11.772926500,4.190926513671875,-1.1876333290308714,0.2753612479686737,3.03725523378849
2024-12-07 20:21:11.782940700,4.200940673828125,-0.945018677822873,0.2660451380908489,2.562913674481213
2024-12-07 20:21:11.792954600,4.21095458984375,-0.5592231977790594,0.0351221667855978,1.84789493483454
2024-12-07 20:21:11.802968800,4.22096875,-0.8039560101848096,-0.3228220873236656,1.1386910189464687
2024-12-07 20:21:11.812981500,4.2309814453125,-1.147985720710084,-0.5836626425087451,0.5082943900525569
2024-12-07 20:21:11.822995700,4.24099560546875,-1.1881073762834071,-0.686353786176443,0.0821449069842696
2024-12-07 20:21:11.833009700,4.251009765625,-0.9497381806254388,-0.8252648287385702,-0.1328518886536359
2024-12-07 20:21:11.843024000,4.26102392578125,-0.8201356491565703,-1.020376481950283,-0.4446595377489924
2024-12-07 20:21:11.853036500,4.27103662109375,-0.8826034304421394,-0.9732891520828008,-0.9194137695103884
2024-12-07 20:21:11.863050800,4.28105078125,-1.0621364062499254,0.0206190096586942,-1.5956211324647067
2024-12-07 20:21:11.873064700,4.291064697265625,-1.4818547602921723,2.4169687877595423,-2.2242253249838946
2024-12-07 20:21:11.883077600,4.30107763671875,-1.5163801302284,5.16949873290658,-2.408389759984612
2024-12-07 20:21:11.893091600,4.311091552734375,-0.6109212363123894,6.890546280199289,-2.174562007148564
2024-12-07 20:21:11.903105800,4.321105712890625,0.8873095623064786,6.971102748948336,-1.5894070802554487
2024-12-07 20:21:11.913119700,4.33111962890625,1.4081611630499362,5.248907200664282,-1.033513319160044
2024-12-07 20:21:11.923132700,4.341132568359375,1.0654606553018091,1.663766155669093,-0.4570768285125494
2024-12-07 20:21:11.933146600,4.351146728515625,1.3312275609731674,-1.145421496245265,-1.3039239589840173
2024-12-07 20:21:11.943160800,4.361160888671875,1.4094494492948055,-2.309281150978804,-3.2902979747042056
2024-12-07 20:21:11.953174500,4.371174560546875,0.6121692636121064,-2.5239362935721874,-4.255561348980665
2024-12-07 20:21:11.963187700,4.381187744140625,0.0547789803486317,-2.552097973695397,-4.43786525080651
2024-12-07 20:21:11.973201700,4.39120166015625,0.2369142476093023,-2.377559737434983,-4.234005350732804
2024-12-07 20:21:11.983215600,4.401215576171875,1.0576765042316167,-1.7034955239892005,-3.5395527215138074
2024-12-07 20:21:11.993229600,4.4112294921875,1.7261223663389682,-0.6514408782273531,-2.4912334628880024
2024-12-07 20:21:12.003242800,4.42124267578125,1.847683630171418,0.410150242164731,-1.3911539141476152
2024-12-07 20:21:12.013256700,4.431256591796875,1.5338234324604272,1.1209458111584183,-0.3559565874233841
2024-12-07 20:21:12.023270700,4.441270751953125,1.0693787055283783,1.3893857354313135,0.3934218102037906
2024-12-07 20:21:12.033284600,4.45128466796875,0.5943827739655971,1.1096575244247913,0.6934753086194395
2024-12-07 20:21:12.043297800,4.4612978515625,0.2899439000725746,0.4183054915696382,0.6159665370032191
2024-12-07 20:21:12.053311500,4.4713115234375,0.0794955432529561,-0.2146317617177963,0.2750730786770582
2024-12-07 20:21:12.063325700,4.48132568359375,-0.149689041686058,-0.5132248321920633,-0.0485457119822502
2024-12-07 20:21:12.073339600,4.491339599609375,-0.2648690800487995,-0.3971282635062932,-0.3116448597490787
2024-12-07 20:21:12.083352600,4.5013525390625,-0.2706143457025289,-0.0540337880045175,-0.5075383109882473
2024-12-07 20:21:12.093366500,4.511366455078125,-0.1655021123677492,0.1266062722623348,-0.6941790729746222
2024-12-07 20:21:12.103380700,4.521380615234375,0.0286392413569497,0.1489572202801704,-0.7861994772851467
2024-12-07 20:21:12.113394700,4.531394775390625,0.3608323767662048,0.0671527972966432,-0.7770160538762807
2024-12-07 20:21:12.123407600,4.54140771484375,0.7540753232717513,-0.0851759452432394,-0.6661144234851002
2024-12-07 20:21:12.133421600,4.551421630859375,1.044921725142002,-0.2271317623287439,-0.50795302926898
2024-12-07 20:21:12.143435800,4.561435791015625,1.2984148401737212,-0.3215799783080816,-0.3592548983164131
2024-12-07 20:21:12.153448700,4.57144873046875,1.6362018569171428,-0.3424059087157249,-0.2581482473611831
2024-12-07 20:21:12.163462700,4.581462646484375,1.890851156246662,-0.2385965746730566,-0.1705158488765358
2024-12-07 20:21:12.173476600,4.5914765625,1.9320926826953888,-0.0149169986248016,0.0477637678243219
2024-12-07 20:21:12.183490800,4.60149072265625,1.7058534852921965,0.2410790391385555,0.2480731358096003
2024-12-07 20:21:12.193503700,4.611503662109375,1.3296481828272342,0.3487567390471696,0.4017613301344215
2024-12-07 20:21:12.203517700,4.621517578125,0.8914180936038494,0.355311567518115,0.4180892184704542
2024-12-07 20:21:12.213531600,4.63153173828125,0.4498643763830885,0.3463070078074932,0.283661751063168
2024-12-07 20:21:12.223545900,4.6415458984375,-0.0413549236953258,0.2526443892478943,-0.1224498832352459
2024-12-07 20:21:12.233558500,4.65155859375,-0.4949192871075123,0.0614601386129856,-0.6184646374292672
2024-12-07 20:21:12.243572700,4.66157275390625,-0.7403494341276585,-0.1161930147975683,-0.9498733513124288
2024-12-07 20:21:12.253586700,4.671586669921875,-0.5833236928779632,-0.1779670416653156,-0.9768005212046206
2024-12-07 20:21:12.263600600,4.6816005859375,-0.1512181509494781,-0.2101157455980777,-0.8518361709304153
2024-12-07 20:21:12.273613600,4.691613525390625,0.2659586288511752,-0.1321136375069618,-0.6088482294306159
2024-12-07 20:21:12.283627800,4.701627685546875,0.2887291905205696,-0.0970446622133255,-0.3232227770790457
2024-12-07 20:21:12.293641500,4.711641357421875,0.202366154384613,-0.1227197862178087,0.0449058941751718
2024-12-07 20:21:12.303655700,4.72165576171875,0.2049345435678958,-0.2199152550786733,0.3947944137312472
2024-12-07 20:21:12.313668600,4.731668701171875,0.2856616196434944,-0.3465969306647777,0.6008021394886076
2024-12-07 20:21:12.323682800,4.741682861328125,0.4222339901249855,-0.4286696491956711,0.7308439391575753
2024-12-07 20:21:12.333696500,4.751696533203125,0.5906968519944698,-0.4351718706965446,0.8169852223016321
2024-12-07 20:21:12.343710700,4.761710693359375,0.7631096935987473,-0.4213660481840371,0.858023042871803
2024-12-07 20:21:12.353723600,4.7717236328125,0.8774877679288386,-0.3496820371985435,0.8929980562716722
2024-12-07 20:21:12.363737600,4.781737548828125,0.9041595017552376,-0.2610322783648968,0.8523135791838169
2024-12-07 20:21:12.373751600,4.79175146484375,0.7599895157516002,-0.2422749709248542,0.7793122019894421
2024-12-07 20:21:12.383765800,4.801765869140625,0.4932803607940673,-0.2307955455332994,0.6524930176287889
2024-12-07 20:21:12.393778700,4.81177880859375,0.107478377944231,-0.1712163983613252,0.5657768572062254
2024-12-07 20:21:12.403792600,4.821792724609375,-0.324223770815134,-0.0982902783602476,0.3960816770628094
2024-12-07 20:21:12.413806600,4.831806640625,-0.6704210346378385,-0.0064513680964708,0.1770649782590568
2024-12-07 20:21:12.423820800,4.84182080078125,-0.9144296974875032,0.1342301912695169,0.0418441685169935
2024-12-07 20:21:12.433833500,4.85183349609375,-0.9674364074666052,0.2729039179444313,-0.0424222606658935
2024-12-07 20:21:12.443847700,4.86184765625,-0.775266652925685,0.3684457743793726,-0.0444835771098732
2024-12-07 20:21:12.453861600,4.871861572265625,-0.3915783012289553,0.3638344811916351,-0.0058121934100985
2024-12-07 20:21:12.463874600,4.88187451171875,0.0141851041536778,0.2816781760305166,-0.036525165451318
2024-12-07 20:21:12.473888500,4.891888427734375,0.3077986326497048,0.138497201064229,-0.2090109992265701
2024-12-07 20:21:12.483902700,4.90190283203125,0.4081646213054656,-0.0440600910007953,-0.4377916978061199
2024-12-07 20:21:12.493916700,4.911916748046875,0.3431657871723175,-0.2476473116129636,-0.6805035988435149
2024-12-07 20:21:12.503929600,4.9219296875,0.1985737763643264,-0.3882897080123424,-0.8700219620928168
2024-12-07 20:21:12.513943600,4.931943603515625,-0.0073053545773029,-0.3896685951501131,-0.8925973665162921
2024-12-07 20:21:12.523957800,4.941957763671875,-0.1955611505448818,-0.2512637485444545,-0.7463897372052073
2024-12-07 20:21:12.533971700,4.9519716796875,-0.3146387808680534,-0.1173749180585145,-0.4252367521375417
2024-12-07 20:21:12.543984600,4.961984619140625,-0.2764379372894763,-0.078570847889781,-0.0365282341912388
2024-12-07 20:21:12.553998600,4.97199853515625,-0.1130664072096347,-0.1363707104295492,0.2691987798161804
2024-12-07 20:21:12.564012800,4.9820126953125,0.1899555856227874,-0.1266173781782388,0.5075739668235183
2024-12-07 20:21:12.574026500,4.992026611328125,0.4905097270369529,-0.0570212793827056,0.5715634777836501
2024-12-07 20:21:12.584039700,5.002039794921875,0.5768890567205845,0.0779541772961616,0.5244153576396405
2024-12-07 20:21:12.594053600,5.0120537109375,0.4910102239049971,0.0818371562093496,0.3803174139589071
2024-12-07 20:21:12.604067600,5.022067626953125,0.2685457227349281,-0.0824339530587196,0.1436363175183534
2024-12-07 20:21:12.614081500,5.03208154296875,0.0155436060905456,-0.2610737794190645,-0.0874994197547435
2024-12-07 20:21:12.624094700,5.0420947265625,-0.23135858624354,-0.312366159760952,-0.2422893647763878
2024-12-07 20:21:12.634108700,5.052108642578125,-0.4062487046815454,-0.2168804174274206,-0.3019518063176423
2024-12-07 20:21:12.644122600,5.06212255859375,-0.4872600775912404,-0.0240519067168235,-0.3159449680957943
2024-12-07 20:21:12.654136600,5.072136474609375,-0.3961316536843776,0.132150462386012,-0.2662880800012498
2024-12-07 20:21:12.664149800,5.082149658203125,-0.2443465165019035,0.3100467769026756,-0.0293033975042402
2024-12-07 20:21:12.674163500,5.09216357421875,-0.1254711307525634,0.290483998298645,0.2543354110747575
2024-12-07 20:21:12.684177700,5.102177734375,-0.0564484479308128,0.0981266122311353,0.5607829213764518
2024-12-07 20:21:12.694191600,5.112191650390625,-0.0560742077909409,-0.1412818633466959,0.8904259407613426
2024-12-07 20:21:12.704204500,5.12220458984375,-0.1201087269365787,-0.4446650907069444,1.160991990342736
2024-12-07 20:21:12.714218500,5.132218505859375,-0.1456453192532062,-0.6164011290282011,1.432608206564188
2024-12-07 20:21:12.724232700,5.142232666015625,-0.0835023129425942,-0.4836205520451068,1.7703548912972211
2024-12-07 20:21:12.734246000,5.152245849609375,0.1281900343224406,-0.0284141935795545,2.058840263124555
2024-12-07 20:21:12.744259600,5.162259521484375,0.3993323494218289,0.6062123279690742,2.3012118262916803
2024-12-07 20:21:12.754273500,5.1722734375,0.581386660400778,1.1340198122650385,2.500458095090091
2024-12-07 20:21:12.764287700,5.182287841796875,0.6817230576358735,1.4839502712666988,2.710648367229104
2024-12-07 20:21:12.774300700,5.19230078125,0.6537832035697996,1.539922333857417,2.860811163906753
2024-12-07 20:21:12.784314600,5.202314697265625,0.5068447757661342,1.2504583262562752,2.814430228742957
2024-12-07 20:21:12.794328600,5.21232861328125,0.1494261529661714,0.8385147709339856,2.5258739836364983
2024-12-07 20:21:12.804342800,5.2223427734375,-0.3343390682466328,0.4793757540822029,2.024848707804084
2024-12-07 20:21:12.814355700,5.232355712890625,-0.8180433530524372,0.1907528734803199,1.3442137376658618
2024-12-07 20:21:12.824369700,5.24236962890625,-1.1674480346143246,0.0330967984378337,0.7003907870963215
2024-12-07 20:21:12.834383600,5.252383544921875,-1.3848001612067222,-0.0064724108844995,0.2379517374308779
2024-12-07 20:21:12.844397800,5.262397705078125,-1.6105181112147866,0.0069014499515295,-0.00068761693798
2024-12-07 20:21:12.854410800,5.27241064453125,-1.9415866333581504,-0.0348421808004379,0.0385529449518769
2024-12-07 20:21:12.864424700,5.2824248046875,-2.3163667253255844,-0.1683294447481632,0.390708971048519
2024-12-07 20:21:12.874438700,5.292438720703125,-2.4451243304029107,-0.2542500708788633,0.9687912561416624
2024-12-07 20:21:12.884452600,5.30245263671875,-2.1537226327374577,-0.3063543521255255,1.5585998540595174
2024-12-07 20:21:12.894465800,5.3124658203125,-1.5693990421019497,-0.3514595682650804,2.025057382118702
2024-12-07 20:21:12.904479700,5.322479736328125,-0.951854149866104,-0.4254997869879007,2.343153756094724
2024-12-07 20:21:12.914493400,5.332493408203125,-0.5013315653026104,-0.4653659334301948,2.4900620810210703
2024-12-07 20:21:12.924507600,5.342507568359375,-0.2689537190139293,-0.3067828066706657,2.555563603979349
2024-12-07 20:21:12.934520800,5.352520751953125,-0.2481321725204587,0.0555167200386524,2.511150169496238
2024-12-07 20:21:12.944534800,5.36253466796875,-0.5484383305229247,0.599183452245593,2.256419913884997
2024-12-07 20:21:12.954548500,5.372548583984375,-1.1417862084828316,1.0515075332731008,1.752324436827004
2024-12-07 20:21:12.964561700,5.382561767578125,-1.869106941950321,1.4128940367907286,1.069714440288767
2024-12-07 20:21:12.974575900,5.392575927734375,-2.3967208033703264,1.6784078444838524,0.457032697109878
2024-12-07 20:21:12.984589600,5.402589599609375,-2.5256349141836165,1.8565028964430093,-0.1195408639207482
2024-12-07 20:21:12.994603500,5.412603515625,-2.347987021470069,1.8677227941155432,-0.6466659189105034
2024-12-07 20:21:13.004616700,5.42261669921875,-2.053784294909238,1.7335148146778343,-1.0248942516356705
2024-12-07 20:21:13.014631000,5.432630859375,-1.5765022982358932,1.5222376240849491,-1.2385668129324912
2024-12-07 20:21:13.024644600,5.44264453125,-0.7423837164342403,1.2454606640994548,-1.35594319229573
2024-12-07 20:21:13.034658600,5.452658447265625,0.2859773345291614,0.9233639684408904,-1.472066064466536
2024-12-07 20:21:13.044671700,5.462671630859375,1.174551144617796,0.6438444317489862,-1.500104848862439
2024-12-07 20:21:13.054685700,5.472685791015625,1.8612077131330969,0.3981815719515085,-1.3555883875086905
2024-12-07 20:21:13.064699600,5.48269970703125,2.2569097432285545,0.2242863097697496,-1.1128225643269718
2024-12-07 20:21:13.074713600,5.492713623046875,2.066411721292138,0.330678646042943,-0.8055415988758206
2024-12-07 20:21:13.084726500,5.5027265625,1.642355703371763,0.5768652374535799,-0.4882020346164703
2024-12-07 20:21:13.094740700,5.51274072265625,1.096140455725789,0.8652519712120295,-0.2971229979217052
2024-12-07 20:21:13.104754700,5.522754638671875,0.61948039034307,1.068973047336936,0.1044115377195179
2024-12-07 20:21:13.114768600,5.5327685546875,0.5238888495475054,1.130337324360013,0.2182673417411744
2024-12-07 20:21:13.124781600,5.542781494140625,0.5607377670604735,1.2911515711724757,0.2427887656658887
2024-12-07 20:21:13.134795300,5.552795166015625,0.9873913271933792,1.3348060039818286,0.2342863102585077
2024-12-07 20:21:13.144809200,5.562809326171875,1.5371750809758902,1.3990274240016936,-0.1176803307458758
2024-12-07 20:21:13.154823400,5.572823486328125,1.922900491458177,1.440609142190218,-0.5721592517197132
2024-12-07 20:21:13.164836000,5.582836181640625,1.995377698647976,1.252215399056673,-1.0339096250012516
2024-12-07 20:21:13.174850300,5.592850341796875,1.880221625682712,0.6803881557703018,-1.2967378468722104
2024-12-07 20:21:13.184864300,5.6028642578125,1.796269669276476,-0.0369283394247293,-1.3723244182541965
2024-12-07 20:21:13.194878200,5.612878173828125,1.9055933828264475,-0.6927543008685112,-1.4408482116430996
2024-12-07 20:21:13.204891100,5.62289111328125,1.8751099817574024,-1.2030606152653691,-1.580644512607157
2024-12-07 20:21:13.214905300,5.6329052734375,1.6615584164917467,-1.4676742592483758,-1.9283891520023344
2024-12-07 20:21:13.224919300,5.642919189453125,1.3985422708332538,-1.3317214819699523,-2.376411151921749
2024-12-07 20:21:13.234932200,5.65293212890625,1.1702350349843502,-1.0252788670390844,-2.8268676855117083
2024-12-07 20:21:13.244946200,5.6629462890625,1.0519774888724087,-0.7001490872949362,-3.0588451343059537
2024-12-07 20:21:13.254960400,5.67296044921875,1.2255173617452382,-0.498874235278368,-3.008729981049896
2024-12-07 20:21:13.264974000,5.68297412109375,1.501713891494274,-0.4386936150819063,-2.799595939965546
2024-12-07 20:21:13.274987300,5.6929873046875,1.615477633318305,-0.6008043314456939,-2.5538766738057137
2024-12-07 20:21:13.285001200,5.703001220703125,1.613297366669774,-1.022743211081624,-2.21704476583004
2024-12-07 20:21:13.295015400,5.713015380859375,1.577109031957388,-1.499311506527662,-1.865992609322071
2024-12-07 20:21:13.305029000,5.723029052734375,1.3722855475485325,-1.876912062743306,-1.643316657358408
2024-12-07 20:21:13.315042300,5.733042236328125,1.1122457873523235,-2.031545575094223,-1.5327251158297062
2024-12-07 20:21:13.325056300,5.74305615234375,0.8000741272501647,-1.8886071767121555,-1.4114108124956488
2024-12-07 20:21:13.335070200,5.7530703125,0.5172762995399535,-1.4849427894353866,-1.23422381529212
2024-12-07 20:21:13.345084200,5.763084228515625,0.0865064631946384,-0.9472545471161604,-1.0458476078152656
2024-12-07 20:21:13.355097300,5.773097412109375,-0.4333795804522931,-0.4367553404957056,-0.8235144779399037
2024-12-07 20:21:13.365111000,5.783111083984375,-0.930438436871767,0.049890696850419,-0.5057289234787226
2024-12-07 20:21:13.375125200,5.793125244140625,-1.423549870839715,0.4778671030849218,-0.0884051364228129
2024-12-07 20:21:13.385139200,5.80313916015625,-1.70475063861683,0.8045230694830418,0.356426835283637
2024-12-07 20:21:13.395152400,5.81315234375,-1.602881186595559,0.9210755652427672,0.8715285672634839
2024-12-07 20:21:13.405166000,5.823166015625,-1.130648874527216,0.8755874872654676,1.3537684786051511
2024-12-07 20:21:13.415180300,5.83318017578125,-0.7565629023037851,0.5305266801267862,1.5694918349519371
2024-12-07 20:21:13.425194200,5.8431943359375,-0.5813701476573944,-0.173441673195362,1.41284464469105
2024-12-07 20:21:13.435207200,5.853207275390625,-0.3752268128216266,-1.0477052183806896,0.9389400154963136
2024-12-07 20:21:13.445221000,5.86322119140625,-0.1067461181469261,-1.671918482464552,0.5605287274196744
2024-12-07 20:21:13.455235300,5.8732353515625,0.0166933606475591,-2.064576907080412,0.2207686570376157
2024-12-07 20:21:13.465248000,5.883248046875,0.0356720557533204,-2.117479060706496,-0.0017412907093763
2024-12-07 20:21:13.475262200,5.89326220703125,0.1422895790845155,-1.876348583641648,-0.1141378358334302
2024-12-07 20:21:13.485276200,5.903276123046875,0.2767429115854203,-1.622473191294074,-0.341773456031084
2024-12-07 20:21:13.495290400,5.913290283203125,0.2038596078127622,-1.3737035976529122,-0.5699769392445683
2024-12-07 20:21:13.505303000,5.923302978515625,-0.0090255294334143,-0.9961287604004144,-0.7095294945806264
2024-12-07 20:21:13.515317200,5.933317138671875,-0.2355845333755016,-0.5071311914920806,-0.422407081669569
2024-12-07 20:21:13.525331200,5.943331298828125,-0.6533534338504076,-0.0535626633614301,0.3045364890486002
2024-12-07 20:21:13.535345400,5.953345458984375,-1.0065754817433654,0.1909516109228134,1.161180206391215
2024-12-07 20:21:13.545358000,5.963358154296875,-1.17109311311841,0.3024327947676181,1.7162985991999506
2024-12-07 20:21:13.555372300,5.973372314453125,-1.2221033155180514,0.2474690324366092,1.8404650770947333
2024-12-07 20:21:13.565386200,5.98338623046875,-1.179745936781913,0.0474257680416107,1.5720017719462511
2024-12-07 20:21:13.575400200,5.993400146484375,-0.913980784676224,-0.2230091294407844,1.0214175154358147
2024-12-07 20:21:13.585413000,6.0034130859375,-0.4641787694722413,-0.5843558854699135,0.3479536059707403
2024-12-07 20:21:13.595427300,6.01342724609375,-0.5091000073470175,-0.8328682894796132,-0.1718251779094338
2024-12-07 20:21:13.605441300,6.023441162109375,-0.8029970289595425,-0.8146820599257946,-0.3821238788589834
2024-12-07 20:21:13.615455200,6.033455322265625,-0.760373108241707,-0.7143342645138502,-0.2791837288662791
2024-12-07 20:21:13.625468200,6.04346826171875,-0.4996569100886583,-0.5414771132081747,-0.0436924267321825
2024-12-07 20:21:13.635482400,6.053482421875,0.3111182785917073,-0.1014963809251785,-0.064208268277347
2024-12-07 20:21:13.645496000,6.06349609375,1.0611387004494666,0.7122405071049929,-0.3681389003872871
2024-12-07 20:21:13.655510300,6.07351025390625,0.9032499856948852,1.8266081089168784,-0.7591168245702982
2024-12-07 20:21:13.665523200,6.083523193359375,-0.0292049786310642,2.9246254644304512,-0.8546317929983138
2024-12-07 20:21:13.675537200,6.093537109375,-0.9587001433033496,3.9862048943847417,-0.552094076551497
2024-12-07 20:21:13.685551000,6.103551025390625,-1.471269653391838,5.0533881356954575,0.1218605390399694
2024-12-07 20:21:13.695564300,6.113564208984375,-1.81599377592206,5.662870279115438,1.0862181966483593
2024-12-07 20:21:13.705578200,6.123578125,-1.6261317138016222,4.938356565892696,1.6302663293883204
2024-12-07 20:21:13.715592200,6.13359228515625,-0.5089723623793572,2.5299025085002183,1.3592682450652125
2024-12-07 20:21:13.725606100,6.143606201171875,1.0819482642441989,-0.14226269107759,-0.1871229925453662
2024-12-07 20:21:13.735619300,6.153619384765625,1.6885399469196796,-2.1719687757849693,-2.310660622638464
2024-12-07 20:21:13.745633000,6.163633056640625,0.6018086131174117,-3.3026784405887124,-3.792607737389207
2024-12-07 20:21:13.755647200,6.173647216796875,-0.4847749097120016,-3.5100966176658868,-4.499922186268866
2024-12-07 20:21:13.765661200,6.1836611328125,-0.5178811335653066,-3.1879134127676485,-4.590709249392152
2024-12-07 20:21:13.775674000,6.193674072265625,-0.3727724054068326,-2.571335758128762,-4.160989214360714
2024-12-07 20:21:13.785688000,6.20368798828125,-0.1927805068504065,-1.5860188991218804,-3.1451635275825858
2024-12-07 20:21:13.795702300,6.213702392578125,0.4661573760688304,-0.2544990772038698,-1.4380883915409446
2024-12-07 20:21:13.805716200,6.22371630859375,1.0225795449525117,0.7365104404866695,0.2175593396022915
2024-12-07 20:21:13.815729200,6.233729248046875,1.4805892704010009,1.1860182950496674,1.3626307072356345
2024-12-07 20:21:13.825743000,6.2437431640625,1.965434980326891,1.3612562040120362,1.9267142045274368
2024-12-07 20:21:13.835757300,6.25375732421875,1.959334325364232,1.355450732603669,1.9087021624967453
2024-12-07 20:21:13.845771300,6.263771240234375,1.2936048095434904,1.1985919454187155,1.5269266586840151
2024-12-07 20:21:13.855784200,6.2737841796875,0.4602928679496049,0.7857114015072584,0.7540311918690801
2024-12-07 20:21:13.865798100,6.283798095703125,-0.0729781059166416,0.2639583949446678,-0.2198293303608894
2024-12-07 20:21:13.875812400,6.293812255859375,-0.2521884621739387,-0.158083360543847,-1.0807643151566386
2024-12-07 20:21:13.885825300,6.3038251953125,-0.1859755760759115,-0.4604056806743145,-1.7094933030992745
2024-12-07 20:21:13.895839200,6.313839111328125,-0.0136485861241817,-0.5678191766887903,-2.0476742875963447
2024-12-07 20:21:13.905853200,6.323853271484375,0.2920815148894675,-0.6349591145038604,-2.080712926106155
2024-12-07 20:21:13.915867400,6.333867431640625,0.5967535947501659,-0.6156430041372776,-1.8537474602550268
2024-12-07 20:21:13.925880300,6.34388037109375,0.9067851740837096,-0.4009562973618507,-1.3915978585228324
2024-12-07 20:21:13.935894300,6.353894287109375,1.2412170351803302,-0.2334399225622415,-0.8830544621452688
2024-12-07 20:21:13.945908200,6.363908203125,1.3843857351869344,-0.1313286246091127,-0.5085653159484267
2024-12-07 20:21:13.955922200,6.373922119140625,1.2083365098416805,-0.0546586419045925,-0.2937017913013696
2024-12-07 20:21:13.965935000,6.38393505859375,0.8883025919318198,0.0174625914543867,-0.1817328239396214
2024-12-07 20:21:13.975949300,6.39394921875,0.4955307700693607,0.0764122085511684,-0.1381008952230215
2024-12-07 20:21:13.985963000,6.403962890625,0.1558615928411483,0.1215372984349727,-0.0993105613186955
2024-12-07 20:21:13.995977200,6.413977294921875,-0.0572270310878753,0.0573322450280189,-0.1044632679067552
2024-12-07 20:21:14.005990100,6.423990234375,-0.1235679092134349,-0.0325765739560127,-0.1678600736707448
2024-12-07 20:21:14.016004400,6.43400439453125,0.0244458562041632,0.0103378541409969,-0.2253619761772453
2024-12-07 20:21:14.026018000,6.44401806640625,0.3268821763694286,0.1531184316128492,-0.1568196242183446
2024-12-07 20:21:14.036032300,6.4540322265625,0.8409037118971348,0.2912789480686187,0.0779926096104085
2024-12-07 20:21:14.046045200,6.464045166015625,1.5645090781033038,0.3058680299133062,0.3054367988891899
2024-12-07 20:21:14.056059100,6.47405908203125,1.981925511878729,0.2480623221546411,0.4154540476612746
2024-12-07 20:21:14.066073000,6.484072998046875,1.9803940645277496,0.258965408962965,0.5604080236494541
2024-12-07 20:21:14.076086300,6.494086181640625,1.623392644226551,0.2991688245356083,0.5804379813738167
2024-12-07 20:21:14.086100200,6.504100341796875,1.0810229660928248,0.1236585283726453,0.4359640439875423
2024-12-07 20:21:14.096114200,6.5141142578125,0.5773989059388637,-0.0796247408568859,0.1374386319220066
2024-12-07 20:21:14.106128100,6.524128173828125,0.3070318129956722,-0.1500999605745077,-0.1641866458550095
2024-12-07 20:21:14.116141300,6.534141357421875,0.2999275339484215,-0.053148821863532,-0.4370169140413403
2024-12-07 20:21:14.126155300,6.5441552734375,0.4911479884078726,0.1820212854921817,-0.6427157199800014
2024-12-07 20:21:14.136169200,6.554169189453125,0.6842027456223965,0.4621171607673168,-0.6815041541881859
2024-12-07 20:21:14.146183200,6.56418310546875,0.8287175995409488,0.5655810423731804,-0.7037323526091873
2024-12-07 20:21:14.156196000,6.574196044921875,0.8138017699599266,0.4646820428192615,-0.672381374925375
2024-12-07 20:21:14.166210000,6.5842099609375,0.6484814438998698,0.1137023670256137,-0.6805737414702773
2024-12-07 20:21:14.176224300,6.594224365234375,0.4604525154907256,-0.3210258515566587,-0.6591971914425492
2024-12-07 20:21:14.186238200,6.60423828125,0.2473825231969356,-0.6604466069817543,-0.6167090259335934
2024-12-07 20:21:14.196251100,6.614251220703125,0.1433866901388391,-0.8969874181687831,-0.5098043562240898
2024-12-07 20:21:14.206265000,6.62426513671875,0.141011229711771,-0.9203490045338868,-0.3042475891046226
2024-12-07 20:21:14.216279300,6.634279296875,0.2286579489827156,-0.7543190688997506,-0.0546929825656116
2024-12-07 20:21:14.226293000,6.64429296875,0.424503177165985,-0.4195306494504213,0.2257727489352226
2024-12-07 20:21:14.236306200,6.65430615234375,0.646663726953417,-0.0098252284437417,0.4392204154349863
2024-12-07 20:21:14.246320000,6.664320068359375,0.7134977406244725,0.3480588199108839,0.5463476418539881
2024-12-07 20:21:14.256334000,6.674333984375,0.6489280916888266,0.5120715705037117,0.5853561485536396
2024-12-07 20:21:14.266348000,6.68434814453125,0.4869173285681754,0.5186205537557602,0.5980690612629056
2024-12-07 20:21:14.276361200,6.694361328125,0.2569884098015725,0.337183790153265,0.4706501574434339
2024-12-07 20:21:14.286375200,6.704375244140625,-0.0632582010108977,0.0551525629013776,0.2095918678544461
2024-12-07 20:21:14.296389000,6.71438916015625,-0.4262753744702786,-0.2561228790134191,-0.1682479039445519
2024-12-07 20:21:14.306402300,6.72440234375,-0.7042962701022625,-0.44789983484447,-0.5391713204838335
2024-12-07 20:21:14.316416300,6.734416259765625,-0.8216437156319618,-0.4024655328810215,-0.7700880081787705
2024-12-07 20:21:14.326430200,6.74443017578125,-0.7284055330295115,-0.1068529395222663,-0.7830347296439111
2024-12-07 20:21:14.336444200,6.754444091796875,-0.4986334122598171,0.2317442245602607,-0.6555642417676747
2024-12-07 20:21:14.346457300,6.764457275390625,-0.2910334488749504,0.4468699072748422,-0.4515926980130374
2024-12-07 20:21:14.356471000,6.774470947265625,-0.1238367344837635,0.5289373651087284,-0.2425346447743475
2024-12-07 20:21:14.366485000,6.784485107421875,0.0239152747251093,0.4546878875494003,-0.1028923653282225
2024-12-07 20:21:14.376499200,6.794499267578125,0.1940028151869773,0.2118225495159625,-0.0761028503410518
2024-12-07 20:21:14.386512400,6.804512451171875,0.3900549641191959,0.0044715924561023,-0.0705168669022619
2024-12-07 20:21:14.396526000,6.814526123046875,0.3889562090970576,-0.1649146678686142,-0.0876603094048798
2024-12-07 20:21:14.406540000,6.8245400390625,0.1759995409846305,-0.2484942838311195,-0.1522685367852449
2024-12-07 20:21:14.416554200,6.83455419921875,-0.2409936989426612,-0.3404039212435483,-0.202564745696634
2024-12-07 20:21:14.426567200,6.844567138671875,-0.5986544599354267,-0.3576677752554416,-0.164956899575144
2024-12-07 20:21:14.436581000,6.8545810546875,-0.7802315087914466,-0.3040811464965343,-0.0655738575421273
2024-12-07 20:21:14.446595000,6.864594970703125,-0.7991722099743783,-0.2047504191726446,0.0223135386168956
2024-12-07 20:21:14.456609300,6.874609375,-0.7219849253974855,-0.0548632245659828,0.0421501657262444
2024-12-07 20:21:14.466622200,6.884622314453125,-0.4583212756156921,0.0945282954782247,0.0009857961669564
2024-12-07 20:21:14.476636200,6.89463623046875,-0.146035852940753,0.1931938368916511,-0.0540324728302657
2024-12-07 20:21:14.486650000,6.904650146484375,0.0388577000521123,0.2494692663431167,-0.063355012448877
2024-12-07 20:21:14.496663000,6.9146630859375,0.1150431141100823,0.1690261948406696,-0.0487339280307292
2024-12-07 20:21:14.506677200,6.92467724609375,0.0547077417433261,0.0126467156052589,0.0203783327706158
2024-12-07 20:21:14.516691200,6.934691162109375,-0.0515653520643711,-0.0972784709692001,0.1303450203992426
2024-12-07 20:21:14.526705200,6.944705078125,-0.1746748682521283,-0.0624298604279756,0.2422077509075403
2024-12-07 20:21:14.536718000,6.954718017578125,-0.2455119070194661,0.0035971477091312,0.2489262455075979
2024-12-07 20:21:14.546732300,6.964732177734375,-0.2964765167117119,0.0301280117601156,0.2249120404526591
2024-12-07 20:21:14.556746200,6.974746337890625,-0.3865186066865921,0.054027358263731,0.1401074127398431
2024-12-07 20:21:14.566760000,6.984760009765625,-0.3199707895457744,0.1034662196934223,0.0823876296989619
2024-12-07 20:21:14.576773000,6.994773193359375,-0.0647791269678622,0.1636141066640615,0.0970304875575006
2024-12-07 20:21:14.586787300,7.004787353515625,0.1874292089503258,0.1220966858834028,0.1641480674102902
2024-12-07 20:21:14.596801300,7.01480126953125,0.403441684436798,-0.0462397731274366,0.2334036822050809
2024-12-07 20:21:14.606815000,7.02481494140625,0.6102011053442955,-0.3093938659518957,0.3276363557375967
2024-12-07 20:21:14.616828200,7.034828125,0.7570330040335654,-0.5079933612793683,0.436064435622096
2024-12-07 20:21:14.626842400,7.04484228515625,0.8151695511817931,-0.5826490815520287,0.5688543649554252
2024-12-07 20:21:14.636856000,7.05485595703125,0.7640778079785406,-0.4396878868162632,0.7173072889752685
2024-12-07 20:21:14.646870000,7.0648701171875,0.567602465198189,-0.11909925763309,0.8428560150086879
2024-12-07 20:21:14.656883200,7.07488330078125,0.2247451594531536,0.1286509298324585,0.7764327010303735
2024-12-07 20:21:14.666897400,7.0848974609375,-0.2200095092333853,0.2127572000175714,0.4954734869241714
2024-12-07 20:21:14.676911000,7.0949111328125,-0.5897710423864424,0.155215111631155,0.048287791698426
2024-12-07 20:21:14.686924300,7.10492431640625,-0.7533166138589382,-0.0029231939703226,-0.3083325203306973
2024-12-07 20:21:14.696938200,7.114938232421875,-0.6108337041594087,-0.2179196973472833,-0.3626964170724153
2024-12-07 20:21:14.706952200,7.1249521484375,-0.2005883310571312,-0.390056717684865,-0.0860015093471854
2024-12-07 20:21:14.716966100,7.134966064453125,0.1815114362739026,-0.4354699768602847,0.2972097994223237
2024-12-07 20:21:14.726979300,7.144979248046875,0.4531294060610234,-0.3457189787864685,0.610251885683462
2024-12-07 20:21:14.736993000,7.154992919921875,0.5597089354693889,-0.1703518904864788,0.850056082580611
2024-12-07 20:21:14.747007200,7.16500732421875,0.4434839180983603,-0.0922147578388452,1.0131173776675015
2024-12-07 20:21:14.757021200,7.175021240234375,0.2215852341175079,-0.1225929449677467,1.1845290794052183
2024-12-07 20:21:14.767034400,7.185034423828125,0.0817941938504576,-0.1452799930721521,1.395054428717494
2024-12-07 20:21:14.777048000,7.195048095703125,0.122978437153995,-0.0628583149731159,1.5706848441287875
2024-12-07 20:21:14.787062300,7.205062255859375,0.2365231293998658,0.1570674614995718,1.6459369228594003
2024-12-07 20:21:14.797076200,7.215076171875,0.3112777800023555,0.3736170395374298,1.5084503601424395
2024-12-07 20:21:14.807089200,7.225089111328125,0.3497603631317615,0.4996428815633058,1.1855213053129612
2024-12-07 20:21:14.817103000,7.23510302734375,0.3770401458539068,0.4487210880994796,0.7008532169762999
2024-12-07 20:21:14.827117300,7.245117431640625,0.4447112679362296,0.3634744157075881,0.2069080355979502
2024-12-07 20:21:14.837131300,7.25513134765625,0.528024341917038,0.3151899850100279,-0.2335424330886453
2024-12-07 20:21:14.847144200,7.265144287109375,0.6078827453993261,0.2935790417045354,-0.5513189274605363
2024-12-07 20:21:14.857158100,7.275158203125,0.4864730188667774,0.2660118203431367,-0.7907456693474203
2024-12-07 20:21:14.867172400,7.28517236328125,0.201959619410336,0.139291566312313,-1.0358676272012293
2024-12-07 20:21:14.877186000,7.29518603515625,-0.2339382274731993,0.0935994901955127,-1.2012886371567844
2024-12-07 20:21:14.887199200,7.30519921875,-0.7217825346931814,0.1109457617938518,-1.233787177440524
2024-12-07 20:21:14.897213200,7.315213134765625,-1.092059616152942,0.2081388925671577,-1.0751230943992731
2024-12-07 20:21:14.907227400,7.325227294921875,-1.2650070760905745,0.3184370041072368,-0.6762725371450186
2024-12-07 20:21:14.917240000,7.335239990234375,-1.2478393759295343,0.3899982654958963,-0.009518244853802
2024-12-07 20:21:14.927254300,7.345254150390625,-1.0938508834838867,0.3160200060933828,0.7306880179435015
2024-12-07 20:21:14.937268200,7.355268310546875,-0.9037854077458382,0.116557171934843,1.2714889854557812
2024-12-07 20:21:14.947282200,7.3652822265625,-0.6336416021645068,-0.215182381337881,1.4919664044618606
2024-12-07 20:21:14.957295000,7.375295166015625,-0.3595686404407024,-0.4506429960727691,1.562914210127294
2024-12-07 20:21:14.967309300,7.385309326171875,-0.0402618677616119,-0.4995277307510375,1.483545197597146
2024-12-07 20:21:14.977323300,7.3953232421875,0.2082652954258024,-0.4093845184892415,1.370241328369826
2024-12-07 20:21:14.987337200,7.405337158203125,0.275999399741739,-0.2764771002560854,1.1514664754979311
2024-12-07 20:21:14.997350100,7.41535009765625,0.1947368285499513,-0.1513297946304082,0.8907548073895275
2024-12-07 20:21:15.007364400,7.4253642578125,-0.0095803137719631,-0.0561082561910152,0.6464817214500158
2024-12-07 20:21:15.017378000,7.4353779296875,-0.2382030453108251,0.0176005386203527,0.4891819855645298
2024-12-07 20:21:15.027392300,7.445392333984375,-0.3507587265193462,0.0868693051576614,0.4595950584111735
2024-12-07 20:21:15.037405200,7.4554052734375,-0.3518247483156621,0.194531222975254,0.5035062789931893
2024-12-07 20:21:15.047419100,7.465419189453125,-0.2710252645909786,0.2771311802506446,0.4274186627538874
2024-12-07 20:21:15.057433000,7.47543310546875,-0.2126256825923919,0.2549906601130962,0.2585327166341245
2024-12-07 20:21:15.067446300,7.4854462890625,-0.1977332338869571,0.1983212629079818,0.1079759522028267
2024-12-07 20:21:15.077460200,7.495460205078125,-0.3217990278862416,0.0595668722122907,-0.0125948027549311
2024-12-07 20:21:15.087474200,7.50547412109375,-0.4740544129289686,-0.0380295786648988,-0.0378628803284838
2024-12-07 20:21:15.097488100,7.515488037109375,-0.5934826102554798,-0.1381236915767192,0.0347728053586557
2024-12-07 20:21:15.107501300,7.525501220703125,-0.6033341421842575,-0.2439846974521875,0.1774733763968572
2024-12-07 20:21:15.117515000,7.535514892578125,-0.6278489902377128,-0.3553478078752756,0.3429297864593565
2024-12-07 20:21:15.127529200,7.545529296875,-0.6815313344560563,-0.4315010732293128,0.5656830049103125
2024-12-07 20:21:15.137543700,7.555543701171875,-0.7688368390738963,-0.4713619589745998,0.7685355180397629
2024-12-07 20:21:15.147556600,7.565556640625,-0.8446364686846732,-0.4691998125046491,0.9135860862702132
2024-12-07 20:21:15.157570600,7.575570556640625,-0.8736591495513916,-0.4165525104224681,0.9492528813265264
2024-12-07 20:21:15.167584800,7.585584716796875,-0.9444589250482618,-0.2851099040448665,0.9077417441561818
2024-12-07 20:21:15.177598500,7.595598388671875,-1.0228186874706298,-0.1154383970379829,0.8188526966739446
2024-12-07 20:21:15.187611600,7.605611572265625,-1.0939876616060733,0.0542991609424352,0.7211573154669254
2024-12-07 20:21:15.197625600,7.61562548828125,-1.1625450650036335,0.3070113547295331,0.6705011872019618
2024-12-07 20:21:15.207639800,7.625639892578125,-1.1681541370570658,0.6042939271271228,0.6383052100613713
2024-12-07 20:21:15.217653500,7.635653564453125,-1.049815342402458,0.8885416613847017,0.6581799041587859
2024-12-07 20:21:15.227666700,7.645666748046875,-0.7849205433905124,1.1087672975867986,0.7036034655325114
2024-12-07 20:21:15.237680600,7.6556806640625,-0.4568167162716388,1.2251286546885969,0.7721425295557827
2024-12-07 20:21:15.247694600,7.665694580078125,-0.1656803915441036,1.2793278623878954,0.8113057153604925
2024-12-07 20:21:15.257708500,7.67570849609375,0.0785609201508108,1.2608680765897036,0.9119972096435726
2024-12-07 20:21:15.267721700,7.6857216796875,0.3215355546444654,1.2376806777477265,1.0184579349778593
2024-12-07 20:21:15.277735700,7.695735595703125,0.4771674303829669,1.2646487641721964,0.9983991895504296
2024-12-07 20:21:15.287749600,7.70574951171875,0.3294458893775939,1.3230933543562888,0.7268960783146321
2024-12-07 20:21:15.297762600,7.715762451171875,0.0751040485620498,1.3478893574386834,0.3050032297775149
2024-12-07 20:21:15.307776800,7.72577685546875,0.0179372232288122,1.3369155434817075,-0.0116444066949188
2024-12-07 20:21:15.317790500,7.73579052734375,0.2465858563939109,1.2593307840198278,-0.1940282418891787
2024-12-07 20:21:15.327804700,7.7458046875,0.7620669065475464,1.1367740794092416,-0.4107520074501633
2024-12-07 20:21:15.337817600,7.755817626953125,1.1571510970056056,0.974719477146864,-0.5476452804490923
2024-12-07 20:21:15.347831600,7.76583154296875,1.1360492722660305,0.8233674706846476,-0.5666695682622492
2024-12-07 20:21:15.357845500,7.775845458984375,0.6307540640294551,0.787207777544856,-0.4608021326459944
2024-12-07 20:21:15.367859700,7.785859619140625,-0.0379506682097911,0.9581237316548824,-0.3283461114421486
2024-12-07 20:21:15.377872600,7.79587255859375,-0.1197574292808771,1.0806693303495645,-0.2987406622514128
2024-12-07 20:21:15.387886600,7.805886474609375,0.3404378600457683,0.949327261736989,-0.5358849922895431
2024-12-07 20:21:15.397900500,7.815900634765625,0.8094448168594389,0.6524626224905252,-0.9581947510644792
2024-12-07 20:21:15.407914800,7.825914794921875,1.085491051417589,0.3056511722922325,-1.4465700964212416
2024-12-07 20:21:15.417927400,7.835927490234375,1.152100243356824,0.0983329484581947,-1.9473519188866013
2024-12-07 20:21:15.427941600,7.845941650390625,1.1401363223839551,0.0281967514365911,-2.2056837061211465
2024-12-07 20:21:15.437955600,7.85595556640625,1.1942553044538944,0.0029851532906293,-2.1450819379031656
2024-12-07 20:21:15.447968500,7.865968505859375,1.2392010191828011,0.006702712509036,-2.0563304722607136
2024-12-07 20:21:15.457982500,7.875982421875,1.2555763999223708,-0.076028762191534,-2.1098288382142782
2024-12-07 20:21:15.467996700,7.88599658203125,1.2308131300657987,-0.1186900923103094,-2.143551951856911
2024-12-07 20:21:15.478010600,7.8960107421875,1.2056051121164113,-0.1828045448243618,-2.100701236645877
2024-12-07 20:21:15.488023600,7.9060234375,1.111343870076537,-0.3573299216032028,-2.069678321872652
2024-12-07 20:21:15.498037500,7.91603759765625,0.9632167439449578,-0.5748994903385639,-2.1225243613973257
2024-12-07 20:21:15.508051700,7.9260517578125,0.724925070502609,-0.8936281708687543,-2.2438988704860208
2024-12-07 20:21:15.518065700,7.936065673828125,0.4759913723409175,-1.101744851604104,-2.2060683215245604
2024-12-07 20:21:15.528078600,7.94607861328125,0.2951682105921209,-1.1650514948666095,-2.047494839376211
2024-12-07 20:21:15.538092500,7.956092529296875,0.0901497881330549,-1.1170634167671205,-1.858148910084367
2024-12-07 20:21:15.548106800,7.966106689453125,-0.1711707325886935,-0.9832359610795974,-1.6895242817819118
2024-12-07 20:21:15.558120400,7.976120361328125,-0.3283838131040335,-0.7786018617630004,-1.5522499005109072
2024-12-07 20:21:15.568133600,7.986133544921875,-0.4389776196550577,-0.5704676453709602,-1.4411583005055784
2024-12-07 20:21:15.578147600,7.996147705078125,-0.4379506877601146,-0.3795405843675136,-1.2842682413995266
2024-12-07 20:21:15.588161800,8.006161865234375,-0.3841477859020233,-0.2062292595535516,-1.0732000173822045
2024-12-07 20:21:15.598174500,8.016174560546874,-0.323332374933362,-0.0832721574485302,-0.8174705216005445
2024-12-07 20:21:15.608188700,8.026188720703125,-0.2225198846191167,-0.0837473737448453,-0.4784624386295676
2024-12-07 20:21:15.618202600,8.03620263671875,-0.1937896108277142,-0.1959866824805736,-0.1836670068725943
2024-12-07 20:21:15.628216600,8.046216552734375,-0.1737408022724091,-0.4187397913336753,0.0426660062938928
2024-12-07 20:21:15.638229500,8.0562294921875,-0.0257744927257299,-0.7762053220152855,0.2112429960623383
2024-12-07 20:21:15.648243700,8.06624365234375,0.1761532702416181,-1.1843202589601278,0.2319906005367636
2024-12-07 20:21:15.658257400,8.07625732421875,0.2928168251603841,-1.6598083579540253,0.1892056440383195
2024-12-07 20:21:15.668271600,8.086271728515625,0.215768072271347,-2.059683289819956,0.2580000710621476
2024-12-07 20:21:15.678284500,8.096284423828125,0.1386415779709816,-2.3353595950871706,0.3260577082440257
2024-12-07 20:21:15.688298800,8.106298828125,0.0962041197359561,-2.433070027732849,0.3924181861191987
2024-12-07 20:21:15.698312400,8.1163125,-0.0533083963394165,-2.3226327999830243,0.6028934126794337
2024-12-07 20:21:15.708326700,8.12632666015625,-0.2665501650035381,-1.9933903242230413,0.9054279142558574
2024-12-07 20:21:15.718339600,8.136339599609375,-0.5547777626775204,-1.5084271253973245,1.2844552884042262
2024-12-07 20:21:15.728353500,8.146353515625,-0.6403846466839314,-1.0309686031132936,1.7321628155469893
2024-12-07 20:21:15.738367500,8.156367431640625,-0.6802700823485851,-0.6239104817450046,2.1610765026316043
2024-12-07 20:21:15.748380700,8.166380615234376,-0.6318558877915144,-0.2965565962105989,2.510982119452953
2024-12-07 20:21:15.758394400,8.176394287109375,-0.7623791873671114,-0.0005570493608713,2.749144102101028
2024-12-07 20:21:15.768408600,8.18640869140625,-0.9145312581658362,0.081603347453475,2.823408484968543
2024-12-07 20:21:15.778422500,8.196422607421875,-0.9729074592888356,-0.0846451993674039,2.567290574391186
2024-12-07 20:21:15.788435700,8.206435791015625,-0.909413695956394,-0.4322948539555072,2.0357053251221773
2024-12-07 20:21:15.798449400,8.216449462890624,-0.8287187685847281,-0.8415724049389361,1.5087185095593332
2024-12-07 20:21:15.808463600,8.226463623046875,-0.7377326757580042,-1.290033965319395,1.081852694915235
2024-12-07 20:21:15.818477600,8.2364775390625,-0.7746673718582838,-1.7748843514204025,0.6891998232573271
2024-12-07 20:21:15.828490500,8.246490478515625,-0.6762585086196661,-2.179787340581417,0.2624725403010845
2024-12-07 20:21:15.838504400,8.25650439453125,-0.6497416730940342,-2.112749109575152,0.0608525281086564
2024-12-07 20:21:15.848518700,8.2665185546875,-0.4710713785301894,-1.5385241574972868,0.0223293207079172
2024-12-07 20:21:15.858532600,8.27653271484375,0.0492079022180289,-0.6928127530574798,-0.0994537691816687
2024-12-07 20:21:15.868545500,8.286545654296875,0.2319284220207482,0.3599462415814399,-0.6354407605409622
2024-12-07 20:21:15.878559500,8.2965595703125,-0.1874075816404074,1.5514397531718014,-1.5242074628531932
2024-12-07 20:21:15.888573700,8.30657373046875,-1.406675308406353,2.8279882139742374,-2.395163783186674
2024-12-07 20:21:15.898587600,8.316587646484376,-2.767916899371147,4.046978804299235,-2.8437992388293147
2024-12-07 20:21:15.908600600,8.3266005859375,-4.0793467039406295,5.181399014058709,-2.2988594179466366
2024-12-07 20:21:15.918614500,8.336614501953125,-4.523320305252075,6.195013162267208,-0.6648986179545522
2024-12-07 20:21:15.928628700,8.346628662109374,-3.1595038953632115,6.083218090167641,1.0567240988776088
2024-12-07 20:21:15.938641700,8.3566416015625,-0.605414455589652,4.207407266664505,2.01304165789336
2024-12-07 20:21:15.948655600,8.366655517578126,2.316219718070328,1.4301888704627752,1.948554280413687
2024-12-07 20:21:15.958669600,8.376669677734375,4.165010140439867,-1.157827388831973,0.9009642128452658
2024-12-07 20:21:15.968683500,8.38668359375,4.059354301747679,-2.7850030587285755,-0.7756389203041791
2024-12-07 20:21:15.978696700,8.39669677734375,2.7347838605761527,-3.4983547419458625,-2.36639478482008
2024-12-07 20:21:15.988710700,8.406710693359376,1.4403274026393889,-3.595966390392184,-3.631972062014043
2024-12-07 20:21:15.998724600,8.416724609375,0.3678496351171285,-2.961889319419861,-4.427026169145107
2024-12-07 20:21:16.008738600,8.426738525390626,-0.0125951315484941,-1.6962801857829093,-4.341611738970875
2024-12-07 20:21:16.018751700,8.436751708984374,0.6363351520974189,-0.3130307611495256,-3.00693082267344
2024-12-07 20:21:16.028765700,8.446765625,1.386919053056836,0.726751847538352,-1.404847800718248
2024-12-07 20:21:16.038779400,8.456779296875,1.7766987073659897,1.2403256392985582,-0.1617380836591124
2024-12-07 20:21:16.048793600,8.466793701171875,1.8072160107046364,1.2889859175711869,0.6712029787957667
2024-12-07 20:21:16.058806800,8.476806884765624,1.39513626178205,1.1702215909808873,1.0019996982604265
2024-12-07 20:21:16.068820500,8.486820556640625,0.8210206152975559,0.9945002824157476,0.9036138505712152
2024-12-07 20:21:16.078834400,8.49683447265625,0.2844774513602257,0.7256120298534632,0.544260898707807
2024-12-07 20:21:16.088847600,8.50684765625,-0.0150519866487011,0.4285866470873355,-0.0284583249822258
2024-12-07 20:21:16.098861600,8.516861572265626,0.0554155612191185,0.0742184978991746,-0.6796311999231577
2024-12-07 20:21:16.108875500,8.52687548828125,0.2354542580593377,-0.2597743872582912,-1.1928422958508134
2024-12-07 20:21:16.118889500,8.536889404296875,0.4696101468712091,-0.5288385809093713,-1.4403899464815857
2024-12-07 20:21:16.128902700,8.546902587890624,0.7082336095511913,-0.6883031666785479,-1.460070506246388
2024-12-07 20:21:16.138916000,8.556916015625,0.9368395360857248,-0.6990320659637451,-1.3815207011446355
2024-12-07 20:21:16.148929800,8.5669296875,1.091067390245199,-0.4910013099461793,-1.231588498352468
2024-12-07 20:21:16.158944000,8.576944091796875,1.0137193621486424,-0.1632306603044271,-1.065292897519469
2024-12-07 20:21:16.168957000,8.58695703125,0.775801417389512,0.051858197531104,-0.837701116463542
2024-12-07 20:21:16.178971000,8.596970947265625,0.465303974109888,0.0881418093115091,-0.616074965813756
2024-12-07 20:21:16.188984800,8.60698486328125,0.1510802129166666,0.0908867241054773,-0.4250327539980411
2024-12-07 20:21:16.198999000,8.6169990234375,-0.2701204247057437,0.1847919192492961,-0.2822315721295774
2024-12-07 20:21:16.209012000,8.627011962890625,-0.4907406131833791,0.3607341770887374,-0.1640827470891177
2024-12-07 20:21:16.219026000,8.63702587890625,-0.3889659998387098,0.4185708645075559,-0.02305602754727
2024-12-07 20:21:16.229039900,8.647039794921875,0.046399347603321,0.1967173348426818,0.1555900824233889
2024-12-07 20:21:16.239054000,8.65705419921875,0.6278454831063747,-0.0428717579990625,0.3725150696448981
2024-12-07 20:21:16.249066800,8.667066650390625,1.0323545045137406,-0.1951648447036743,0.5424862902507186
2024-12-07 20:21:16.259081000,8.6770810546875,1.321257955622673,-0.3037041298776864,0.6235761352241039
2024-12-07 20:21:16.269095000,8.687094970703125,1.5501730942368506,-0.3099146749556064,0.6402012529410421
2024-12-07 20:21:16.279107800,8.69710791015625,1.5837082840919494,-0.2711380773156881,0.6537117457687854
2024-12-07 20:21:16.289121800,8.707121826171875,1.5097417151272297,-0.2106108356386423,0.719867202591151
2024-12-07 20:21:16.299136000,8.717135986328126,1.3620038075089451,-0.0552671291917562,0.7022188793063163
2024-12-07 20:21:16.309150000,8.72714990234375,1.0071896681189536,0.016171382600069,0.6074719726413488
2024-12-07 20:21:16.319163000,8.737162841796875,0.6042857438206672,0.0737690005660057,0.4642823759771883
2024-12-07 20:21:16.329176800,8.7471767578125,0.431416902077198,0.1963444098770618,0.345963162805885
2024-12-07 20:21:16.339191000,8.75719091796875,0.488232429754734,0.3064718410253524,0.1784915039308369
2024-12-07 20:21:16.349205000,8.767205078125,0.5563455965161324,0.264248902323842,-0.0207796070478856
2024-12-07 20:21:16.359218000,8.777218017578125,0.6026934696605428,0.174086985361576,-0.163461108059436
2024-12-07 20:21:16.369232000,8.78723193359375,0.6294634396970271,0.0259077637165784,-0.3152781016848981
2024-12-07 20:21:16.379246000,8.79724609375,0.5919312891602516,-0.0919961466521024,-0.4537282487370073
2024-12-07 20:21:16.389259800,8.807259765625,0.4450783476829528,-0.1435059691369533,-0.495405097863078
2024-12-07 20:21:16.399273000,8.81727294921875,0.2636053437232971,-0.1038385601371526,-0.50033466321975
2024-12-07 20:21:16.409287000,8.827286865234376,0.1243348201990127,-0.0272650235444307,-0.5134620019488036
2024-12-07 20:21:16.419301000,8.837301025390625,-0.0044868082915432,0.0560579873085021,-0.5411414515130222
2024-12-07 20:21:16.429313800,8.847313720703125,-0.1352770882402546,0.0397276147544383,-0.5187092549525201
2024-12-07 20:21:16.439328000,8.857327880859375,-0.1511667678221128,-0.0434346525788307,-0.4509786577679217
2024-12-07 20:21:16.449342000,8.867342041015625,0.0462953027069568,-0.1384153679996728,-0.2827082497306168
2024-12-07 20:21:16.459356000,8.87735595703125,0.3428992451906204,-0.2361491815209388,-0.0814450881518423
2024-12-07 20:21:16.469368800,8.887368896484375,0.615468816614151,-0.3428670964866876,0.1097604975320398
2024-12-07 20:21:16.479383000,8.897383056640624,0.678330638718605,-0.4076104945540428,0.286930251339823
2024-12-07 20:21:16.489396700,8.907396728515625,0.5861340375909582,-0.4593026878684759,0.4349890614755451
2024-12-07 20:21:16.499411000,8.917410888671874,0.296727861124277,-0.467633293840289,0.5399214081987739
2024-12-07 20:21:16.509423900,8.927423828125,0.0093161464104428,-0.4213917671471834,0.5927474278487265
2024-12-07 20:21:16.519438000,8.93743798828125,-0.1288332641294226,-0.3352835094898939,0.664384238691628
2024-12-07 20:21:16.529451800,8.94745166015625,-0.0769406163394451,-0.1576560750424862,0.8293496138341724
2024-12-07 20:21:16.539466000,8.957466064453126,0.0163665763786062,-0.0309749839782714,0.86030866959095
2024-12-07 20:21:16.549479000,8.96747900390625,0.1880885861745104,-0.0225993698209524,0.7577658483527601
2024-12-07 20:21:16.559492900,8.977492919921875,0.3563093098511919,-0.1309217973738908,0.6156343824394047
2024-12-07 20:21:16.569506800,8.9875068359375,0.4325765569737181,-0.267781168103218,0.4154765517540276
2024-12-07 20:21:16.579520000,8.99752001953125,0.3664519336810335,-0.3353489759415388,0.2679527252778411
2024-12-07 20:21:16.589534000,9.007533935546874,0.1885374624531716,-0.2922831566751003,0.1807043576747179
2024-12-07 20:21:16.599548000,9.0175478515625,-0.0215595053791999,-0.194559280025959,0.1042972636900842
2024-12-07 20:21:16.609561900,9.027561767578124,-0.1361035839259624,-0.0585883825689554,0.0860480519026517
2024-12-07 20:21:16.619575000,9.037574951171877,-0.1222516572494059,0.0267126503586769,-0.0063218964979052
2024-12-07 20:21:16.629588700,9.047588623046876,-0.1478385184485465,0.0081774612367153,-0.2149976724207401
2024-12-07 20:21:16.639603000,9.05760302734375,-0.1421346807837486,-0.03051145811975,-0.3244398977838456
2024-12-07 20:21:16.649617000,9.067616943359376,-0.2097662015080451,-0.0327367329537868,-0.3453818557865917
2024-12-07 20:21:16.659629800,9.0776298828125,-0.3688507749836892,-0.0464426022231578,-0.3442084280930459
2024-12-07 20:21:16.669643800,9.087643798828124,-0.4932686703562736,-0.1534866804033517,-0.2569843181483447
2024-12-07 20:21:16.679658000,9.097657958984374,-0.5024680219866335,-0.2700181333750486,-0.0717063689477741
2024-12-07 20:21:16.689672000,9.107671875,-0.5059949540037662,-0.3647480889052152,0.1161729949228465
2024-12-07 20:21:16.699684900,9.117684814453124,-0.5699953516840934,-0.4189280073821544,0.2707680749595165
2024-12-07 20:21:16.709698800,9.12769873046875,-0.6481704782545566,-0.4730494736701249,0.3507854683957994
2024-12-07 20:21:16.719713000,9.137713134765624,-0.7152069556951522,-0.5384428600788116,0.3968241659931838
2024-12-07 20:21:16.729726000,9.147725830078125,-0.7365548641502857,-0.5740244610697031,0.3877646612249315
2024-12-07 20:21:16.739740000,9.157739990234376,-0.7352981420874595,-0.5505225894510746,0.3295294760078192
2024-12-07 20:21:16.749753900,9.16775390625,-0.6590648702997713,-0.5405845482826233,0.2208162955716252
2024-12-07 20:21:16.759768000,9.17776806640625,-0.5801870753526688,-0.5115484234124422,0.1457533096723258
2024-12-07 20:21:16.769781000,9.187781005859376,-0.4577342695079743,-0.5079606280535459,0.1619106637470424
2024-12-07 20:21:16.779795000,9.197794921875,-0.2409961831606924,-0.4582610698610544,0.3210259976871311
2024-12-07 20:21:16.789809000,9.207808837890624,-0.1087317390061914,-0.4440443284600973,0.5720191125966608
2024-12-07 20:21:16.799823000,9.217822998046875,-0.1631727926373481,-0.4169336186945438,0.8567427207376808
2024-12-07 20:21:16.809836000,9.2278359375,-0.2715735461235046,-0.3205611566543579,1.1912662056405097
2024-12-07 20:21:16.819850000,9.23785009765625,-0.4164775454901158,-0.2312801141798496,1.5181990162186323
2024-12-07 20:21:16.829864000,9.247864013671874,-0.5688906053125858,-0.2115940014570951,1.9057962119221683
2024-12-07 20:21:16.839878000,9.2578779296875,-0.6997710477627813,-0.225121007028222,2.268376016877592
2024-12-07 20:21:16.849891000,9.26789111328125,-0.7648962847545743,-0.2052840876579284,2.6696634458899497
2024-12-07 20:21:16.859905000,9.277905029296877,-0.7398198572956025,0.0016366612911224,3.0676603089243173
2024-12-07 20:21:16.869918700,9.287918701171876,-0.5527357354559004,0.4029594538778066,3.338489758682251
2024-12-07 20:21:16.879932000,9.297931884765624,-0.1440812848068773,0.8469611122399568,3.42027138531208
2024-12-07 20:21:16.889945900,9.30794580078125,0.3617955227099358,1.1198983479321003,3.186548261894285
2024-12-07 20:21:16.899960000,9.3179599609375,0.7477262465059756,1.1277741958737373,2.652408944228291
2024-12-07 20:21:16.909973800,9.327973876953124,0.7834099926970899,0.9114519968509672,1.9262210141830145
2024-12-07 20:21:16.919987000,9.337987060546874,0.4608582467474043,0.6555155803203583,1.1115332551687955
2024-12-07 20:21:16.930001000,9.3480009765625,-0.0046716450728476,0.469274631306529,0.2179236428700387
2024-12-07 20:21:16.940014800,9.358014892578124,-0.4197276333272456,0.3487959020137787,-0.6986898283973336
2024-12-07 20:21:16.950028800,9.36802880859375,-0.6920575507760047,0.2761971142709255,-1.5662705348178745
2024-12-07 20:21:16.960042000,9.3780419921875,-0.8670084594905376,0.3550988015502691,-2.18485762958303
2024-12-07 20:21:16.970056000,9.388055908203125,-0.6918085444509983,0.606912000671029,-2.355835689143837
2024-12-07 20:21:16.980070000,9.39806982421875,-0.2724281171262264,0.8875614181756972,-2.0925836889028546
2024-12-07 20:21:16.990083000,9.4080830078125,0.2231273489929735,1.1711164939939975,-1.5045906159743665
2024-12-07 20:21:17.000097000,9.418096923828124,0.6185888483308255,1.3522516443014143,-0.7548569751687347
2024-12-07 20:21:17.010111000,9.428111083984374,0.7895943804204464,1.3606962320417164,-0.0183349173095077
2024-12-07 20:21:17.020125000,9.438125,0.7631063325978815,1.1745739409714937,0.4897045481339097
2024-12-07 20:21:17.030138000,9.44813818359375,0.6145229140661657,0.7185650339514017,0.7039142850473523
2024-12-07 20:21:17.040151800,9.45815185546875,0.3675172613576054,0.196916656807065,0.7656843663923442
2024-12-07 20:21:17.050166000,9.468166015625,0.0771837774455547,-0.221501062965393,0.7383425512846559
2024-12-07 20:21:17.060180000,9.478179931640623,-0.2076218829557299,-0.4969014739006757,0.658219432451576
2024-12-07 20:21:17.070193000,9.48819287109375,-0.3358089946687221,-0.6069201839774847,0.5806100500050931
2024-12-07 20:21:17.080206800,9.498206787109376,-0.2926737634278833,-0.6062848086833954,0.4525760099619627
2024-12-07 20:21:17.090221000,9.508220947265626,-0.1666319931805133,-0.5588549489885568,0.2634606745555997
2024-12-07 20:21:17.100235000,9.518235107421877,-0.0268855227075517,-0.4181663753598928,0.1477523014698177
2024-12-07 20:21:17.110248000,9.528248046875,0.0870939076937735,-0.2068038445711136,0.0616748773422092
2024-12-07 20:21:17.120262000,9.538261962890624,0.0495288047354668,0.0442553213119506,0.0346227658960968
2024-12-07 20:21:17.130275800,9.54827587890625,-0.2099098477624356,0.2495125209629535,0.0520368420336395
2024-12-07 20:21:17.140289500,9.55828955078125,-0.5797263259731232,0.3527507771193981,0.005288680992648
2024-12-07 20:21:17.150303500,9.568303466796875,-0.9259949014663696,0.3614315117031335,-0.0743651398282498
2024-12-07 20:21:17.160317400,9.5783173828125,-1.1661387786466628,0.3228454681992531,-0.0742718355216085
2024-12-07 20:21:17.170331400,9.588331298828123,-1.2252760272700338,0.2171925521165132,-0.0743473119106143
2024-12-07 20:21:17.180344300,9.59834423828125,-1.0918787796933205,0.1469528947204351,-0.059050227927044
2024-12-07 20:21:17.190358500,9.608358642578125,-0.8285515222590416,0.1158247660070657,-0.0714225105050951
2024-12-07 20:21:17.200372500,9.61837255859375,-0.6280700125772506,0.0430956298828125,-0.1165832562241703
2024-12-07 20:21:17.210386400,9.628386474609377,-0.5940601909477263,-0.0401490550369024,-0.1704837732378393
2024-12-07 20:21:17.220399400,9.6383994140625,-0.6837514947235583,-0.1051741926550865,-0.1888810151938348
2024-12-07 20:21:17.230413300,9.648413330078125,-0.7756231382131576,-0.0790267749637365,-0.1789998918443918
2024-12-07 20:21:17.240427500,9.658427490234375,-0.7761655745267868,0.0399649306416511,-0.0952054640874266
2024-12-07 20:21:17.250441200,9.668441162109374,-0.6369757150232791,0.2130126360833645,-0.0186491708904504
2024-12-07 20:21:17.260454400,9.678454345703123,-0.483487865576148,0.4149994357615709,0.010700403843075
2024-12-07 20:21:17.270468400,9.68846826171875,-0.3846463830739259,0.6169856509178877,-0.0868543998494744
2024-12-07 20:21:17.280482600,9.698482666015623,-0.3298369345217943,0.7523311099529266,-0.3414079837195575
2024-12-07 20:21:17.290495500,9.70849560546875,-0.0720493371665477,0.811096602654457,-0.588080312820524
2024-12-07 20:21:17.300509400,9.718509521484377,0.3140951755106449,0.7403881587028504,-0.85839699075073
2024-12-07 20:21:17.310523400,9.7285234375,0.6897241393923759,0.6259498786181211,-0.9687012397706508
2024-12-07 20:21:17.320537300,9.738537353515625,1.0805571021467446,0.5697130276113748,-0.8723805079177022
2024-12-07 20:21:17.330550500,9.748550537109375,1.4598451730579136,0.6013713176786899,-0.6747953041993081
2024-12-07 20:21:17.340564500,9.758564453125,1.5373440078020095,0.8125853799074888,-0.5329604831449687
2024-12-07 20:21:17.350578400,9.768578369140624,1.2623913406342266,1.1903490177303553,-0.2924747337244451
2024-12-07 20:21:17.360592400,9.77859228515625,0.8331313243299722,1.5427204401433467,0.2090799728095531
2024-12-07 20:21:17.370605600,9.78860546875,0.5951146684367209,1.610510950821638,0.4052783983446657
2024-12-07 20:21:17.380619500,9.79861962890625,0.5326092585545033,1.4746891064465044,0.4363162184260785
2024-12-07 20:21:17.390633500,9.808633544921875,0.4339250855058431,1.1453437548339367,0.5410317075282335
2024-12-07 20:21:17.400647400,9.8186474609375,0.3056360477883368,0.7164397123605013,0.6026575580969452
2024-12-07 20:21:17.410660600,9.82866064453125,0.2754220382452011,0.2790922511905431,0.26627631649822
2024-12-07 20:21:17.420674300,9.83867431640625,0.4027929382044822,-0.1386936004191637,-0.2966127103120088
2024-12-07 20:21:17.430688300,9.848688232421877,0.5856219598829746,-0.4150006048053503,-0.6903826033011078
2024-12-07 20:21:17.440701400,9.858701416015624,0.6828349644005298,-0.567771245893836,-0.8551657537445425
2024-12-07 20:21:17.450715600,9.868715576171876,0.705071419193223,-0.615735358595848,-0.9117012954369188
2024-12-07 20:21:17.460729300,9.878729248046875,0.6829431740153581,-0.5481067604809999,-0.9361205741614104
2024-12-07 20:21:17.470743300,9.888743408203124,0.6073785222042352,-0.4480319367915392,-0.9618369069591164
2024-12-07 20:21:17.480756500,9.898756591796875,0.5662199247986078,-0.3104325613498687,-1.0002955246910452
2024-12-07 20:21:17.490770400,9.9087705078125,0.5911545326340943,-0.2545095985978842,-1.1763798213496803
2024-12-07 20:21:17.500784400,9.918784423828123,0.6118518682260066,-0.2710065598905086,-1.4057026639819143
2024-12-07 20:21:17.510798300,9.92879833984375,0.5542495010197163,-0.3382873674809932,-1.5849039236173033
2024-12-07 20:21:17.520811300,9.938811279296877,0.4545481868177652,-0.3979331501483917,-1.6507444692716002
2024-12-07 20:21:17.530825500,9.948825439453126,0.192222361510992,-0.4462801246881485,-1.6702686694309117
2024-12-07 20:21:17.540839400,9.95883935546875,-0.0464834456901997,-0.4367500797986984,-1.5251207783058285
2024-12-07 20:21:17.550852600,9.9688525390625,-0.1782078646838664,-0.4528431364655494,-1.2768863144546747
2024-12-07 20:21:17.560866300,9.9788662109375,-0.2329797577045858,-0.4760077389538288,-1.0509411315619943
2024-12-07 20:21:17.570880500,9.988880615234375,-0.1380447811216116,-0.4870803371101617,-0.920880334931612
2024-12-07 20:21:17.580894500,9.99889453125,-0.0317186419524252,-0.4649462467133998,-0.8075143602535129
2024-12-07 20:21:17.590907400,10.008907470703123,0.0368967752426862,-0.4173462911486625,-0.67697863958776
2024-12-07 20:21:17.600921300,10.01892138671875,0.0887567263394594,-0.3165525055348873,-0.4773009936347603
2024-12-07 20:21:17.610935600,10.028935546875,0.0855108762860298,-0.2325684004247188,-0.2088523015335202
2024-12-07 20:21:17.620949500,10.038949462890624,0.0855215438105165,-0.1605517964839935,-0.0274830502092838
2024-12-07 20:21:17.630962400,10.04896240234375,0.1091181079752743,-0.1832119565814733,0.0487546785578131
2024-12-07 20:21:17.640976400,10.058976318359376,0.0960593044377863,-0.3571820375651121,0.0062988078832626
2024-12-07 20:21:17.650990600,10.068990478515625,0.1850416562266647,-0.6838076088249683,-0.1438216109573841
2024-12-07 20:21:17.661004500,10.079004638671876,0.2603665079325437,-1.0660516069322823,-0.3412833344265818
2024-12-07 20:21:17.671017500,10.089017578125,0.3430950600236654,-1.3885861094862222,-0.5516249977350235
2024-12-07 20:21:17.681031400,10.099031494140624,0.4675561369508504,-1.6491156990259883,-0.7694675381928682
2024-12-07 20:21:17.691045600,10.109045654296876,0.6110236737735569,-1.852014352852106,-0.97191084946692
2024-12-07 20:21:17.701058300,10.119058349609375,0.7392069860942662,-1.9495488444089888,-1.04961631269902
2024-12-07 20:21:17.711072500,10.129072509765624,0.774409232378751,-1.7955518763959406,-0.948628173556924
2024-12-07 20:21:17.721086500,10.13908642578125,0.7145603283546864,-1.5044167207121848,-0.7071902379781008
2024-12-07 20:21:17.731100400,10.149100341796874,0.5487019498951733,-1.1645423763006926,-0.4010384226873517
2024-12-07 20:21:17.741113300,10.15911328125,0.3925890126414597,-0.8421692017883062,-0.0674815908595919
2024-12-07 20:21:17.751127600,10.16912744140625,0.2668260593354702,-0.6261492005825042,0.3487140689492225
2024-12-07 20:21:17.761141500,10.1791416015625,0.1113105034530162,-0.4477209711462259,0.7422264800459146
2024-12-07 20:21:17.771155500,10.189155517578126,-0.0181792152911424,-0.4185281944096088,1.0909998779669403
2024-12-07 20:21:17.781168400,10.19916845703125,-0.2254565225929021,-0.4174819002270698,1.3409139654681086
2024-12-07 20:21:17.791182600,10.2091826171875,-0.5197311453461647,-0.3760211780697107,1.4361922025308012
2024-12-07 20:21:17.801196300,10.2191962890625,-0.8481779406838118,-0.2968354131519794,1.3131167347431183
2024-12-07 20:21:17.811209500,10.22920947265625,-1.2087784083902835,-0.1714215655446052,1.0515455271959304
2024-12-07 20:21:17.821223400,10.239223388671874,-1.4020751211345197,-0.0731768798917532,0.7322960376620292
2024-12-07 20:21:17.831237400,10.2492373046875,-1.3725292931765316,0.0055254854232072,0.2997881254777312
2024-12-07 20:21:17.841251300,10.259251220703124,-1.4491525141298771,0.0811982737839221,-0.0466264343574643
2024-12-07 20:21:17.851264500,10.269264404296877,-1.635142118731141,0.0261263749033212,-0.2636918529629707
2024-12-07 20:21:17.861278500,10.279278564453126,-1.627465592753887,-0.1539852775752544,-0.4025678242117166
2024-12-07 20:21:17.871292400,10.28929248046875,-1.5203127935022114,-0.2778226696461439,-0.39620179631114
2024-12-07 20:21:17.881306400,10.299306396484376,-1.333217127355188,-0.2562228322565555,-0.2227630457252264
2024-12-07 20:21:17.891319600,10.309319580078125,-0.7866669486664235,-0.1403121415317058,-0.2010100636005401
2024-12-07 20:21:17.901333200,10.319333251953124,-0.1947257226340472,0.0920890856325626,-0.1226303543686866
2024-12-07 20:21:17.911347500,10.329347412109374,0.0596179448124021,0.4506108473688364,-0.0294786079406738
2024-12-07 20:21:17.921361400,10.339361328125,0.1858380673013627,0.8259668395280838,-0.0631999680176377
2024-12-07 20:21:17.931374300,10.349374267578124,-0.1046294182538986,1.2239432442963123,-0.0340396322458982
2024-12-07 20:21:17.941388300,10.35938818359375,-0.8129786900740117,1.713211446839571,0.2691360898435115
2024-12-07 20:21:17.951402500,10.369402587890624,-1.4057159618549049,2.3559341810822487,0.8268246254011988
2024-12-07 20:21:17.961415400,10.37941552734375,-1.6258622492104768,3.0821868469268083,1.3904872669324275
2024-12-07 20:21:17.971429400,10.389429443359376,-1.2595033641077578,3.503108658474684,1.8613591043025253
2024-12-07 20:21:17.981443300,10.399443359375,-0.6225147896029055,3.1716151889175173,2.0021523073494434
2024-12-07 20:21:17.991457500,10.40945751953125,-0.2895733131945133,2.1224024885833264,1.4512532858014109
2024-12-07 20:21:18.001470200,10.41947021484375,-0.0220931007992476,0.8201818263858556,0.2483762104094028
2024-12-07 20:21:18.011484400,10.429484375,0.0364596989996731,-0.3011339871287345,-0.9927125222161411
2024-12-07 20:21:18.021498400,10.439498291015624,-0.1746930614959448,-1.2090098790585997,-1.8719599932938813
2024-12-07 20:21:18.031512600,10.4495126953125,-0.1916646545629948,-1.8205653216212987,-2.447171033799648
2024-12-07 20:21:18.041525200,10.459525146484374,-0.1804232026457786,-2.066791660520434,-2.930193035429716
2024-12-07 20:21:18.051539500,10.46953955078125,-0.548988804012537,-1.9593886858999727,-3.0469588816791773
2024-12-07 20:21:18.061553400,10.479553466796874,-0.4231558542102575,-1.6247200934380293,-2.63773393766582
2024-12-07 20:21:18.071566300,10.48956640625,-0.059918754389882,-1.2767045281469822,-1.865601856438816
2024-12-07 20:21:18.081580300,10.499580322265626,0.1203450199104845,-0.9006102848410605,-1.1540727124735712
2024-12-07 20:21:18.091594500,10.509594482421877,0.134973264721781,-0.3610907354414462,-0.5631830413207412
2024-12-07 20:21:18.101608400,10.5196083984375,0.2523367846034467,0.1968798319280147,-0.0701978640809655
2024-12-07 20:21:18.111621400,10.529621337890624,0.3374087580155581,0.6135843180418015,0.2779775679469108
2024-12-07 20:21:18.121635300,10.53963525390625,0.6774620391905307,0.753262837845087,0.6442044972330332
2024-12-07 20:21:18.131649300,10.549649169921874,1.146133005515486,0.7372603820711374,0.7312740011379122
2024-12-07 20:21:18.141663200,10.559663330078124,1.4220084866166114,0.6598498101323843,0.3804366564244031
2024-12-07 20:21:18.151676400,10.569676513671874,1.38536364030838,0.5628127467036247,-0.2686284325823188
2024-12-07 20:21:18.161690000,10.579690185546877,0.9675438133638352,0.54187751070261,-0.934000805528462
2024-12-07 20:21:18.171704300,10.589704345703124,0.4242787207603454,0.5925280860096216,-1.5145388862758875
2024-12-07 20:21:18.181717500,10.599717529296877,0.1120885020881891,0.5641764362722635,-2.017435216677189
2024-12-07 20:21:18.191731500,10.6097314453125,0.0413736283957958,0.3837175777912139,-2.4235753464177248
2024-12-07 20:21:18.201745200,10.6197451171875,0.1617109764564782,0.1172533375054597,-2.652418296578526
2024-12-07 20:21:18.211759400,10.62975927734375,0.4870120211143046,-0.1471925486952066,-2.6600664732441306
2024-12-07 20:21:18.221772500,10.6397724609375,0.9356161317706108,-0.2781757208675146,-2.4071564187973737
2024-12-07 20:21:18.231786200,10.6497861328125,1.4574129774749278,-0.3632897067904472,-2.002613787381351
2024-12-07 20:21:18.241800200,10.65980029296875,1.7907605504661797,-0.3614963936328887,-1.550698579415679
2024-12-07 20:21:18.251814400,10.669814453125,1.675403986492753,-0.242473123845458,-1.088275713700056
2024-12-07 20:21:18.261827300,10.679827392578124,1.3062234680980442,-0.0723503659397363,-0.6778577605098486
2024-12-07 20:21:18.271841300,10.68984130859375,0.9784820445507764,0.1310404553174972,-0.3830868786722421
2024-12-07 20:21:18.281855200,10.699855224609376,0.8079419380158186,0.2211889282763004,-0.108765202884376
2024-12-07 20:21:18.291869400,10.709869384765623,0.635484015160799,0.2099801365196704,0.0630526685014367
2024-12-07 20:21:18.301882400,10.71988232421875,0.3578291032969951,0.1616740785121917,0.1373883630394935
2024-12-07 20:21:18.311896300,10.729896240234376,0.1255272539871279,0.0745025755375623,0.1313029056459665
2024-12-07 20:21:18.321910300,10.73991015625,0.0375356576681137,-0.0086392335295677,0.1259400634385645
2024-12-07 20:21:18.331923200,10.749923095703124,0.1829389848589897,-0.0449368738353252,0.2445715574294328
2024-12-07 20:21:18.341937400,10.7599375,0.5969651916742325,-0.0832061064749956,0.4506710531234741
2024-12-07 20:21:18.351951400,10.769951416015624,1.0195815321803092,-0.1493611249059438,0.7168332417227328
2024-12-07 20:21:18.361965300,10.77996533203125,1.3879238461852073,-0.1640297017276287,0.977765859105438
2024-12-07 20:21:18.371978200,10.789978271484374,1.3824994830489157,-0.1077694698452949,1.183772415819019
2024-12-07 20:21:18.381992400,10.799992431640623,1.029298624074459,-0.010576339071989,1.3684829403951764
2024-12-07 20:21:18.392006400,10.81000634765625,0.8089327026188373,0.1217360358774661,1.6273603788137434
2024-12-07 20:21:18.402020400,10.820020263671877,0.6423403838615864,0.1056079078972339,1.6347485893689095
2024-12-07 20:21:18.412033300,10.830033203125,0.4735527470171451,0.026969839990139,1.5366567561902105
2024-12-07 20:21:18.422047500,10.840047607421877,0.2465641925513744,0.0360714303344488,1.2523327418260275
2024-12-07 20:21:18.432061400,10.8500615234375,-0.0674666855514049,0.0483288543611764,0.7008426225170493
2024-12-07 20:21:18.442074400,10.860074462890625,-0.408507151132822,0.0491015922993421,0.047449441178143
2024-12-07 20:21:18.452088300,10.87008837890625,-0.5854968721985817,0.1230108781188726,-0.4049855528779327
2024-12-07 20:21:18.462102500,10.8801025390625,-0.4698819495499133,0.1587105525314807,-0.5787830537736416
2024-12-07 20:21:18.472116200,10.8901162109375,-0.1629857456326484,0.1804535977840423,-0.6471919886112213
2024-12-07 20:21:18.482129400,10.90012939453125,0.1501975391974672,0.2176473101466894,-0.6773876587800681
2024-12-07 20:21:18.492143400,10.910143310546877,0.4306289665699004,0.1572773048579692,-0.7001618006460368
2024-12-07 20:21:18.502157600,10.920157470703124,0.5844447327971458,-0.0332335765600204,-0.7165751753084361
2024-12-07 20:21:18.512171300,10.930171142578123,0.5231143580436706,-0.3270131092727184,-0.8599959503799677
2024-12-07 20:21:18.522184400,10.940184326171876,0.6541513062298298,-0.5790495957553387,-0.9404605030618608
2024-12-07 20:21:18.532198400,10.950198486328125,0.9353741397082804,-0.6673901425093413,-0.9359268051549792
2024-12-07 20:21:18.542212400,10.96021240234375,1.013503673571348,-0.5416086306333542,-0.8865221382558345
2024-12-07 20:21:18.552225300,10.970225341796874,0.9088158031284808,-0.3723416127741336,-0.7476428060062229
2024-12-07 20:21:18.562239500,10.980239501953124,0.6974619671028107,-0.2072527573823928,-0.5729540553592145
2024-12-07 20:21:18.572253200,10.990253173828124,0.4328828099112957,-0.0821171421945095,-0.3417848542079329
2024-12-07 20:21:18.582267400,11.000267333984375,0.049929859817028,0.0113531686633825,-0.0936475671209394
2024-12-07 20:21:18.592280300,11.0102802734375,-0.2845453654972836,0.019996493846178,0.2046867062866687
2024-12-07 20:21:18.602294500,11.02029443359375,-0.5120260508615523,-0.0738958418160676,0.4548194049745798
2024-12-07 20:21:18.612308200,11.03030810546875,-0.545946952098608,-0.1397650290429592,0.6545610560745
2024-12-07 20:21:18.622322400,11.040322509765623,-0.4690799124520272,-0.115831780269742,0.8372592179149388
2024-12-07 20:21:18.632335400,11.05033544921875,-0.314193302122876,-0.0548439353436231,0.9761242293782532
2024-12-07 20:21:18.642349300,11.060349365234377,-0.2789748353559523,-0.0950111105591058,1.0003341031357644
2024-12-07 20:21:18.652363300,11.07036328125,-0.358539881914854,-0.2038362269371748,1.0085584722541272
2024-12-07 20:21:18.662376400,11.08037646484375,-0.4207727584660053,-0.3139595664322376,0.9814486392714082
2024-12-07 20:21:18.672390400,11.090390380859375,-0.4070389052111655,-0.3267845612138509,0.9879508607722818
2024-12-07 20:21:18.682404400,11.100404296875,-0.2354758123040199,-0.1504752236276865,1.0369861098371445
2024-12-07 20:21:18.692418300,11.110418212890623,-0.0388297891318798,-0.0083779522448778,0.98832729286924
2024-12-07 20:21:18.702431500,11.120431396484374,0.0392997447311878,0.0208259304076433,0.7856368749663233
2024-12-07 20:21:18.712445200,11.130445068359377,-0.0594224222403019,-0.0986404069721698,0.4494871040359139
2024-12-07 20:21:18.722459400,11.14045947265625,-0.2865418365441262,-0.2870329810619354,0.1052940196424722
2024-12-07 20:21:18.732473300,11.150473388671877,-0.6133306355416774,-0.4655833755731582,-0.1172824174694716
2024-12-07 20:21:18.742486300,11.160486328125,-0.8437797057248652,-0.4790057517260312,-0.0239369020350277
2024-12-07 20:21:18.752500200,11.170500244140625,-0.9467572651185094,-0.4625117130428552,0.193540019980818
2024-12-07 20:21:18.762514400,11.180514404296876,-0.8645967221736908,-0.3855225813865661,0.3686791447438299
2024-12-07 20:21:18.772527400,11.19052734375,-0.6069979984540492,-0.2571539756268263,0.4030839570403098
2024-12-07 20:21:18.782541300,11.200541259765624,-0.343190556287393,-0.1574544149905443,0.3501806343704461
2024-12-07 20:21:18.792555300,11.21055517578125,-0.1467009657859802,-0.1083808797419071,0.3107489338226616
2024-12-07 20:21:18.802569500,11.220569580078124,0.0342658422172069,-0.0584428366184234,0.2951115119688213
2024-12-07 20:21:18.812582100,11.23058203125,0.1409866797924041,-0.0752776515632867,0.2583643743298948
2024-12-07 20:21:18.822596400,11.240596435546877,0.1102548569202423,-0.2350543720215558,0.2200476492866873
2024-12-07 20:21:18.832610300,11.2506103515625,0.0253073866706341,-0.3779851716190576,0.238791512723267
2024-12-07 20:21:18.842624500,11.26062451171875,-0.1056781235892325,-0.5215373179852962,0.2115650676235556
2024-12-07 20:21:18.852637200,11.27063720703125,-0.2151554933309555,-0.5279296493709087,0.2901151649862528
2024-12-07 20:21:18.862651400,11.2806513671875,-0.2479461484290659,-0.5704723215460777,0.3333214156366884
2024-12-07 20:21:18.872665300,11.290665283203126,-0.208250243987143,-0.6032271746784448,0.3348717138186097
2024-12-07 20:21:18.882679600,11.300679443359376,-0.2619162215925752,-0.5519967536568642,0.3650979252561926
2024-12-07 20:21:18.892692200,11.310692138671875,-0.1803076134420931,-0.3920487682849168,0.4449610049135982
2024-12-07 20:21:18.902706400,11.32070654296875,0.0331051278747618,-0.1704056665003299,0.4848598845817148
2024-12-07 20:21:18.912720400,11.330720458984375,0.2659060218811035,0.1025952820777893,0.4947865275733172
2024-12-07 20:21:18.922733300,11.3407333984375,0.3966881185233593,0.1839963849574327,0.4256143532782793
2024-12-07 20:21:18.932747300,11.350747314453123,0.4120094601653516,0.0883171658784151,0.2486807463139295
2024-12-07 20:21:18.942761500,11.360761474609374,0.3180757695794105,-0.0447276149988174,0.0956233972385525
2024-12-07 20:21:18.952775200,11.370775146484377,0.1715408080101013,-0.0607055208534002,-0.0362264747656881
2024-12-07 20:21:18.962788400,11.380788330078126,0.123756143528223,0.0379991835266351,-0.1167209841944277
2024-12-07 20:21:18.972802300,11.39080224609375,0.0886848301470279,0.1572100848406553,-0.1961743870723992
2024-12-07 20:21:18.982816500,11.40081640625,0.0680336717844009,0.1987351044058799,-0.210654747845605
2024-12-07 20:21:18.992829400,11.410829345703124,0.0722013128578662,0.2038052472770214,-0.1430245422955602
