time,seconds_elapsed,z,y,x
2024-12-07 20:26:41.525889000,0.019888916015625,0.0137994110380299,-0.3066799308180808,0.0499023872882127
2024-12-07 20:26:41.535902000,0.02990185546875,0.0733054929737933,-0.1893599578171968,-0.0042085576057434
2024-12-07 20:26:41.545916200,0.039916259765625,0.1322714584171772,-0.0415238505214452,0.0414274044096469
2024-12-07 20:26:41.555929900,0.049929931640625,0.0756348127041943,-0.0402916783779859,0.0453507153332233
2024-12-07 20:26:41.565943000,0.059943115234375,0.0055629130904562,-0.1355319215178489,0.0495125111877918
2024-12-07 20:26:41.575957000,0.06995703125,-0.0034813941086642,-0.1481155087590217,0.0428647437363862
2024-12-07 20:26:41.585971000,0.079970947265625,0.0578355366413481,-0.1143693065017461,0.0080249010235071
2024-12-07 20:26:41.595984000,0.08998388671875,0.0567641080175526,-0.081703885218501,0.0474859737962484
2024-12-07 20:26:41.605998000,0.099998046875,0.07896249582218,-0.2444429626137018,0.0959217956632375
2024-12-07 20:26:41.616011800,0.11001171875,0.0916635902294889,-0.3947673795938491,0.2335381222397088
2024-12-07 20:26:41.626025000,0.12002490234375,-0.1311339788198471,-0.4336725720494985,0.3839209914088249
2024-12-07 20:26:41.636039000,0.130038818359375,-0.2508393856525421,-0.2275397586077451,0.4314005354642868
2024-12-07 20:26:41.646053000,0.14005322265625,-0.2554003916914574,-0.004873158994317,0.2936076832771301
2024-12-07 20:26:41.656066000,0.150066162109375,-0.0792202151766046,-0.0235591547638177,0.0786953510522842
2024-12-07 20:26:41.666080000,0.160080078125,0.1642237812613137,-0.2440226913750171,-0.1503612418591976
2024-12-07 20:26:41.676094000,0.170093994140625,0.3503121517956257,-0.6287965002208947,-0.2713572730243206
2024-12-07 20:26:41.686107000,0.18010693359375,0.2962561702256091,-2.2159949645161627,-0.9243260914713144
2024-12-07 20:26:41.696121000,0.19012109375,0.1629331386625766,-4.494845321395993,-1.9709785859286784
2024-12-07 20:26:41.706135000,0.200135009765625,0.3399012324184179,-4.13085711094737,-1.421311736524105
2024-12-07 20:26:41.716148000,0.21014794921875,0.2464507953047752,-3.492712352144718,-1.1157283687710762
2024-12-07 20:26:41.726162000,0.220161865234375,-0.1602607045829296,-2.8316929137110707,-1.1991489947795868
2024-12-07 20:26:41.736176000,0.230176025390625,-0.2514730073809623,-1.8443629613161088,-1.5051006113231182
2024-12-07 20:26:41.746188800,0.240188720703125,-0.3130582336783409,-1.0030436543554069,-1.4406173254966734
2024-12-07 20:26:41.756203000,0.250203125,-0.391086060732603,0.1765887390494346,-1.745638383191824
2024-12-07 20:26:41.766217000,0.260217041015625,0.0427624524056911,0.6330003816515207,-1.4928601384311913
2024-12-07 20:26:41.776230000,0.27022998046875,0.792666627472639,0.6495300761699676,-1.172911560717225
2024-12-07 20:26:41.786243800,0.280243896484375,0.7649439232885837,1.3234516662746667,-1.431407014080882
2024-12-07 20:26:41.796257800,0.2902578125,0.2200292368471622,1.5762819334834812,-1.1655559372574091
2024-12-07 20:26:41.806270700,0.300270751953125,-0.0082195468127727,1.0374760853111744,-0.1990899091929197
2024-12-07 20:26:41.816285000,0.310284912109375,-0.08455927464962,0.5254553682118654,1.0118599980175496
2024-12-07 20:26:41.826298600,0.320298583984375,-0.1650923807893879,0.3639151452124118,1.5874132760897277
2024-12-07 20:26:41.836311800,0.330311767578125,-0.2656617099975236,0.6195423496633767,1.5549828326061368
2024-12-07 20:26:41.846325800,0.34032568359375,-0.325799641829729,0.821357884427905,1.350617028836906
2024-12-07 20:26:41.856339700,0.350339599609375,-0.2514905430376529,1.4248983628392218,1.1711971580147742
2024-12-07 20:26:41.866353000,0.360352783203125,0.1000034754863008,1.678404921874404,1.2448141828894614
2024-12-07 20:26:41.876366800,0.370366943359375,2.045117004328966,-2.853369907990098,1.602057010731101
2024-12-07 20:26:41.886380800,0.380380859375,3.5070120956540105,-11.430196958005428,1.432537187154591
2024-12-07 20:26:41.896393700,0.390393798828125,-0.1459165739426389,-5.8882800399571655,-0.8792349038571119
2024-12-07 20:26:41.906408000,0.400407958984375,-1.3455997851967811,-2.2063474307268858,-2.650419523976743
2024-12-07 20:26:41.916422000,0.410421875,-1.2330641238629818,-2.3206074316352603,-3.001782646130025
2024-12-07 20:26:41.926435600,0.420435546875,-0.8245499584674835,-1.782551525047421,-2.824389604960382
2024-12-07 20:26:41.936448800,0.43044873046875,-0.0722375897476449,-1.0511474677890538,-2.2130311462745067
2024-12-07 20:26:41.946463000,0.440462890625,0.2129541473617777,-1.0373550892800092,-1.8104682904988527
2024-12-07 20:26:41.956476700,0.4504765625,0.619625936293602,-1.259785542050004,-1.3544590912178158
2024-12-07 20:26:41.966489900,0.46048974609375,0.6029565775761381,-1.3973340640872716,-1.0431775118231772
2024-12-07 20:26:41.976503800,0.47050390625,0.3204524355828761,-1.5081529846310615,-0.8362748830527067
2024-12-07 20:26:41.986518000,0.48051806640625,-0.2177555197615176,-0.5835591821342706,-0.3487865496635436
2024-12-07 20:26:41.996530700,0.49053076171875,-0.7612275331139564,2.905761189484596,1.4178142497971653
2024-12-07 20:26:42.006545000,0.500544921875,-0.5549673669654875,7.906585609728097,3.527116141527891
2024-12-07 20:26:42.016557600,0.5105576171875,-0.628252456472069,11.662165638971327,4.08738387992382
2024-12-07 20:26:42.026571800,0.52057177734375,-0.7741887945611029,13.029550554996728,3.2093308793276547
2024-12-07 20:26:42.036585700,0.530585693359375,-0.8435727119106798,10.7427314111948,0.710308077737689
2024-12-07 20:26:42.046599000,0.540598876953125,-0.3660463485548272,4.341703508907556,-1.431778185480833
2024-12-07 20:26:42.056612600,0.550612548828125,0.3963677274625748,0.2604524326503277,-0.8730994698420167
2024-12-07 20:26:42.066626800,0.560626708984375,0.8476923491239547,-1.416205353295803,-0.4239984425142407
2024-12-07 20:26:42.076640800,0.570640869140625,0.8496399760603904,-2.262237660253048,-0.5621928612396121
2024-12-07 20:26:42.086653700,0.58065380859375,0.4185633022556081,-2.417799977886677,-0.441920468173921
2024-12-07 20:26:42.096667600,0.590667724609375,0.3240052326936274,-1.837697073686123,0.3548068328663706
2024-12-07 20:26:42.106681900,0.600681884765625,0.3160919022858142,-1.0507383024662733,0.8666083542570471
2024-12-07 20:26:42.116694800,0.61069482421875,0.0862859157791361,-0.3221902191609144,1.167622222137451
2024-12-07 20:26:42.126708700,0.620708740234375,-0.4273767598409205,0.6593067892968654,1.06370592058897
2024-12-07 20:26:42.136722700,0.63072265625,0.3456780622541904,0.3210667680889368,-0.0800379978328943
2024-12-07 20:26:42.146735900,0.64073583984375,0.5954746608555317,0.3703799573123454,-0.1173804710164666
2024-12-07 20:26:42.156749800,0.650749755859375,0.1736392415940761,0.4122609507083892,-0.0453179821074008
2024-12-07 20:26:42.166763800,0.660763671875,-0.239703001544997,0.1071229886353015,-0.1615039826422929
2024-12-07 20:26:42.176777000,0.67077685546875,-0.0419019631188362,-0.1293576167970895,-0.2519073071449995
2024-12-07 20:26:42.186790700,0.680790771484375,0.1983282771706581,-0.1695230384469032,-0.4633008175939321
2024-12-07 20:26:42.196804900,0.690804931640625,0.2193886008560657,-0.1562906319081783,-0.6162304486364126
2024-12-07 20:26:42.206817800,0.70081787109375,0.148342266719602,-0.0881739580154419,-0.6477455308407545
2024-12-07 20:26:42.216831700,0.710831787109375,0.0989595559239387,0.0546153872847557,-0.5177236049160361
2024-12-07 20:26:42.226845700,0.720845703125,0.0168027393061667,0.1494108092665672,-0.3192401371836662
2024-12-07 20:26:42.236859000,0.73085888671875,-0.1004945834714919,0.161888013523817,-0.0685039196446538
2024-12-07 20:26:42.246872800,0.740872802734375,-0.1375684323141351,0.1459919407337903,0.1181803892225027
2024-12-07 20:26:42.256886800,0.75088671875,-0.0557073107073083,0.0734258862167596,0.1891948303833603
2024-12-07 20:26:42.266899700,0.760899658203125,0.1019488008677959,0.0185246677279472,0.1748164686799049
2024-12-07 20:26:42.276914000,0.770913818359375,0.1299380105009302,-0.0378559756636619,0.054797465853393
2024-12-07 20:26:42.286927600,0.780927734375,0.0329249490022659,-0.0502554385095834,-0.1112108424708247
2024-12-07 20:26:42.296940800,0.79094091796875,-0.1456967206468805,0.0133411276102066,-0.2786661347329616
2024-12-07 20:26:42.306954800,0.800954833984375,-0.3110708957860246,0.1039011039793491,-0.39514819560498
2024-12-07 20:26:42.316969000,0.810968994140625,-0.395534308845736,0.1779658726215362,-0.4210691110640764
2024-12-07 20:26:42.326982000,0.82098193359375,-0.4605412897527217,0.1396580615371465,-0.359194546431303
2024-12-07 20:26:42.336995800,0.830995849609375,-0.3577601297140121,0.017872341299057,-0.1539557592198252
2024-12-07 20:26:42.347009800,0.841009765625,-0.1428290927886963,-0.1661111841768026,0.1051841295272111
2024-12-07 20:26:42.357022700,0.851022705078125,0.0826630856394767,-0.3606178572326898,0.4052557481214404
2024-12-07 20:26:42.367037000,0.861036865234375,0.2672994855334982,-0.4284557141840457,0.7239473115116357
2024-12-07 20:26:42.377051000,0.87105078125,0.353539881670475,-0.4324269559025764,0.9221697902202606
2024-12-07 20:26:42.387063800,0.881063720703125,0.2415782573649659,-0.3785270234107971,0.921406112371385
2024-12-07 20:26:42.397077800,0.891077880859375,0.0274468098521232,-0.309549933296442,0.7779767156019807
2024-12-07 20:26:42.407092000,0.901092041015625,-0.1560018780946731,-0.2068932764202356,0.6086313718095422
2024-12-07 20:26:42.417104600,0.911104736328125,-0.2026373725414276,-0.118953711682558,0.4284308720037341
2024-12-07 20:26:42.427118800,0.921118896484375,-0.1722749309709295,-0.0798328306496143,0.2611836695343256
2024-12-07 20:26:42.437132800,0.9311328125,-0.1842705257236957,-0.0701344434559345,0.0584171176552772
2024-12-07 20:26:42.447145700,0.941145751953125,-0.3112450833091512,-0.0818564454317092,-0.1978743959233164
2024-12-07 20:26:42.457159700,0.95115966796875,-0.4234358036627992,-0.0517570752441883,-0.3640899172574282
2024-12-07 20:26:42.467172900,0.9611728515625,-0.3136708491513505,0.0027747254103422,-0.3474161380931735
2024-12-07 20:26:42.477186800,0.971186767578125,-0.0700783293545246,0.0530482840985059,-0.2555284202516079
2024-12-07 20:26:42.487200800,0.98120068359375,0.1998527102589607,0.0819195737957954,-0.1601248032435774
2024-12-07 20:26:42.497214000,0.9912138671875,0.362098451179266,0.0543184501647949,-0.1309603758186102
2024-12-07 20:26:42.507228000,1.001227783203125,0.3708194812407717,-0.0311105930566787,-0.2525564187034964
2024-12-07 20:26:42.517241600,1.01124169921875,0.2683972176423296,-0.067145783033967,-0.460406557457149
2024-12-07 20:26:42.527254800,1.0212548828125,0.2501776703407988,-0.0356125806510448,-0.6273743584632873
2024-12-07 20:26:42.537269000,1.03126904296875,0.2211923623424023,0.0027870003700256,-0.7747083614557981
2024-12-07 20:26:42.547282700,1.04128271484375,0.1323626072993502,0.0531558361262083,-0.8741519015043974
2024-12-07 20:26:42.557296600,1.051296630859375,0.0349486003169789,0.1061217026382684,-0.758688077764213
2024-12-07 20:26:42.567309800,1.061309814453125,0.0282593318114057,0.1083779571324586,-0.5341854948952793
2024-12-07 20:26:42.577324000,1.071323974609375,0.0623065263092517,0.088707041978836,-0.3318400910377502
2024-12-07 20:26:42.587336700,1.081336669921875,0.0233785009672865,0.0563017329365015,-0.1824558775171637
2024-12-07 20:26:42.597351000,1.091350830078125,-0.0159457936832681,0.0361257908701896,-0.0860430834665894
2024-12-07 20:26:42.607364900,1.10136474609375,-0.0751964030206203,0.028271570238471,-0.032708383642137
2024-12-07 20:26:42.617378800,1.11137890625,-0.1144096750447526,-0.03948211556077,0.0378013228669762
2024-12-07 20:26:42.627391700,1.121391845703125,-0.0724456795403733,-0.1332762515455484,0.0866013018712401
2024-12-07 20:26:42.637406000,1.131406005859375,-0.0043582317421212,-0.1805412760674953,0.0849628870144486
2024-12-07 20:26:42.647418600,1.141418701171875,0.0369184025526046,-0.1767699408352375,0.0927946035534143
2024-12-07 20:26:42.657432800,1.151432861328125,0.0078758114090189,-0.0901169087767601,0.0524444729864597
2024-12-07 20:26:42.667446800,1.16144677734375,-0.034980164499022,0.0094476273030042,-0.053232700754702
2024-12-07 20:26:42.677459700,1.171459716796875,-0.0919628289043903,0.0687584789276123,-0.1253150634080171
2024-12-07 20:26:42.687473700,1.1814736328125,-0.0976397054970264,0.0719125590443611,-0.0530137973070144
2024-12-07 20:26:42.697488000,1.19148779296875,0.0114028530240058,-0.0232762461692094,0.0925181246995925
2024-12-07 20:26:42.707500800,1.201500732421875,0.1668400829732418,-0.0997170962929725,0.2234814231276512
2024-12-07 20:26:42.717514800,1.2115146484375,0.3072072060951963,-0.1252250470370054,0.2040440244689583
2024-12-07 20:26:42.727528700,1.22152880859375,0.3524515019118786,-0.110786771839857,0.1123483220681548
2024-12-07 20:26:42.737542000,1.2315419921875,0.2318552837193012,-0.0892097308039665,-0.0199085233017802
2024-12-07 20:26:42.747555800,1.241555908203125,0.1148270236739888,-0.0512397733718156,-0.1911059247016906
2024-12-07 20:26:42.757569800,1.25156982421875,0.0398071097314357,-0.0041541970700025,-0.3176391317278146
2024-12-07 20:26:42.767583000,1.2615830078125,-0.0799170383343473,0.0657341626703739,-0.3858966753959655
2024-12-07 20:26:42.777596700,1.2715966796875,-0.1967185038864612,0.0892360342890024,-0.4118152527675032
2024-12-07 20:26:42.787611000,1.28161083984375,-0.2317395483851432,0.0539934559941291,-0.3681020755082368
2024-12-07 20:26:42.797623800,1.291623779296875,-0.036455497748591,0.0089396777808666,-0.2509507370725274
2024-12-07 20:26:42.807638000,1.301637939453125,0.2329857855865731,-0.0752881729573011,-0.154599610081315
2024-12-07 20:26:42.817652000,1.31165185546875,0.2479448697874322,-0.1237111353427171,-0.0463897029921412
2024-12-07 20:26:42.827665000,1.321664794921875,0.1125929079463705,-0.1050163717448711,0.054489715078473
2024-12-07 20:26:42.837678800,1.331678955078125,-0.0639630613446235,-0.0613783055484294,0.0906309957787394
2024-12-07 20:26:42.847693000,1.341693115234375,-0.1107014316439628,-0.0550976178437471,0.0397927889451384
2024-12-07 20:26:42.857705700,1.351705810546875,-0.0283153728475794,-0.0912964739501476,-0.0569420766666531
2024-12-07 20:26:42.867720000,1.361719970703125,0.0041057182857766,-0.1507937880575657,-0.1318549865707755
2024-12-07 20:26:42.877734000,1.37173388671875,0.0442226246187463,-0.1327887602895498,-0.0515858103305101
2024-12-07 20:26:42.887746800,1.381746826171875,0.0661831120142713,-0.1032645596414804,0.0976408745408058
2024-12-07 20:26:42.897760800,1.3917607421875,-0.0052898865690454,-0.0716185445338487,0.2185550726413726
2024-12-07 20:26:42.907775000,1.40177490234375,-0.1553763300748541,-0.080724811053276,0.2965364302054047
2024-12-07 20:26:42.917788000,1.411787841796875,-0.2682101706376299,-0.1083943237453699,0.2732967166543006
2024-12-07 20:26:42.927801900,1.4218017578125,-0.2996481324851512,-0.1434481014698743,0.1997375594466924
2024-12-07 20:26:42.937815800,1.43181591796875,-0.3710194242596626,-0.1620768140941858,0.194825822007656
2024-12-07 20:26:42.947829000,1.4418291015625,-0.3142950454642996,-0.1614203960120677,0.2395209960415959
2024-12-07 20:26:42.957843000,1.451843017578125,-0.2504477559864521,-0.1178226618260145,0.3147404876768588
2024-12-07 20:26:42.967857000,1.46185693359375,-0.3197966020226478,-0.0782768333792686,0.4139522647961974
2024-12-07 20:26:42.977870000,1.4718701171875,-0.4635363799154758,-0.0907891089498996,0.4574161434695124
2024-12-07 20:26:42.987884000,1.481884033203125,-0.5725965106258168,-0.1339770932912826,0.3788052558302879
2024-12-07 20:26:42.997898000,1.49189794921875,-0.6682768622159958,-0.1472311271399259,0.1896098409250378
2024-12-07 20:26:43.007911000,1.501910888671875,-0.7611515452682972,-0.1182628068089485,0.006236556302011
2024-12-07 20:26:43.017925000,1.511925048828125,-0.6571580868303776,-0.022217677026987,-0.0768438779667019
2024-12-07 20:26:43.027938800,1.521938720703125,-0.4829273090839385,0.0353290875345468,-0.0991632618024945
2024-12-07 20:26:43.037952000,1.531951904296875,-0.4499263357033953,0.0198427645891904,0.0770949301183223
2024-12-07 20:26:43.047966000,1.541966064453125,-0.5382441226363182,0.0038110827207565,0.2457809332191944
2024-12-07 20:26:43.057980000,1.55197998046875,-0.7078489941477775,-0.0485427893728017,0.3498334283679724
2024-12-07 20:26:43.067992800,1.561992919921875,-0.8427040393173694,-0.1003723453313112,0.4510521613955497
2024-12-07 20:26:43.078007000,1.572007080078125,-0.8026888397932053,-0.0991132851809263,0.532839633244276
2024-12-07 20:26:43.088021000,1.58202099609375,-0.6180874746799468,-0.0312128843873739,0.5162354121848941
2024-12-07 20:26:43.098034000,1.592033935546875,-0.4101565988402813,-0.0288747968286275,0.3751747903734445
2024-12-07 20:26:43.108048000,1.6020478515625,-0.2385655950129032,-0.0525935260683298,0.1871802756905555
2024-12-07 20:26:43.118062000,1.61206201171875,-0.2751951706867664,-0.1062806925922632,-0.112938981437683
2024-12-07 20:26:43.128075000,1.622074951171875,-0.4247826151618734,-0.2134083574026823,-0.4230924335852265
2024-12-07 20:26:43.138089000,1.6320888671875,-0.3886790726561099,-0.1985001266062259,-0.5697995368510484
2024-12-07 20:26:43.148103000,1.64210302734375,-0.2747054874736815,-0.0742839643508195,-0.5978650631234049
2024-12-07 20:26:43.158115800,1.65211572265625,-0.1692787082970142,0.015466449201107,-0.487059294322133
2024-12-07 20:26:43.168130000,1.662130126953125,-0.0891103986153379,0.101560678333044,-0.3602908172354102
2024-12-07 20:26:43.178144000,1.67214404296875,-0.0809141961455345,0.1513514219403267,-0.2027101455166935
2024-12-07 20:26:43.188157000,1.682156982421875,-0.0842003051441162,0.1705588112354278,0.0509641713008284
2024-12-07 20:26:43.198171000,1.6921708984375,-0.0659550388794392,0.1017874728262424,0.2831257444903254
2024-12-07 20:26:43.208184800,1.702184814453125,-0.0118329515369608,-0.1434340729445219,0.4279544866636395
2024-12-07 20:26:43.218197800,1.71219775390625,0.0416822559535503,-0.4897054249167442,0.4889411625459789
2024-12-07 20:26:43.228212000,1.7222119140625,0.0801870509147644,-0.7084551433473825,0.5043611422568559
2024-12-07 20:26:43.238226000,1.732225830078125,0.2545043013682588,-0.7208686347186565,0.4835892801240086
2024-12-07 20:26:43.248239000,1.742239013671875,0.369050681469962,-0.5490677144676447,0.4777075286090373
2024-12-07 20:26:43.258252800,1.752252685546875,0.2600922941010445,-0.2655687527507543,0.4783101706773042
2024-12-07 20:26:43.268267000,1.76226708984375,0.0231201788246631,-0.0842202519536018,0.4080716823250055
2024-12-07 20:26:43.278280000,1.772280029296875,-0.0740191028695553,-0.0713081634104251,0.3252022604584694
2024-12-07 20:26:43.288294000,1.7822939453125,0.0813175893146544,-0.0995738884299993,0.3118868518114089
2024-12-07 20:26:43.298307800,1.792307861328125,0.3156173435766249,-0.1705225708782672,0.2563683782070875
2024-12-07 20:26:43.308321000,1.802321044921875,0.4148515517234802,-0.2098380977004766,0.1119835804089903
2024-12-07 20:26:43.318334700,1.812334716796875,0.3508744618535042,-0.1945055040121078,-0.026598668590188
2024-12-07 20:26:43.328349000,1.822348876953125,0.2235117452006786,-0.1610831268817186,-0.0443809935182333
2024-12-07 20:26:43.338361900,1.83236181640625,-0.0245009656585752,-0.0519505519896745,-0.1029518404304981
2024-12-07 20:26:43.348376000,1.8423759765625,-0.3251123171526938,0.0052718029230833,-0.2473006901323795
2024-12-07 20:26:43.358389800,1.8523896484375,-0.5145910059787333,0.0328787717729806,-0.4031216587021947
2024-12-07 20:26:43.368403000,1.86240283203125,-0.6258383810676634,0.0307511120945215,-0.5139402869850397
2024-12-07 20:26:43.378417000,1.8724169921875,-0.5815712231874466,0.0530482840985059,-0.4845002574890851
2024-12-07 20:26:43.388430800,1.882430908203125,-0.1696598165690898,0.1596533863395452,-0.3898784385085105
2024-12-07 20:26:43.398444000,1.892444091796875,0.2538742233037948,0.1665770481228828,-0.4067281587615609
2024-12-07 20:26:43.408458000,1.9024580078125,0.5379038578312844,0.0667243427515029,-0.4364619105070829
2024-12-07 20:26:43.418472000,1.912471923828125,0.6581679945252835,-0.0479372246950864,-0.4384568837165832
2024-12-07 20:26:43.428484900,1.92248486328125,0.5546143157441169,-0.094525957390666,-0.3689110538035631
2024-12-07 20:26:43.438499000,1.9324990234375,0.3297801628332585,-0.1136450838804244,-0.1848997635379433
2024-12-07 20:26:43.448513000,1.942512939453125,0.1652092669010162,-0.1243687224686145,0.0967410030916333
2024-12-07 20:26:43.458526000,1.95252587890625,0.0769650201283395,-0.1703694261431693,0.3609384674891829
2024-12-07 20:26:43.468540000,1.962539794921875,0.0518587820529937,-0.230734755256772,0.6026268706977367
2024-12-07 20:26:43.478554000,1.97255419921875,-0.0556838202338665,-0.3394242625564336,0.7741638793155551
2024-12-07 20:26:43.488566800,1.98256689453125,-0.1140356175679713,-0.4386871853411197,0.9220771435007452
2024-12-07 20:26:43.498581000,1.9925810546875,-0.1332032593745738,-0.441551342600584,1.0663272090032696
2024-12-07 20:26:43.508595000,2.002594970703125,-0.1204441694360226,-0.4092828116804361,1.1170201621472835
2024-12-07 20:26:43.518608000,2.01260791015625,-0.1106324580609798,-0.3658025663942098,1.0878890524700284
2024-12-07 20:26:43.528621800,2.022621826171875,-0.1498936974126845,-0.2646639128655195,1.0917115333676335
2024-12-07 20:26:43.538635000,2.032635009765625,-0.2436287966866046,-0.1683212614417076,1.0147358457148077
2024-12-07 20:26:43.548649000,2.04264892578125,-0.3515981730181723,-0.177442141008377,0.8528732588931918
2024-12-07 20:26:43.558663000,2.052662841796875,-0.357833925602585,-0.2550309921234846,0.6756076434955001
2024-12-07 20:26:43.568676000,2.062676025390625,-0.2050584622085094,-0.2953887214750051,0.5226031936511397
2024-12-07 20:26:43.578689800,2.072689697265625,0.0016307430069893,-0.2971265050530433,0.4216071634635329
2024-12-07 20:26:43.588703700,2.082703857421875,0.2207142234366387,-0.2580921332597732,0.4026464424058795
2024-12-07 20:26:43.598717000,2.092717041015625,0.3409598015606403,-0.2588233701437711,0.3707610655844211
2024-12-07 20:26:43.608731100,2.102731201171875,0.3172504246711731,-0.2787807010233402,0.3116018973901868
2024-12-07 20:26:43.618744800,2.112744873046875,0.1974292825043201,-0.2503483872652053,0.2563569800302386
2024-12-07 20:26:43.628758000,2.122758056640625,0.0414998851239681,-0.1104687919318676,0.2480538465872407
2024-12-07 20:26:43.638772000,2.13277197265625,0.0010721592761576,0.0689338354945182,0.27759675193578
2024-12-07 20:26:43.648786000,2.142785888671875,-0.0431833081662654,0.181921916770935,0.3357791840523481
2024-12-07 20:26:43.658798800,2.152798828125,-0.037293519475311,0.1507236454308033,0.3653706047177315
2024-12-07 20:26:43.668813000,2.16281298828125,0.0877367356419563,-0.0262538006752729,0.350738560514152
2024-12-07 20:26:43.678826800,2.17282666015625,0.2749004985891282,-0.2239490406394004,0.2879641244322061
2024-12-07 20:26:43.688840000,2.18283984375,0.3080326606012881,-0.46483401851058,0.1020031614035368
2024-12-07 20:26:43.698854000,2.19285400390625,0.2513092681866139,-0.6068202307343482,-0.0947933761551976
2024-12-07 20:26:43.708868000,2.2028681640625,0.2240741283237934,-0.558617633101344,-0.1410071380585432
2024-12-07 20:26:43.718880800,2.212880859375,0.2843174384929239,-0.3565396480083465,-0.1961111856430769
2024-12-07 20:26:43.728895000,2.22289501953125,0.4141854159649461,-0.0375923562914133,-0.2572673728734255
2024-12-07 20:26:43.738909000,2.232908935546875,0.4516133024096488,0.2591618083178997,-0.2894160768061876
2024-12-07 20:26:43.748921900,2.242921875,0.3744564129710197,0.4937818805754184,-0.2747077524960041
2024-12-07 20:26:43.758935800,2.252935791015625,0.1330488725304603,0.5283920061856507,-0.2316451480999588
2024-12-07 20:26:43.768950000,2.262949951171875,-0.1902360099993646,0.2375666471034288,-0.1811836656242609
2024-12-07 20:26:43.778963000,2.272962890625,-0.4460276112318038,-0.0690793814450502,0.0317637962684035
2024-12-07 20:26:43.788977000,2.282976806640625,-0.5883376485824585,-0.3171060477644205,0.2581654907569289
2024-12-07 20:26:43.798990800,2.292990966796875,-0.5431295565903187,-0.4657388583958148,0.4424683113150298
2024-12-07 20:26:43.809003500,2.30300341796875,-0.2948315259836614,-0.4444248522102832,0.5915567567594349
2024-12-07 20:26:43.819017700,2.313017822265625,-0.0631703035317361,-0.3947393225431442,0.6581012128993868
2024-12-07 20:26:43.829031700,2.32303173828125,0.1988229288198053,-0.408330041000247,0.6476924854792654
2024-12-07 20:26:43.839044600,2.333044677734375,0.4456874194920063,-0.4166249911367893,0.5945749355368316
2024-12-07 20:26:43.849058600,2.34305859375,0.6322375805854797,-0.3065145111232996,0.6346737216912209
2024-12-07 20:26:43.859072800,2.35307275390625,0.8227521152652799,0.0433066422849893,0.7164097556136548
2024-12-07 20:26:43.869085700,2.363085693359375,0.9456535416603088,0.4877022684007883,0.7682644460134208
2024-12-07 20:26:43.879099600,2.373099609375,0.9532790681026876,0.7645037783056498,0.6738568543054163
2024-12-07 20:26:43.889113600,2.383113525390625,0.8162345500648022,0.777756058588624,0.4004616457127034
2024-12-07 20:26:43.899126800,2.393126708984375,0.5681437324680387,0.6047656362920999,0.0708909609116613
2024-12-07 20:26:43.909140500,2.403140380859375,0.2314659921407699,0.3343558732509613,-0.1005428795926272
2024-12-07 20:26:43.919154700,2.41315478515625,-0.1340589263558387,0.1107815111428499,-0.0704597298875451
2024-12-07 20:26:43.929168000,2.42316796875,-0.3805320065576583,-0.04207447014153,0.0877962107442319
2024-12-07 20:26:43.939181600,2.433181640625,-0.4965245303470641,-0.1155757596820592,0.1831350919529795
2024-12-07 20:26:43.949195500,2.443195556640625,-0.4466366830408573,-0.0729079998224973,0.2616127086013555
2024-12-07 20:26:43.959208700,2.453208740234375,-0.4310287795424461,0.1386181970953941,0.2407771335825324
2024-12-07 20:26:43.969223000,2.463222900390625,-0.5111492680270224,0.4012316071718931,0.1896804219432175
2024-12-07 20:26:43.979236600,2.473236572265625,-0.645721404602006,0.6376835710316896,0.1954744951747357
2024-12-07 20:26:43.989249800,2.483249755859375,-0.7885587537623941,0.7772469400227069,0.2023040489338338
2024-12-07 20:26:43.999263700,2.493263671875,-0.9318786988079548,0.7669196072757244,0.190534554554522
2024-12-07 20:26:44.009277700,2.503277587890625,-0.9391359764598308,0.6259387727022171,0.2390782207101583
2024-12-07 20:26:44.019290600,2.51329052734375,-0.7456677065409719,0.4099070810586214,0.3891384337961673
2024-12-07 20:26:44.029304800,2.523304931640625,-0.5110568405032158,0.1617266854822635,0.609070055487752
2024-12-07 20:26:44.039318500,2.533318603515625,-0.3238146785575896,-0.0652273821920156,0.9055161770612
2024-12-07 20:26:44.049331700,2.543331787109375,-0.3113036450959742,-0.2667559167087078,1.2181952021636069
2024-12-07 20:26:44.059345700,2.553345703125,-0.3956009078085422,-0.3902630539119243,1.5221838480710983
2024-12-07 20:26:44.069359900,2.56335986328125,-0.51986332035847,-0.3571142330259084,1.7648749985814094
2024-12-07 20:26:44.079372500,2.57337255859375,-0.6709480541866272,-0.1517944895327091,1.9614568704761564
2024-12-07 20:26:44.089386800,2.58338671875,-0.8322890282869339,0.0858060598403215,2.023479611407965
2024-12-07 20:26:44.099400700,2.593400634765625,-0.9607341333489864,0.2146159796267747,1.977008659873157
2024-12-07 20:26:44.109413600,2.60341357421875,-1.0589105760712176,0.1771159777939319,1.796356324646622
2024-12-07 20:26:44.119427600,2.613427490234375,-1.09493816726394,0.0688075787663459,1.6297621792584658
2024-12-07 20:26:44.129441800,2.62344189453125,-1.0785726503312587,-0.0995136826753616,1.5402267236314713
2024-12-07 20:26:44.139454700,2.633454833984375,-1.0339853205859662,-0.2577870128333568,1.434629044867307
2024-12-07 20:26:44.149468700,2.64346875,-0.9003156858086585,-0.4125795151382684,1.3205807870134711
2024-12-07 20:26:44.159482600,2.653482666015625,-0.7102513791143894,-0.468278606006503,1.229430443535745
2024-12-07 20:26:44.169495600,2.66349560546875,-0.554966124856472,-0.5081535202771424,1.1362637917995453
2024-12-07 20:26:44.179509800,2.673509765625,-0.440807246235013,-0.5050906255751848,0.925852278125286
2024-12-07 20:26:44.189523700,2.683523681640625,-0.2406511691153049,-0.4294353728711604,0.708010322189331
2024-12-07 20:26:44.199536600,2.69353662109375,-0.0006055464114062,-0.3210153301626444,0.4599646589085459
2024-12-07 20:26:44.209550600,2.703550537109375,0.1951350340873003,-0.1275479370266199,0.2604515558674931
2024-12-07 20:26:44.219564800,2.713564697265625,0.3565004485091194,0.0965752911359071,0.2124913886882364
2024-12-07 20:26:44.229577700,2.72357763671875,0.4861691040167584,0.2353366960942745,0.0859910610184073
2024-12-07 20:26:44.239591700,2.733591796875,0.5839735350888222,0.2481330493032932,-0.0032695231899619
2024-12-07 20:26:44.249605600,2.743605712890625,0.6449872451085596,0.1689203963786363,-0.0064393853977322
2024-12-07 20:26:44.259618800,2.753618896484375,0.8531740684706717,0.0890519098937511,-0.0157899820670485
2024-12-07 20:26:44.269632500,2.763632568359375,1.102184996587038,0.0913064108222723,-0.0488520014524459
2024-12-07 20:26:44.279646700,2.773646728515625,1.1637269682645797,0.238159352299571,-0.0280544203564524
2024-12-07 20:26:44.289659600,2.78365966796875,1.1486071405440568,0.6131476801902055,0.1020505076766014
2024-12-07 20:26:44.299673900,2.793673828125,0.9221288736879824,0.9580921674728392,0.121669108121097
2024-12-07 20:26:44.309687600,2.8036875,0.6260796424776315,1.05076285238564,-0.0412181455731391
2024-12-07 20:26:44.319700700,2.81370068359375,0.5202811804443598,0.94667703948915,-0.3091407679736614
2024-12-07 20:26:44.329714700,2.823714599609375,0.4917542472053319,0.7173579962491988,-0.5560603498339652
2024-12-07 20:26:44.339728600,2.833728759765625,0.3983376392960548,0.4615530971437692,-0.7170353401660918
2024-12-07 20:26:44.349741800,2.843741943359375,0.3093372403938323,0.2066442700952291,-0.8126736427128315
2024-12-07 20:26:44.359755800,2.853755859375,0.4043026851803064,-0.070334934464097,-0.8931889026686549
2024-12-07 20:26:44.369769500,2.86376953125,0.6236287421941756,-0.3704220428884029,-0.9776967393919824
2024-12-07 20:26:44.379782700,2.87378271484375,0.903122706053406,-0.5988976210415363,-1.0068640894263985
2024-12-07 20:26:44.389796600,2.883796630859375,1.1210182918727398,-0.737425217244029,-0.9522817276284098
2024-12-07 20:26:44.399810800,2.893810791015625,1.1883131279885768,-0.7544441565841435,-0.9344301368564368
2024-12-07 20:26:44.409823700,2.90382373046875,1.1433194824647157,-0.7382493931084871,-1.007877065861225
2024-12-07 20:26:44.419837700,2.913837646484375,0.9708826754629613,-0.668265171778202,-1.1579553991258145
2024-12-07 20:26:44.429850600,2.9238505859375,0.7405909877985716,-0.5331769023746252,-1.355486096177995
2024-12-07 20:26:44.439864600,2.933864501953125,0.4989513191025704,-0.4431412421405315,-1.5364558267906308
2024-12-07 20:26:44.449878800,2.943878662109375,0.2078449511218816,-0.2730395270228385,-1.7870462061181664
2024-12-07 20:26:44.459892700,2.953892822265625,-0.1645358976840973,-0.0819961461633443,-1.980109986889362
2024-12-07 20:26:44.469905700,2.96390576171875,-0.5026012199122458,0.0069306760460138,-1.975902598327398
2024-12-07 20:26:44.479919600,2.973919677734375,-0.7568839509516954,0.0645195261836052,-1.7840286118626594
2024-12-07 20:26:44.489932800,2.983932861328125,-0.836803875362873,0.0648345834821462,-1.4229963286101817
2024-12-07 20:26:44.499946500,2.993946533203125,-0.8085457491278648,0.101021749150753,-0.9924810515478252
2024-12-07 20:26:44.509960700,3.003960693359375,-0.63937985355556,0.0950987888425588,-0.4926739193335175
2024-12-07 20:26:44.519974700,3.013974609375,-0.4509148718167096,0.0263473241776227,0.0106903208404779
2024-12-07 20:26:44.529987600,3.023987548828125,-0.3056955228906124,-0.1015302831947803,0.3761553258433938
2024-12-07 20:26:44.540001500,3.03400146484375,-0.0566740733802318,-0.2522936761140823,0.7726265867456793
2024-12-07 20:26:44.550014700,3.0440146484375,0.0244604875177145,-0.2971212443560361,0.855828893828392
2024-12-07 20:26:44.560028700,3.054028564453125,0.1009609588742256,-0.3979933559030294,0.6944885773152113
2024-12-07 20:26:44.570042600,3.064042724609375,0.2367763735085725,-0.5569646051973104,0.4516916283428668
2024-12-07 20:26:44.580055800,3.074055908203125,0.2568055275153368,-0.7649778255581855,0.1091679384663701
2024-12-07 20:26:44.590069800,3.08406982421875,0.2693517784208059,-0.968919266435504,-0.1161836624473333
2024-12-07 20:26:44.600083700,3.094083740234375,0.4183013999164104,-1.1536164931386708,-0.2443316111937165
2024-12-07 20:26:44.610096600,3.1040966796875,0.5752508610595017,-1.283316055241227,-0.4403630095988511
2024-12-07 20:26:44.620110800,3.11411083984375,0.6835088450741023,-1.2235434313237663,-0.6705863082021475
2024-12-07 20:26:44.630124500,3.12412451171875,0.7343792736768722,-0.95609544069767,-0.7822405105262994
2024-12-07 20:26:44.640137700,3.1341376953125,0.6728115830361843,-0.6580243482708931,-0.7552665788829326
2024-12-07 20:26:44.650151700,3.144151611328125,0.539466430972889,-0.4126180935829878,-0.5937745789393782
2024-12-07 20:26:44.660166000,3.154165771484375,0.3048269964277744,-0.2017617587506771,-0.2947495467886328
2024-12-07 20:26:44.670178600,3.164178466796875,-0.0248708218842744,-0.0370803151160478,-0.0010316811352968
2024-12-07 20:26:44.680192800,3.17419287109375,-0.2172165175139903,-0.0126712655246257,0.2608648128435015
2024-12-07 20:26:44.690206700,3.184206787109375,-0.381921999611333,-0.0788268684774637,0.5470101974159479
2024-12-07 20:26:44.700219600,3.1942197265625,-0.7380734520196914,-0.1357049399971961,0.6859481279850006
2024-12-07 20:26:44.710233600,3.204233642578125,-1.032251044139266,-0.2938070052415132,0.629350042450428
2024-12-07 20:26:44.720247800,3.214247802734375,-1.12144674641788,-0.4724363102078437,0.3979711440712213
2024-12-07 20:26:44.730260700,3.2242607421875,-1.0315442841093987,-0.6323053851246834,0.0647799306854605
2024-12-07 20:26:44.740274700,3.234274658203125,-0.9513485384315252,-0.7782265987098217,-0.3503136131003498
2024-12-07 20:26:44.750288600,3.24428857421875,-0.7758387537252157,-0.8283809149324893,-0.7180971241787075
2024-12-07 20:26:44.760301600,3.254301513671875,-0.5699637144368142,-0.7946440650254487,-0.9969859617516398
2024-12-07 20:26:44.770315500,3.2643154296875,-0.4563852660518139,-0.7517530178040266,-1.218665596154332
2024-12-07 20:26:44.780329700,3.274329833984375,-0.2786134546976536,-0.7134843696862458,-1.2859119169533253
2024-12-07 20:26:44.790342700,3.2843427734375,-0.3844493991971016,-0.6482353601843118,-1.1177739031240344
2024-12-07 20:26:44.800356400,3.2943564453125,-0.7821797933150082,-0.6218032803326845,-0.7224702246963978
2024-12-07 20:26:44.810370300,3.304370361328125,-1.01483587202318,-0.5587731159240007,-0.3233858586862683
2024-12-07 20:26:44.820383200,3.31438330078125,-1.052290792605281,-0.4939999072402715,0.0334895971477031
2024-12-07 20:26:44.830397400,3.3243974609375,-0.9453969365507364,-0.4352016813129186,0.4224702100336551
2024-12-07 20:26:44.840411100,3.3344111328125,-0.8535083419263363,-0.3227636351346969,0.6743611505657434
2024-12-07 20:26:44.850424300,3.34442431640625,-0.6215968710403889,-0.0581219341009855,0.5678697378322481
2024-12-07 20:26:44.860438300,3.354438232421875,-0.2289542285155504,0.6206827518701553,0.1590685721889138
2024-12-07 20:26:44.870452500,3.364452392578125,-0.1381301213175058,1.905629623183608,-0.0695361853018403
2024-12-07 20:26:44.880465200,3.374465087890625,-0.177940847778134,3.518690258488059,0.1845502194479107
2024-12-07 20:26:44.890479400,3.384479248046875,-0.5667261207550763,5.341077534839511,0.7380173379182815
2024-12-07 20:26:44.900493300,3.394493408203125,-1.177857784947753,6.949284300372004,0.8979860738173127
2024-12-07 20:26:44.910506200,3.40450634765625,-2.0598013632416725,7.2567714559197425,0.706186321632564
2024-12-07 20:26:44.920520200,3.414520263671875,-2.421257424864173,4.427165285354852,0.8085653306111693
2024-12-07 20:26:44.930534400,3.424534423828125,-0.6933855845093727,0.5378273585289717,0.3938657545790076
2024-12-07 20:26:44.940547300,3.43454736328125,1.38155898732841,-1.8457734126359224,-1.1738450421750546
2024-12-07 20:26:44.950561300,3.444561279296875,1.7396838587015866,-2.8363603210002184,-2.6668565717756745
2024-12-07 20:26:44.960575200,3.4545751953125,0.4849315981110557,-2.812611781144142,-3.5714126716330648
2024-12-07 20:26:44.970588200,3.464588134765625,-0.3516828556269407,-2.485003044065833,-3.90270272757262
2024-12-07 20:26:44.980602400,3.474602294921875,-0.3221715144604444,-2.0873340978115795,-3.833575415332615
2024-12-07 20:26:44.990616300,3.4846162109375,0.3479144430041313,-1.5119108758598565,-3.291526639716327
2024-12-07 20:26:45.000629200,3.494629150390625,0.9934908131122588,-0.7807131548285484,-2.410123744170368
2024-12-07 20:26:45.010643200,3.504643310546875,1.2993407228469849,-0.1863794807016849,-1.3670578760281205
2024-12-07 20:26:45.020657400,3.514657470703125,1.240296413204074,0.1729465831547975,-0.3690115915685892
2024-12-07 20:26:45.030670300,3.52467041015625,1.0031225648105144,0.3921797011882066,0.538063505372405
2024-12-07 20:26:45.040684300,3.534684326171875,0.6447264752805233,0.4716980590611696,1.2256152691617608
2024-12-07 20:26:45.050698200,3.5446982421875,0.2612181563258171,0.4466512960880994,1.5898700215920805
2024-12-07 20:26:45.060711400,3.55471142578125,-0.0495803157269954,0.3438964395344257,1.6455428089752793
2024-12-07 20:26:45.070725000,3.56472509765625,-0.3008767792309634,0.1719178246289491,1.3966250390350818
2024-12-07 20:26:45.080739300,3.5747392578125,-0.5498913058102131,-0.0463058241009712,0.8586866213470697
2024-12-07 20:26:45.090752300,3.584752197265625,-0.5656932705760002,-0.1679565197825431,0.1843602498337626
2024-12-07 20:26:45.100766500,3.594766357421875,-0.3281131794691085,-0.1392079796820879,-0.4342644004628062
2024-12-07 20:26:45.110780200,3.6047802734375,-0.1017699554358609,-0.0412304205328226,-0.8707976226404309
2024-12-07 20:26:45.120793300,3.61479345703125,0.0056184609362855,0.098391985169053,-1.0713502978622913
2024-12-07 20:26:45.130807300,3.624807373046875,0.0595440758585929,0.1857645636737346,-1.1007473649993538
2024-12-07 20:26:45.140821200,3.6348212890625,0.1661702208876609,0.1467670167595148,-0.9634013797968626
2024-12-07 20:26:45.150834400,3.64483447265625,0.4805003741979599,0.0138911627084016,-0.7007888465031981
2024-12-07 20:26:45.160848400,3.654848388671875,0.8219207790076732,-0.0940238530874252,-0.4097627041518688
2024-12-07 20:26:45.170862000,3.664862060546875,0.9508721530914306,-0.1884106942683458,-0.2078758577167987
2024-12-07 20:26:45.180875300,3.674875244140625,0.8853975181400775,-0.29882980183959,-0.0482408838167786
2024-12-07 20:26:45.190889500,3.684889404296875,0.7023322765529155,-0.4044552453935146,-0.0630275340601801
2024-12-07 20:26:45.200903400,3.6949033203125,0.450771554355882,-0.2922451627522707,-0.2515396428763866
2024-12-07 20:26:45.210916400,3.704916259765625,0.1315933764925226,0.0308382058560848,-0.530290241022408
2024-12-07 20:26:45.220930300,3.714930419921875,-0.0043173152098432,0.262106045076251,-0.809796625971794
2024-12-07 20:26:45.230944500,3.724944580078125,0.2642588391959667,0.4055360263675451,-0.9086194037735462
2024-12-07 20:26:45.240957200,3.734957275390625,0.7500210794448852,0.3500993858277798,-0.8127630745619535
2024-12-07 20:26:45.250971400,3.744971435546875,1.3273019119620322,0.0533422986090183,-0.5971762040764093
2024-12-07 20:26:45.260985300,3.7549853515625,1.8842554112434384,-0.3162181590139866,-0.2637500128909945
2024-12-07 20:26:45.270998300,3.764998291015625,2.185872213453054,-0.5339221677839756,0.1041419269979
2024-12-07 20:26:45.281012200,3.77501220703125,2.1774609434604644,-0.5545680654495955,0.4528869756072759
2024-12-07 20:26:45.291026400,3.7850263671875,1.9923229872524737,-0.4223328473895787,0.7590919823899864
2024-12-07 20:26:45.301039000,3.7950390625,1.6784171968340873,-0.3469961591154337,1.0601806690722704
2024-12-07 20:26:45.311053300,3.80505322265625,1.206132862317562,-0.3575689910560846,1.2084165893405676
2024-12-07 20:26:45.321067300,3.8150673828125,0.75653966755867,-0.4674064993470907,1.1634046044424176
2024-12-07 20:26:45.331080200,3.825080078125,0.3993464510124176,-0.5945277353942394,0.8799313616886735
2024-12-07 20:26:45.341094100,3.83509423828125,0.1818739129107445,-0.5868062012314796,0.4576096202149987
2024-12-07 20:26:45.351108400,3.8451083984375,0.0437607792606577,-0.3693716570526361,0.0301595759421586
2024-12-07 20:26:45.361121500,3.85512158203125,-0.1674223398406058,-0.0343026670962572,-0.3705290103942155
2024-12-07 20:26:45.371135200,3.86513525390625,-0.3389303415596485,0.5409013591468333,-0.5496662648826838
2024-12-07 20:26:45.381149200,3.875149169921875,-0.5007365950841456,1.1190320864915848,-0.6311950857952237
2024-12-07 20:26:45.391162400,3.885162353515625,-0.73782203454189,1.3734171819269656,-0.7270382632642984
2024-12-07 20:26:45.401176300,3.89517626953125,-0.8914088143188506,1.1647609874874352,-0.8436778527855873
2024-12-07 20:26:45.411190300,3.905190185546875,-0.8728770592629909,0.5567839879333972,-1.0001946946650744
2024-12-07 20:26:45.421203500,3.915203369140625,-0.7696014667708426,-0.0749549954801797,-1.150583701314032
2024-12-07 20:26:45.431217200,3.925217041015625,-0.2498878570813685,-0.535942859956622,-1.041906176713109
2024-12-07 20:26:45.441231400,3.9352314453125,0.3224574187297374,-0.7281833416461944,-0.7709428714424371
2024-12-07 20:26:45.451244300,3.945244384765625,0.6814367880403995,-0.7196949147641658,-0.5037099848717451
2024-12-07 20:26:45.461258500,3.955258544921875,0.9356594594556836,-0.6946984206736088,-0.2744137379854917
2024-12-07 20:26:45.471272200,3.965272216796875,1.0863736064057796,-0.6548416265815497,0.0003296703457832
2024-12-07 20:26:45.481285400,3.975285400390625,1.13762813895531,-0.510407436683774,0.3434960420399904
2024-12-07 20:26:45.491299300,3.98529931640625,1.0035177746731787,-0.3028741087943315,0.6566515986129641
2024-12-07 20:26:45.501313300,3.995313232421875,0.638597251810506,-0.0890466491967439,0.8723074426814913
2024-12-07 20:26:45.511326200,4.005326171875,0.1130665533401071,0.0598930354267358,0.94042908501029
2024-12-07 20:26:45.521340400,4.01534033203125,-0.4088463199593126,0.1211129355430603,0.8815957877695559
2024-12-07 20:26:45.531354000,4.02535400390625,-0.7912111679673195,0.0787421128034591,0.8042766935065389
2024-12-07 20:26:45.541367300,4.0353671875,-1.0504254371248185,0.0353542219758033,0.6584466653361916
2024-12-07 20:26:45.551381200,4.04538134765625,-1.056618154285103,-0.0102297175914049,0.4754603342041373
2024-12-07 20:26:45.561395500,4.0553955078125,-0.8383598726332188,-0.0195475810348987,0.2963783170342445
2024-12-07 20:26:45.571408400,4.065408447265625,-0.5297625638864935,-0.0599947422355413,0.0584051349565386
2024-12-07 20:26:45.581422300,4.07542236328125,-0.2362052956223487,-0.1145060846239328,-0.1184115676298737
2024-12-07 20:26:45.591436300,4.085436279296875,0.0223277132727205,-0.171063838148117,-0.2490335052743554
2024-12-07 20:26:45.601449200,4.09544921875,0.0935645650126039,-0.2062754367828369,-0.3463447094693779
2024-12-07 20:26:45.611463400,4.10546337890625,0.0658114656902849,-0.2622013221442699,-0.3834443138077855
2024-12-07 20:26:45.621477400,4.115477294921875,0.0052969373643398,-0.3226414700597524,-0.3775491182893514
2024-12-07 20:26:45.631490300,4.125490234375,-0.0862615485228598,-0.3567506604105234,-0.4021270947068929
2024-12-07 20:26:45.641504300,4.135504150390625,-0.1875705901823937,-0.289321968781948,-0.475832090125978
2024-12-07 20:26:45.651518500,4.1455185546875,-0.3019837358258664,-0.086857030197978,-0.5510986357733607
2024-12-07 20:26:45.661531100,4.15553125,-0.4741511513017117,0.083052377218008,-0.6038309857904911
2024-12-07 20:26:45.671545300,4.16554541015625,-0.6321057708993554,0.2291810960739851,-0.583756166011095
2024-12-07 20:26:45.681559300,4.175559326171875,-0.7202632161714136,0.2857908720463514,-0.4595017175719141
2024-12-07 20:26:45.691572200,4.185572265625,-0.7062146709442139,0.3277560365945101,-0.262971429733932
2024-12-07 20:26:45.701586200,4.195586181640625,-0.5817370812736451,0.2794260131895542,-0.0429223191425204
2024-12-07 20:26:45.711600400,4.205600341796875,-0.3874680163659155,0.1589139661490917,0.1014142555996775
2024-12-07 20:26:45.721613300,4.21561328125,-0.276515094178915,-0.0184358204007148,0.2368549917027354
2024-12-07 20:26:45.731627300,4.225627197265625,-0.205292270964384,-0.233052969071269,0.2999167202934623
2024-12-07 20:26:45.741641200,4.23564111328125,-0.1534508784376084,-0.3471393669784068,0.3485664771720766
2024-12-07 20:26:45.751654400,4.245654296875,-0.0911187792956829,-0.3978238445550203,0.3823454126551747
2024-12-07 20:26:45.761668000,4.255668212890625,-0.0448959573030471,-0.3583919978767633,0.4031314494438469
2024-12-07 20:26:45.771682300,4.265682373046875,0.0280478444851934,-0.2601812144935131,0.4794137480050325
2024-12-07 20:26:45.781695500,4.275695556640625,0.098265143918991,-0.1511953545957803,0.5816230995051562
2024-12-07 20:26:45.791709200,4.285709228515625,0.2098655702292919,-0.0589718289285898,0.6650413874261081
2024-12-07 20:26:45.801723400,4.295723388671875,0.2927506280563771,-0.0500339047133922,0.6268219852775335
2024-12-07 20:26:45.811737600,4.305737548828125,0.3000489683710038,-0.0594680880129337,0.4992375156328081
2024-12-07 20:26:45.821751300,4.315751220703125,0.236794201426208,-0.1195171907842159,0.3550089313097297
2024-12-07 20:26:45.831764500,4.325764404296875,0.1033785414099693,-0.2269628355026245,0.2078473622746765
2024-12-07 20:26:45.841778400,4.3357783203125,-0.0090473759390413,-0.2930821980983019,0.1519340441338718
2024-12-07 20:26:45.851792600,4.345792724609375,0.0023076924204826,-0.2278238362461328,0.2584719263575971
2024-12-07 20:26:45.861806300,4.355806396484375,0.0443410998992621,-0.0253910463660955,0.4475725025862455
2024-12-07 20:26:45.871819500,4.365819580078125,0.0895190890140831,0.2205214042782783,0.6558944966353476
2024-12-07 20:26:45.881833500,4.37583349609375,0.0956629985965788,0.4129068473964929,0.82326503322348
2024-12-07 20:26:45.891846400,4.385846435546875,0.0600748217344284,0.5017623579353094,0.9253183173790572
2024-12-07 20:26:45.901860400,4.3958603515625,0.0014849778607487,0.4232897097229957,0.9677072602972387
2024-12-07 20:26:45.911874600,4.40587451171875,0.0381602193072438,0.2203781964153051,0.9463656354524196
2024-12-07 20:26:45.921887500,4.415887451171875,0.1505317761205136,0.0526461330384016,0.9212101514078676
2024-12-07 20:26:45.931901400,4.4259013671875,0.373937357532978,0.1633873121708631,0.889749575869739
2024-12-07 20:26:45.941915400,4.435915283203125,0.6349576531991362,0.552198413708806,0.81531056708768
2024-12-07 20:26:45.951929600,4.4459296875,0.8009291366443038,0.8884873008489608,0.6437272351101041
2024-12-07 20:26:45.961942500,4.455942626953125,0.8245426519438623,0.9623562546581028,0.3603054302826524
2024-12-07 20:26:45.971956500,4.46595654296875,0.7514820919081568,0.8607423848330974,0.0043999885246157
2024-12-07 20:26:45.981969400,4.475969482421875,0.5339397034406662,0.6209235748887062,-0.3581730944290757
2024-12-07 20:26:45.991983400,4.4859833984375,0.1321148065507411,0.3242588421285152,-0.7326951199822127
2024-12-07 20:26:46.001997600,4.49599755859375,-0.3350596376061439,-0.0113239425688982,-1.1372319061793386
2024-12-07 20:26:46.012010500,4.506010498046875,-0.7507812501624226,-0.2825175494641065,-1.4370425357498229
2024-12-07 20:26:46.022024400,4.5160244140625,-0.9331776525773108,-0.5070721547812224,-1.4916906562604009
2024-12-07 20:26:46.032038400,4.526038330078125,-0.8735220791682601,-0.6261848564177751,-1.2206542857535183
2024-12-07 20:26:46.042051600,4.536051513671875,-0.5152008084401488,-0.5939554884642362,-0.5569990919888019
2024-12-07 20:26:46.052065300,4.546065185546875,0.067889879399538,-0.4313403297096491,0.2252668452396988
2024-12-07 20:26:46.062079500,4.55607958984375,0.6225916542313993,-0.2247697093725204,0.8183345910839736
2024-12-07 20:26:46.072092400,4.566092529296875,0.9174009683832526,-0.0559638792842626,1.080602840984613
2024-12-07 20:26:46.082106400,4.5761064453125,0.8375906418263912,0.0147585931926965,0.990382471833378
2024-12-07 20:26:46.092120300,4.586120361328125,0.4942271401248872,0.0188128370195627,0.6886036109298467
2024-12-07 20:26:46.102133500,4.596133544921875,0.050662850266695,0.0605003536701202,0.3728134680695831
2024-12-07 20:26:46.112147500,4.6061474609375,-0.1924982558429241,0.1025239704072475,0.0820128050372004
2024-12-07 20:26:46.122161400,4.616161376953125,-0.2273684936940669,0.0976660089820623,-0.2354759584344923
2024-12-07 20:26:46.132174600,4.626174560546875,-0.094443832065165,0.0337292511224746,-0.4771886193014681
2024-12-07 20:26:46.142188500,4.6361884765625,-0.0057134092107415,-0.0309556947559118,-0.6233063783720135
2024-12-07 20:26:46.152202200,4.6462021484375,-0.0351532925762236,-0.0676326897680759,-0.6339432154595852
2024-12-07 20:26:46.162215400,4.65621533203125,-0.0756359634816646,-0.0361398193955421,-0.4580471348494291
2024-12-07 20:26:46.172229600,4.666229736328125,-0.0799053113639354,0.0609814151853322,-0.2020944978363812
2024-12-07 20:26:46.182243600,4.67624365234375,-0.0638731911040842,0.1672656149089336,0.0549282526262104
2024-12-07 20:26:46.192256500,4.686256591796875,-0.0386814667023718,0.1874754592448473,0.1673515396267175
2024-12-07 20:26:46.202270500,4.6962705078125,-0.0447314143911004,0.1254635319679975,0.1462654969781637
2024-12-07 20:26:46.212284700,4.70628466796875,-0.0635189708389341,0.0640437253654003,0.0904701061286032
2024-12-07 20:26:46.222297300,4.71629736328125,-0.1402946058750152,-0.008013795107603,-0.0605931465201079
2024-12-07 20:26:46.232311600,4.7263115234375,-0.2050795049965381,-0.0807534526258707,-0.2315044244550168
2024-12-07 20:26:46.242325500,4.736325439453125,-0.2544260119676589,-0.1795493424206972,-0.4103689994819462
2024-12-07 20:26:46.252338400,4.74633837890625,-0.3488755431212484,-0.24700141492486,-0.512230414327234
2024-12-07 20:26:46.262352400,4.756352294921875,-0.4440015122316777,-0.2819558239281177,-0.5473715780742466
2024-12-07 20:26:46.272366600,4.76636669921875,-0.455160181236267,-0.323636326315999,-0.5310081800334155
2024-12-07 20:26:46.282379300,4.776379150390625,-0.3782803551733493,-0.2918786675274372,-0.3222112619489431
2024-12-07 20:26:46.292393500,4.7863935546875,-0.2067525527752935,-0.1507312442153692,-0.1263831310309469
2024-12-07 20:26:46.302407400,4.796407470703125,0.2319980531908571,0.0415957467138767,-0.0386202380344271
2024-12-07 20:26:46.312420400,4.80642041015625,0.5831761741660535,0.1900087771147489,0.0614316431708633
2024-12-07 20:26:46.322434300,4.816434326171875,0.575811344486475,0.2431505847156047,0.0940827436678111
2024-12-07 20:26:46.332448500,4.826448486328125,0.2271428682446479,0.2550152100324631,0.1025603568948805
2024-12-07 20:26:46.342461700,4.836461669921875,-0.2546798405982554,0.12385492772758,-0.0106767307065427
2024-12-07 20:26:46.352475400,4.846475341796875,-0.6021512160100042,-0.1205465338319539,-0.1382160460352897
2024-12-07 20:26:46.362489300,4.8564892578125,-0.583452214628458,-0.3204354844480753,-0.2602056182824075
2024-12-07 20:26:46.372502500,4.86650244140625,-0.2116543533422052,-0.3966583079069852,-0.4372409320555627
2024-12-07 20:26:46.382516500,4.8765166015625,0.2184171254754066,-0.3553454697877168,-0.5052360253952444
2024-12-07 20:26:46.392530400,4.886530517578125,0.5468026190798729,-0.2817249377816915,-0.5390493015393615
2024-12-07 20:26:46.402543600,4.896543701171875,0.7488309198122471,-0.1849251902401447,-0.4813618133328854
2024-12-07 20:26:46.412557300,4.906557373046875,0.8173895653188228,-0.1776917318552732,-0.4531470878481864
2024-12-07 20:26:46.422571500,4.916571533203125,0.8064322641052305,-0.2346241639107465,-0.468656353277713
2024-12-07 20:26:46.432584400,4.92658447265625,0.7150596561789512,-0.3076999215155839,-0.5368785333715379
2024-12-07 20:26:46.442598700,4.9365986328125,0.5823394310809672,-0.3125596365064382,-0.4558762205511331
2024-12-07 20:26:46.452612400,4.9466123046875,0.5035317056953906,-0.2702741539627313,-0.3271002030342817
2024-12-07 20:26:46.462625500,4.95662548828125,0.49041028525047,-0.2638280465632677,-0.2137652080163359
2024-12-07 20:26:46.472639500,4.966639404296875,0.4680675936043262,-0.2398012742877006,-0.0269894214734435
2024-12-07 20:26:46.482653400,4.9766533203125,0.3739326813578605,-0.1942535750776529,0.2182785937875509
2024-12-07 20:26:46.492666400,4.986666259765625,0.2094376271408051,-0.2510579968392848,0.4095774107128381
2024-12-07 20:26:46.502680600,4.9966806640625,0.0041489363729953,-0.2783154215991497,0.5852918511457741
2024-12-07 20:26:46.512694300,5.0066943359375,-0.2430710897386074,-0.1934317373007535,0.707116149828583
2024-12-07 20:26:46.522707500,5.01670751953125,-0.4778676876068115,-0.065582771500945,0.7674769488975405
2024-12-07 20:26:46.532721400,5.026721435546875,-0.6438542224906385,-0.0036287118911743,0.7927147043980658
2024-12-07 20:26:46.542735600,5.036735595703125,-0.7415349906504154,-0.0122293669760227,0.8001010152570903
2024-12-07 20:26:46.552748500,5.04674853515625,-0.8415385757345706,-0.0239566296488046,0.8406582127034664
2024-12-07 20:26:46.562762500,5.056762451171875,-0.9534148233115672,-0.0028436989933252,0.8514838503614067
2024-12-07 20:26:46.572776400,5.0667763671875,-0.99960125881657,0.0640431408435106,0.8659164264701307
2024-12-07 20:26:46.582789400,5.076789306640625,-1.0263806908011437,0.1603986517488956,0.9222824568144976
2024-12-07 20:26:46.592803600,5.086803466796875,-1.1477812111139296,0.2817331210881471,1.016850792042166
2024-12-07 20:26:46.602817500,5.096817626953125,-1.3656138146996497,0.4226847295671701,1.096162521427125
2024-12-07 20:26:46.612830500,5.10683056640625,-1.5358745197713377,0.5369616816103459,1.1337076775759458
2024-12-07 20:26:46.622844400,5.116844482421875,-1.620206999927759,0.5863736550331116,1.1480033294320109
2024-12-07 20:26:46.632858600,5.126858642578125,-1.696411118686199,0.4893015202909708,1.0623340477138756
2024-12-07 20:26:46.642871300,5.136871337890625,-1.7139163802385329,0.3177028446137905,0.9525700430504978
2024-12-07 20:26:46.652885500,5.146885498046875,-1.6167197423338888,0.1733668543934822,0.8103687267713249
2024-12-07 20:26:46.662899500,5.1568994140625,-1.370568222236633,0.0735574036419391,0.5752798679582775
2024-12-07 20:26:46.672912400,5.166912353515625,-1.1003484288096428,0.0731499918848276,0.2682243818260729
2024-12-07 20:26:46.682926300,5.17692626953125,-0.9427332702994348,0.1749433099299669,-0.063061436329782
2024-12-07 20:26:46.692940500,5.1869404296875,-0.8856395102024078,0.4584235669463872,-0.3843983996622264
2024-12-07 20:26:46.702953500,5.196953369140625,-0.8289841415226459,0.7945879509240389,-0.6689066845521331
2024-12-07 20:26:46.712967400,5.206967529296875,-0.6941922247171401,1.0925374627977609,-0.941855902943015
2024-12-07 20:26:46.722981400,5.2169814453125,-0.3592693652331828,1.2724977241069078,-1.1590239051401614
2024-12-07 20:26:46.732994600,5.22699462890625,0.1129045129125006,1.4173913482099771,-1.2752975839585066
2024-12-07 20:26:46.743008300,5.23700830078125,0.4371540209570899,1.5241104322195052,-1.3937307788982989
2024-12-07 20:26:46.753022500,5.2470224609375,0.5122200755963102,1.6344102973252534,-1.3826450289994476
2024-12-07 20:26:46.763035600,5.25703564453125,0.7147194644391537,1.8913573522031304,-0.8559200792431831
2024-12-07 20:26:46.773049300,5.26704931640625,1.177587151312828,2.1145359929919243,-0.3441296637684106
2024-12-07 20:26:46.783063300,5.277063232421875,1.2851041077017784,2.221270274570584,-0.1779123888686299
2024-12-07 20:26:46.793076500,5.287076416015625,1.200408566386625,2.2192554276168344,-0.1131283665299415
2024-12-07 20:26:46.803090000,5.29708984375,1.107630987033248,1.9274042326182128,0.0423641007378697
2024-12-07 20:26:46.813103900,5.307103759765625,1.0546640245426446,1.3509610199689863,0.2604272982090711
2024-12-07 20:26:46.823117000,5.317116943359375,1.1157091526139526,0.7167302197396754,0.5528644764021039
2024-12-07 20:26:46.833130800,5.327130859375,1.1614298703033477,0.0926116482019424,0.7253478259593248
2024-12-07 20:26:46.843145000,5.33714501953125,1.090650114681199,-0.5063385798096657,0.6767354784816503
2024-12-07 20:26:46.853158000,5.347157958984375,1.0438719968933612,-0.9714835639655588,0.2856105470433831
2024-12-07 20:26:46.863171800,5.357171875,1.103256936667487,-1.186438566288352,-0.3230456669464707
2024-12-07 20:26:46.873185800,5.367185791015625,1.2480343139797447,-1.1906360179781914,-0.9096180594220756
2024-12-07 20:26:46.883199000,5.377198974609375,1.2534446485906838,-1.0245482146769762,-1.3483818171307445
2024-12-07 20:26:46.893213000,5.387212890625,1.100088243503496,-0.7240162850946188,-1.6557184582918882
2024-12-07 20:26:46.903227000,5.397226806640625,0.9693009592294692,-0.5068389305472374,-1.8490704083547
2024-12-07 20:26:46.913240000,5.407239990234375,0.9472177953023464,-0.3553402090907097,-2.037910141690076
2024-12-07 20:26:46.923254000,5.41725390625,0.8700006270438432,-0.2247229476213455,-2.248257357956469
2024-12-07 20:26:46.933267700,5.427267822265625,0.6866607332337648,-0.1494452960580587,-2.397862520751357
2024-12-07 20:26:46.943281000,5.437281005859375,0.4689110586911439,-0.109473935675621,-2.4352228218525647
2024-12-07 20:26:46.953295000,5.447295166015625,0.2547106010627001,-0.0969376947075128,-2.34607592715174
2024-12-07 20:26:46.963308800,5.457308837890625,0.0624112287927418,-0.1052607018947601,-2.069443928594888
2024-12-07 20:26:46.973322000,5.467322021484375,-0.1346206518918275,-0.0864572172254323,-1.6517077613458035
2024-12-07 20:26:46.983336000,5.4773359375,-0.3659673285018652,-0.0423714072614908,-1.2352338691174982
2024-12-07 20:26:46.993350100,5.48735009765625,-0.6014793080978095,-0.0648491965293884,-0.9602943536922336
2024-12-07 20:26:47.003362800,5.49736279296875,-0.7435239725105464,0.0202209502518177,-0.5525169781386852
2024-12-07 20:26:47.013377000,5.507376953125,-0.8342226266980171,0.0059685530155897,-0.0868871330752968
2024-12-07 20:26:47.023391000,5.517390869140625,-0.7747977933049202,-0.0953998176157474,0.3489849948450922
2024-12-07 20:26:47.033404000,5.52740380859375,-0.5738327378898859,-0.1798994710326194,0.8433627954870462
2024-12-07 20:26:47.043417900,5.53741796875,-0.6338976227521896,-0.2202642146468162,1.3729171234503388
2024-12-07 20:26:47.053432000,5.54743212890625,-0.6791859403736888,-0.3215601045638322,1.6714897356584668
2024-12-07 20:26:47.063444700,5.55744482421875,-0.5575257462114095,-0.5335100798517465,1.6306354549616575
2024-12-07 20:26:47.073459000,5.567458984375,-0.3756061675280332,-0.8749345763146876,1.425873929873109
2024-12-07 20:26:47.083473000,5.577472900390625,-0.2043938608199358,-1.2037690557956695,1.1338450402200222
2024-12-07 20:26:47.093485800,5.58748583984375,-0.0622585955142974,-1.4701526320606468,0.8503340958043932
2024-12-07 20:26:47.103499800,5.597499755859375,-0.010184709405899,-1.4736825597524643,0.6197594995453953
2024-12-07 20:26:47.113514000,5.607513916015625,-8.6216978728e-06,-1.256419865009189,0.3441957147419452
2024-12-07 20:26:47.123527000,5.61752685546875,0.3164627814248204,-1.0840075348615643,-0.0252279647588729
2024-12-07 20:26:47.133540900,5.627540771484375,0.6333284445621072,-1.009684407544136,-0.2124257761061191
2024-12-07 20:26:47.143554800,5.637554931640625,0.973768460032344,-1.0266051472067832,-0.286088101427257
2024-12-07 20:26:47.153568000,5.647568115234375,1.2312458223946392,-1.1302058069348335,-0.3565121754795313
2024-12-07 20:26:47.163582000,5.65758203125,1.347776544713974,-1.220678105020523,-0.4258350102916359
2024-12-07 20:26:47.173596000,5.667595947265625,1.1970954232506452,-1.3166916706204417,-0.539003416571021
2024-12-07 20:26:47.183609000,5.677609130859375,0.8938971970684826,-1.4595634335070848,-0.787513774754107
2024-12-07 20:26:47.193622800,5.687622802734375,0.6141070267416536,-1.5386773022323843,-1.1105497970893978
2024-12-07 20:26:47.203637000,5.697636962890625,0.3005724077232182,-1.5340741923511028,-1.339525725980103
2024-12-07 20:26:47.213650000,5.70764990234375,0.1148832473732531,-1.4801795205563306,-1.4649948109060524
2024-12-07 20:26:47.223664000,5.7176640625,-0.1286155662581324,-1.3200538405299187,-1.4428043141469358
2024-12-07 20:26:47.233677800,5.727677734375,-0.4102928655058145,-1.1650631853044031,-1.3142328792914748
2024-12-07 20:26:47.243691000,5.73769091796875,-0.5204230731330811,-1.0249860215723514,-1.1565241972789169
2024-12-07 20:26:47.253705000,5.747705078125,-0.5094931713830679,-0.902325272065401,-1.1234656850248574
2024-12-07 20:26:47.263719000,5.757718994140625,-0.4392208538264036,-0.8559405375093221,-1.2274027371004224
2024-12-07 20:26:47.273731800,5.76773193359375,-0.54980362752676,-0.7834849576294421,-1.3626415208905935
2024-12-07 20:26:47.283746000,5.77774609375,-0.9208354728765784,-0.5337625933080912,-1.3515584013402462
2024-12-07 20:26:47.293759700,5.787759765625,-1.321150549725443,-0.1115185932457447,-1.0837833707168698
2024-12-07 20:26:47.303773000,5.79777294921875,-1.5000206777103244,0.6223538999527692,-0.4948115158841014
2024-12-07 20:26:47.313787000,5.807786865234375,-1.336004273855686,1.9446347688823933,0.271276316742599
2024-12-07 20:26:47.323801000,5.817801025390625,-1.308238315051794,3.8637861369401216,1.1287927252665162
2024-12-07 20:26:47.333814000,5.82781396484375,-1.7274714428603648,5.783893782809376,2.2892902100905776
2024-12-07 20:26:47.343828000,5.837827880859375,-1.8412901297420263,6.722666917306184,3.5995612000137567
2024-12-07 20:26:47.353842000,5.847842041015625,-1.2069401601124554,5.879324580085277,4.338005823433399
2024-12-07 20:26:47.363854800,5.857854736328125,-0.5060469033867121,3.1332313899874684,3.954397258974612
2024-12-07 20:26:47.373869000,5.867869140625,0.2332687307137995,0.0163461546450853,2.540011230060458
2024-12-07 20:26:47.383883000,5.877883056640625,1.0865929482448846,-1.7158803737878798,0.7816299774125218
2024-12-07 20:26:47.393896000,5.88789599609375,1.423368669053912,-2.479540687006712,-0.9302531434327364
2024-12-07 20:26:47.403910000,5.897909912109375,1.0111362868528813,-2.9054432095766067,-2.473727616813779
2024-12-07 20:26:47.413924000,5.907924072265625,0.3385691070318222,-2.974324438101053,-3.6364191045507774
2024-12-07 20:26:47.423936800,5.917936767578125,-0.1902056148611009,-2.4549779081583023,-4.120542053160071
2024-12-07 20:26:47.433951000,5.927950927734375,-0.3513759816348552,-1.582394278883934,-3.84095208158046
2024-12-07 20:26:47.443965000,5.93796484375,0.097881113037467,-0.5687795461535453,-2.992672580218315
2024-12-07 20:26:47.453977900,5.947977783203125,0.6734533880710601,0.4459504543423652,-1.9149518705412745
2024-12-07 20:26:47.463991800,5.95799169921875,1.0173416442990302,1.2519985414355992,-0.8991127397596835
2024-12-07 20:26:47.474006000,5.968006103515625,1.123113802847266,1.5816390766024588,-0.1128904661208391
2024-12-07 20:26:47.484019000,5.97801904296875,0.8322515458207577,1.3727677781075238,0.482514344368875
2024-12-07 20:26:47.494033000,5.988032958984375,0.2871124029736965,0.8296598488271236,0.8017933522582054
2024-12-07 20:26:47.504046800,5.998046875,-0.2882178434649482,0.1974509098142385,0.8165192122250795
2024-12-07 20:26:47.514060000,6.00806005859375,-0.4922118913123384,-0.3120166156709194,0.5088005860090256
2024-12-07 20:26:47.524073700,6.01807373046875,-0.4003109851956367,-0.5113526085793971,0.0849336609199643
2024-12-07 20:26:47.534088000,6.028087890625,-0.1821854996105656,-0.4558113386213779,-0.3559767534285784
2024-12-07 20:26:47.544101000,6.03810107421875,0.0450772321540862,-0.2323848605513572,-0.7283046299383044
2024-12-07 20:26:47.554114800,6.04811474609375,0.0995891042654402,0.0879091695994138,-0.8421183483839034
2024-12-07 20:26:47.564128800,6.058128662109375,0.0534323515126481,0.2517372112751007,-0.6508081332817673
2024-12-07 20:26:47.574142000,6.068141845703125,0.1477022883156314,0.243511819243431,-0.2960033462420106
2024-12-07 20:26:47.584156200,6.07815625,0.2360299573217518,0.1267927347451448,-0.0778591924890875
2024-12-07 20:26:47.594169900,6.088169921875,0.3207517107903957,-0.0493114356577396,-0.1288131346568465
2024-12-07 20:26:47.604183000,6.09818310546875,0.397540935960412,-0.1623608917325735,-0.2607075764551758
2024-12-07 20:26:47.614197000,6.108197021484375,0.2382283441488631,-0.2141536228120326,-0.3729895552888512
2024-12-07 20:26:47.624211000,6.1182109375,-0.0677174637083895,-0.1957984664320945,-0.3547457503288984
2024-12-07 20:26:47.634223900,6.128223876953125,-0.1246697421086486,-0.1278629943251609,-0.2560550744742155
2024-12-07 20:26:47.644238000,6.138238037109375,0.068671385166049,0.0404693730324506,-0.14413696051687
2024-12-07 20:26:47.654251800,6.148251708984375,0.2269809556812047,0.1758925734788179,-0.1124628883585333
2024-12-07 20:26:47.664265000,6.158264892578125,0.3667547525525093,0.1626975763410329,-0.1815036913588643
2024-12-07 20:26:47.674279000,6.16827880859375,0.399694899123907,0.0945300490438938,-0.2603647543668747
2024-12-07 20:26:47.684293000,6.178293212890625,0.2729331440389156,0.0112502928107976,-0.3231362678393721
2024-12-07 20:26:47.694305800,6.188305908203125,0.088403090596199,-0.0025350714355707,-0.2874076595932245
2024-12-07 20:26:47.704320000,6.198320068359375,-0.0521264930784702,0.0281289468973875,-0.2031014829218387
2024-12-07 20:26:47.714334000,6.208333984375,-0.0818073273266665,-0.0262397721499204,-0.1811661299675702
2024-12-07 20:26:47.724347000,6.218346923828125,0.0347720199073664,-0.0490144985377788,-0.1571726754397154
2024-12-07 20:26:47.734360800,6.22836083984375,0.2316390106201172,-0.0032166239589452,-0.1786722673252224
2024-12-07 20:26:47.744375000,6.238375,0.2950724768663756,0.0513455718338489,-0.2144219183593988
2024-12-07 20:26:47.754388000,6.248387939453125,0.1541828459739685,0.0185416188627481,-0.2900625580161809
2024-12-07 20:26:47.764402000,6.25840185546875,-0.0105284082770347,-0.1399830557078123,-0.3900233999371528
2024-12-07 20:26:47.774416000,6.268415771484375,-0.1594260073244571,-0.115548287153244,-0.4382590230569243
2024-12-07 20:26:47.784428800,6.2784287109375,-0.3308125015556812,-0.0587666617453098,-0.4265329294279217
2024-12-07 20:26:47.794443000,6.288443115234375,-0.4160088685324415,-0.0541799184769392,-0.3894228036954998
2024-12-07 20:26:47.804457000,6.29845703125,-0.2764203651001676,-0.0552606994509696,-0.3453866780921816
2024-12-07 20:26:47.814470000,6.308469970703125,0.0023637699892744,-0.1101245085388421,-0.3380670027285814
2024-12-07 20:26:47.824483800,6.31848388671875,0.2237584499707445,-0.2000783357083797,-0.2839025740817189
2024-12-07 20:26:47.834498000,6.328498046875,0.313203158574365,-0.1849094081491231,-0.1440744166746735
2024-12-07 20:26:47.844511000,6.338510986328125,0.4127904910078272,-0.1282581311225891,0.0680146748229861
2024-12-07 20:26:47.854525000,6.34852490234375,0.4939548625221475,-0.0900233852744102,0.1943444682314991
2024-12-07 20:26:47.864539000,6.358538818359375,0.542582444101572,-0.1055038630008697,0.1883709467798471
2024-12-07 20:26:47.874552000,6.368552001953125,0.5838016856532544,-0.1692208406299352,0.1365682788282632
2024-12-07 20:26:47.884565800,6.378565673828125,0.6457528957188129,-0.186657128599286,0.0421647787734866
2024-12-07 20:26:47.894580000,6.388580078125,0.8137374725520611,-0.1409732357889414,-0.0201227505743503
2024-12-07 20:26:47.904593000,6.398593017578125,0.964316156554222,-0.053167526564002,-0.0336497561454772
2024-12-07 20:26:47.914606800,6.40860693359375,1.06460140812397,0.0100759883344173,-0.0014998831689357
2024-12-07 20:26:47.924620800,6.418620849609375,1.221335107624531,0.0954302127540111,0.1155140926226973
2024-12-07 20:26:47.934634000,6.428634033203125,1.3771324030578136,0.0752718063443899,0.1734741141602397
2024-12-07 20:26:47.944648000,6.43864794921875,1.3919278211295605,0.0396247389018535,0.2045414525970816
2024-12-07 20:26:47.954662000,6.448661865234375,1.1582815623402596,0.0812029499590396,0.3329346082761883
2024-12-07 20:26:47.964675000,6.458675048828125,0.7511666692834347,0.1046960537493228,0.4169590453967451
2024-12-07 20:26:47.974689000,6.46868896484375,0.3876818783123046,0.123032505428791,0.5392059534057975
2024-12-07 20:26:47.984702700,6.47870263671875,0.2818273021776229,0.1800397562861442,0.6588645984873175
2024-12-07 20:26:47.994716000,6.4887158203125,0.1795650514464825,0.2482774262100458,0.6833481746196747
2024-12-07 20:26:48.004730000,6.498730224609375,0.0219663326144218,0.2369260111123323,0.4766548046857118
2024-12-07 20:26:48.014744000,6.508744140625,-0.3167266199927777,0.1810124007105827,0.0506567127868533
2024-12-07 20:26:48.024757000,6.518757080078125,-0.6208851425744593,0.1249883156716823,-0.4046396620497107
2024-12-07 20:26:48.034771000,6.52877099609375,-0.7697229742586612,0.0482335772931575,-0.8165876012861728
2024-12-07 20:26:48.044785000,6.538784912109375,-0.7924304806292056,-0.0188461547672748,-1.0824202656701207
2024-12-07 20:26:48.054797800,6.5487978515625,-0.624583997092396,-0.1060042137384414,-1.1648355140283704
2024-12-07 20:26:48.064812000,6.55881201171875,-0.3175205468494445,-0.1360807875722646,-1.112606729619205
2024-12-07 20:26:48.074826000,6.568825927734375,0.0384394015748053,-0.1092512328356504,-0.9566384615331888
2024-12-07 20:26:48.084839000,6.5788388671875,0.418490858073905,-0.0661141018986701,-0.7768614478364586
2024-12-07 20:26:48.094852900,6.588852783203125,0.6387901440341025,-0.0490530769824981,-0.5967734684944153
2024-12-07 20:26:48.104867000,6.5988671875,0.7292367231566459,-0.0498918658941984,-0.4435851865157484
2024-12-07 20:26:48.114879700,6.608879638671875,0.8054021904051304,-0.1044862103909254,-0.3275049844428896
2024-12-07 20:26:48.124894000,6.61889404296875,0.7973357883274554,-0.1274316171705722,-0.2524909522518515
2024-12-07 20:26:48.134908000,6.628907958984375,0.6919839740831405,-0.11909925763309,-0.2398269932508468
2024-12-07 20:26:48.144920800,6.6389208984375,0.490673320100829,-0.0923807620555162,-0.1347659055814146
2024-12-07 20:26:48.154934800,6.648934814453125,0.2081131736040115,-0.1351145728886127,-0.0355032750576734
2024-12-07 20:26:48.164949000,6.658948974609375,-0.001810848814249,-0.2239548858582973,0.0649146629810333
2024-12-07 20:26:48.174962000,6.6689619140625,-0.0252535375915467,-0.2717734526097774,0.2562617029622197
2024-12-07 20:26:48.184976000,6.678975830078125,0.0398890889264643,-0.2732762583881616,0.4540881680905819
2024-12-07 20:26:48.194989800,6.68898974609375,0.1251544660188257,-0.2215747127234935,0.5686655643850564
2024-12-07 20:26:48.205003000,6.6990029296875,0.2004885970097035,-0.1981622729539871,0.634779081761837
2024-12-07 20:26:48.215017000,6.709016845703125,0.2693556508783251,-0.191095987829566,0.6328814314469695
2024-12-07 20:26:48.225031000,6.719031005859375,0.2663162831824273,-0.1946422821342945,0.5099290055170655
2024-12-07 20:26:48.235044000,6.729044189453125,0.177161424370855,-0.1883493194699287,0.3072483783558011
2024-12-07 20:26:48.245057800,6.739057861328125,0.0647474166553467,-0.200654089769721,0.0914966726973652
2024-12-07 20:26:48.255072000,6.749072021484375,-0.0216752407133579,-0.187781748715043,-0.0794131439328193
2024-12-07 20:26:48.265085000,6.7590849609375,-0.0283329450368881,-0.1692804618626832,-0.2152741512745618
2024-12-07 20:26:48.275099100,6.76909912109375,0.0296466579839587,-0.1653752711176872,-0.3192924518927931
2024-12-07 20:26:48.285112800,6.77911279296875,0.0898128112636506,-0.1519645854026079,-0.3842459855794906
2024-12-07 20:26:48.295126000,6.7891259765625,0.0739301824770867,-0.12465689176023,-0.4247141895681619
2024-12-07 20:26:48.305140000,6.799139892578125,-0.0639921413086354,-0.0633814620643854,-0.4242904111981391
2024-12-07 20:26:48.315154000,6.80915380859375,-0.3281250160373747,0.0817950706332922,-0.3558545883536338
2024-12-07 20:26:48.325166800,6.819166748046875,-0.6764193982698022,0.2918634699583053,-0.1697989327788353
2024-12-07 20:26:48.335181000,6.82918115234375,-1.0277752138994634,0.4505646701395511,0.0154994746878743
2024-12-07 20:26:48.345194800,6.83919482421875,-1.2866063289582728,0.4445920254707336,0.2315288282439112
2024-12-07 20:26:48.355208000,6.8492080078125,-1.2417220620930194,0.2696107216179371,0.4656318908900022
2024-12-07 20:26:48.365222000,6.859221923828125,-0.8378453472398221,0.0092442136853933,0.4920040572479367
2024-12-07 20:26:48.375236000,6.869236083984375,-0.4723403024874627,-0.1840636049747467,0.3738680916890501
2024-12-07 20:26:48.385249000,6.8792490234375,-0.2309256016537547,-0.3201759567290544,0.3129334382548928
2024-12-07 20:26:48.395263000,6.889262939453125,-0.0428723425209522,-0.4079728981256484,0.3033259442150592
2024-12-07 20:26:48.405277000,6.89927685546875,0.0944612215913832,-0.4631821596503258,0.3917340032473206
2024-12-07 20:26:48.415289900,6.909289794921875,0.1748271362043917,-0.4367915808528661,0.524469572044909
2024-12-07 20:26:48.425304000,6.919303955078125,0.1591267321169376,-0.3925824367702007,0.7065893494755029
2024-12-07 20:26:48.435318000,6.929318115234375,0.146637837421894,-0.304893047401309,0.8950935672461986
2024-12-07 20:26:48.445331000,6.9393310546875,0.1199146656692028,-0.2619453015565872,0.9909282691478728
2024-12-07 20:26:48.455345000,6.949344970703125,0.0360321212373673,-0.2921574844688177,0.9412876015357672
2024-12-07 20:26:48.465358800,6.95935888671875,-0.0966518635034561,-0.3576613455146551,0.8387316285550593
2024-12-07 20:26:48.475371800,6.969371826171875,-0.2191946857191622,-0.4281237057507038,0.7833465720720588
2024-12-07 20:26:48.485386000,6.979385986328125,-0.27326529860273,-0.4760153377383947,0.7611252417832612
2024-12-07 20:26:48.495400000,6.98939990234375,-0.3076747870743274,-0.5348731848984957,0.720474374704063
2024-12-07 20:26:48.505412900,6.999412841796875,-0.2821263581894338,-0.5773942297637462,0.6886341521985828
2024-12-07 20:26:48.515426800,7.0094267578125,-0.2507062607921659,-0.5380769493758678,0.662219900264591
2024-12-07 20:26:48.525441000,7.01944091796875,-0.2133097193337977,-0.4181885871917009,0.6302312091991304
2024-12-07 20:26:48.535454000,7.029453857421875,-0.1843921062767505,-0.2176087317019701,0.6608410131268203
2024-12-07 20:26:48.545468000,7.039468017578125,-0.1899088238716125,-0.0528758501410484,0.656546530803293
2024-12-07 20:26:48.555481900,7.04948193359375,-0.2449579263985156,0.0211824887603521,0.6499298891425133
2024-12-07 20:26:48.565496000,7.05949609375,-0.3618900691255927,-0.0009147767573595,0.7016971935197711
2024-12-07 20:26:48.575508700,7.0695087890625,-0.4948293438017368,-0.1442278536707162,0.7364607561260461
2024-12-07 20:26:48.585523000,7.07952294921875,-0.6001743629790842,-0.2486842534452676,0.8241714805439114
2024-12-07 20:26:48.595536000,7.089535888671875,-0.5411582565173506,-0.2715530878573656,0.878804841876775
2024-12-07 20:26:48.605549800,7.0995498046875,-0.3785878136873245,-0.1740063213407993,0.9271291661933064
2024-12-07 20:26:48.615563800,7.109563720703125,-0.1946606945738196,-0.0181681093752384,1.0394256119437515
2024-12-07 20:26:48.625578000,7.119577880859375,-0.005544482384622,0.0661520958214998,1.2426776092521843
2024-12-07 20:26:48.635591000,7.1295908203125,0.219348853367567,0.0744897160559892,1.5171870626971125
2024-12-07 20:26:48.645604900,7.13960498046875,0.5529615070357918,0.1258037237077951,1.7310088232062757
2024-12-07 20:26:48.655618000,7.1496181640625,0.8989951047293842,0.1954255414664745,1.8284003991611304
2024-12-07 20:26:48.665632000,7.159632080078125,1.164579201179743,0.2874099976807832,1.7916387946054335
2024-12-07 20:26:48.675646000,7.16964599609375,1.240247605626285,0.4206511779129505,1.5814223651118575
2024-12-07 20:26:48.685660000,7.179659912109375,1.1614905875146389,0.5128250192195177,1.172324846870452
2024-12-07 20:26:48.695673000,7.189673095703125,0.8792387032493948,0.6231091022342443,0.648301265027374
2024-12-07 20:26:48.705687000,7.19968701171875,0.4981270701728761,0.6587175912320613,0.0207667475663125
2024-12-07 20:26:48.715701000,7.209700927734375,0.0855088304594159,0.7329208915621042,-0.5679886880367994
2024-12-07 20:26:48.725714000,7.2197138671875,-0.3259774826146662,0.8674725698709488,-1.0687991520747542
2024-12-07 20:26:48.735728000,7.22972802734375,-0.8009260679043829,0.9984370373427868,-1.4190179264985023
2024-12-07 20:26:48.745741800,7.239741943359375,-1.1799997654125094,1.1220610789239407,-1.477937294587493
2024-12-07 20:26:48.755755000,7.249755126953125,-1.3078854099608956,1.094040268576145,-1.226101883634925
2024-12-07 20:26:48.765769000,7.25976904296875,-1.1572758924290538,0.8930968404710292,-0.7532809580236673
2024-12-07 20:26:48.775783000,7.269782958984375,-0.8392074293732643,0.5958639524340629,-0.2069210412099957
2024-12-07 20:26:48.785795800,7.2797958984375,-0.466212321126461,0.2807832730174064,0.2576043497428298
2024-12-07 20:26:48.795810000,7.28981005859375,-0.1008218426644802,0.002905658313632,0.5577138161294162
2024-12-07 20:26:48.805824000,7.299823974609375,0.1276899758458137,-0.2581868258059024,0.744441233485937
2024-12-07 20:26:48.815837200,7.309837158203125,0.2432145898625254,-0.4559042776018381,0.8462186233095824
2024-12-07 20:26:48.825851000,7.319850830078125,0.2574643567502498,-0.5814145713210106,0.8911322623997926
2024-12-07 20:26:48.835865000,7.329864990234375,0.2069954216204583,-0.6641758566379546,0.8946845480538904
2024-12-07 20:26:48.845878000,7.3398779296875,0.1560873644210398,-0.6419131714254618,0.8348318446375429
2024-12-07 20:26:48.855892000,7.34989208984375,0.075673519013077,-0.5228817183315754,0.7234585050813853
2024-12-07 20:26:48.865906000,7.359906005859375,-0.0603065846636891,-0.4075263234019279,0.6107081780835986
2024-12-07 20:26:48.875919000,7.369919189453125,-0.2046307383157312,-0.3089075437396764,0.4624732807286083
2024-12-07 20:26:48.885933000,7.37993310546875,-0.3206817142941057,-0.2434393385291099,0.3849946119897067
2024-12-07 20:26:48.895947000,7.389947021484375,-0.4002924266256392,-0.2226800436168909,0.3198043469376861
2024-12-07 20:26:48.905960200,7.399960205078125,-0.3898059577941894,-0.236387666451931,0.2604896959207952
2024-12-07 20:26:48.915974100,7.40997412109375,-0.2709260420002043,-0.2567775435298681,0.2445436465092003
2024-12-07 20:26:48.925987800,7.41998779296875,-0.1889164518333971,-0.2930775219231843,0.2211031496889889
2024-12-07 20:26:48.936001000,7.4300009765625,-0.1886452336765825,-0.3725432728260755,0.1990123139120638
2024-12-07 20:26:48.946015200,7.44001513671875,-0.2462051499806344,-0.4207774346411227,0.1829701106496155
2024-12-07 20:26:48.956029000,7.45002880859375,-0.3855424551308155,-0.4288619568973779,0.1729372308045625
2024-12-07 20:26:48.966042000,7.4600419921875,-0.510096909429878,-0.3790788120746612,0.1724959167778492
2024-12-07 20:26:48.976056000,7.47005615234375,-0.5682065685711801,-0.2625058580487966,0.1937016402833163
2024-12-07 20:26:48.986070300,7.4800703125,-0.6185764272406697,-0.140375269895792,0.2029240805283188
2024-12-07 20:26:48.996083000,7.4900830078125,-0.7178641922056674,-0.0100268884956836,0.2117388167552649
2024-12-07 20:26:49.006097200,7.50009716796875,-0.8072283098537475,0.1353495506882667,0.2375786298021674
2024-12-07 20:26:49.016111000,7.510111083984375,-0.8618880477368831,0.2656412334650754,0.2174699077531695
2024-12-07 20:26:49.026124000,7.5201240234375,-0.8974492635268717,0.4385018919020891,0.2162422656543552
2024-12-07 20:26:49.036138000,7.530137939453125,-0.9113970517933369,0.6163455994486808,0.1958141023926436
2024-12-07 20:26:49.046152200,7.540152099609375,-0.9730899031836538,0.7767273000627756,0.1124817391894757
2024-12-07 20:26:49.056164900,7.550164794921875,-1.1227660123229026,0.886252673664689,-0.0092255089849233
2024-12-07 20:26:49.066179000,7.560178955078125,-1.3408768483281135,0.9917232189178466,-0.0803545164361596
2024-12-07 20:26:49.076193000,7.570193115234375,-1.5869816066741942,1.082024252089858,-0.1436750420935452
2024-12-07 20:26:49.086206000,7.5802060546875,-1.7100900999486446,1.0649176344662905,-0.2448880760326981
2024-12-07 20:26:49.096220000,7.590219970703125,-1.5833680923521518,1.0291209294199943,-0.3566339021630585
2024-12-07 20:26:49.106234000,7.600234130859375,-1.2197522223472594,0.9627613283276556,-0.4558937562078237
2024-12-07 20:26:49.116247000,7.6102470703125,-0.6890156988620758,0.8910749792546033,-0.5584767633259297
2024-12-07 20:26:49.126261000,7.620260986328125,-0.2194879695773124,0.8809779481321572,-0.6357005805209278
2024-12-07 20:26:49.136275000,7.63027490234375,0.1223287410736083,0.87882807662189,-0.7598924851179123
2024-12-07 20:26:49.146288000,7.6402880859375,0.5775099650979042,0.8335153552114963,-0.8034571938171983
2024-12-07 20:26:49.156302000,7.650302001953125,1.091685229882598,0.7197305705994367,-0.9804384393155574
2024-12-07 20:26:49.166316000,7.66031591796875,1.398907597014308,0.5330032993733883,-1.167049975207448
2024-12-07 20:26:49.176329200,7.6703291015625,1.5014263067245484,0.4552016822904348,-1.256171150945127
2024-12-07 20:26:49.186343000,7.680343017578125,1.4600287129312752,0.6718132196485996,-1.16563806258291
2024-12-07 20:26:49.196357000,7.690357177734375,1.2866776406288143,1.0015811805874109,-0.9625485623598098
2024-12-07 20:26:49.206370000,7.7003701171875,1.0716413897633552,1.2441460743695496,-0.7030059380307793
2024-12-07 20:26:49.216384000,7.710384033203125,0.8552041129935533,1.272068685039878,-0.4416854903742671
2024-12-07 20:26:49.226398000,7.72039794921875,0.8328717966109513,1.1491343792885542,-0.212295427724719
2024-12-07 20:26:49.236411100,7.7304111328125,0.9417828377068044,0.8658335704922676,-0.1651905622005462
2024-12-07 20:26:49.246425000,7.740425048828125,1.075353103762865,0.6720645640611648,-0.0171115860596299
2024-12-07 20:26:49.256439000,7.75043896484375,1.040451301729679,0.3767985921829939,0.2101440949097275
2024-12-07 20:26:49.266452000,7.760451904296875,0.8977046995926647,-0.0669306789785623,0.1797597703009843
2024-12-07 20:26:49.276466200,7.770466064453125,0.8900678480386733,-0.5044570038467645,-0.1708501953974366
2024-12-07 20:26:49.286480000,7.78047998046875,1.062106084176898,-0.756138685542345,-0.6478223954692482
2024-12-07 20:26:49.296493000,7.7904931640625,1.2083687316108491,-0.8570867849349975,-1.1045645851999522
2024-12-07 20:26:49.306507000,7.800507080078125,1.3210259004324674,-0.9015414282113312,-1.3347908064126968
2024-12-07 20:26:49.316521200,7.810521240234375,1.393834531533718,-0.8854168073624372,-1.4753580917492508
2024-12-07 20:26:49.326534100,7.8205341796875,1.3642308359086512,-0.8449030106663703,-1.5767241242930292
2024-12-07 20:26:49.336548000,7.830548095703125,1.2247820332080126,-0.7615829224228858,-1.6244041593566536
2024-12-07 20:26:49.346562000,7.84056201171875,1.0370844556450842,-0.6307219153255224,-1.6765689386188982
2024-12-07 20:26:49.356575000,7.850574951171875,0.80979728355892,-0.5611328307926654,-1.7824278986677526
2024-12-07 20:26:49.366589200,7.860589111328125,0.5849381423372775,-0.5769464859962463,-1.820377982355654
2024-12-07 20:26:49.376603100,7.87060302734375,0.3046756783235818,-0.6113549515545368,-1.847089171409607
2024-12-07 20:26:49.386616000,7.880615966796875,-0.0305793357241898,-0.6266138954848051,-1.9149144611403344
2024-12-07 20:26:49.396630000,7.890630126953125,-0.3871856192279607,-0.6727905402481555,-1.96144561842978
2024-12-07 20:26:49.406644200,7.900644287109375,-0.8234135748486966,-0.6211076992839575,-1.788095130649209
2024-12-07 20:26:49.416657000,7.910656982421875,-1.190094166186452,-0.4813526071131229,-1.45303578530401
2024-12-07 20:26:49.426671000,7.920671142578125,-1.408715289801359,-0.3194073104441166,-1.0147095422297716
2024-12-07 20:26:49.436685000,7.93068505859375,-1.4497253455817698,-0.1118745670765638,-0.4207622370719909
2024-12-07 20:26:49.446698000,7.940697998046875,-1.381454357910156,0.192886378377676,0.2663549346923828
2024-12-07 20:26:49.456712000,7.9507119140625,-1.136402323487401,0.4464654181271791,0.8098460180714726
2024-12-07 20:26:49.466726100,7.96072607421875,-0.7139310174752026,0.5552466953635216,1.3359396841868758
2024-12-07 20:26:49.476739000,7.970739013671875,-0.3494424562890082,0.3392763785183429,1.508728154170513
2024-12-07 20:26:49.486753000,7.9807529296875,-0.138411276346445,-0.2140659445285797,1.144746081201732
2024-12-07 20:26:49.496767000,7.99076708984375,-0.2064624107223004,-0.8708353243023157,0.4853150810033083
2024-12-07 20:26:49.506780200,8.0007802734375,-0.4269604341249913,-1.3715093024790286,0.0040852234870195
2024-12-07 20:26:49.516793900,8.0107939453125,-0.5814332029562443,-1.607857805964351,-0.2650710323616862
2024-12-07 20:26:49.526808000,8.02080810546875,-0.5602515179134905,-1.693289187273383,-0.4019947004988789
2024-12-07 20:26:49.536821200,8.0308212890625,-0.4891320089429616,-1.7151970676988362,-0.4242977177217602
2024-12-07 20:26:49.546835000,8.0408349609375,-0.3114968295805156,-1.6965344528049229,-0.3732020289957523
2024-12-07 20:26:49.556849000,8.050848876953125,-0.0986268168382346,-1.5674486386865376,-0.1585109383061528
2024-12-07 20:26:49.566862000,8.060862060546874,0.0465654979504644,-1.402831492459774,0.2087663768157363
2024-12-07 20:26:49.576876300,8.070876220703125,0.2535265058446675,-1.2300760479629038,0.5926683712631464
2024-12-07 20:26:49.586890000,8.080889892578124,0.4309733960933983,-1.1073498320043087,0.9755085816979407
2024-12-07 20:26:49.596903200,8.090903076171875,0.5032073691118508,-1.0467916106671094,1.4719702028766273
2024-12-07 20:26:49.606917000,8.100917236328126,0.6932032136797904,-1.0407879863381386,1.96986711755544
2024-12-07 20:26:49.616931000,8.11093115234375,0.7105512388437986,-1.0563853684425353,2.114230288043618
2024-12-07 20:26:49.626944000,8.120944091796876,0.3388198669224977,-1.1005115104168652,1.991399150405824
2024-12-07 20:26:49.636958200,8.130958251953125,-0.2319657583564519,-1.193710018596053,1.7246134230807422
2024-12-07 20:26:49.646972000,8.140971923828126,-0.7303004799306392,-1.2016577627301217,1.347065766096115
2024-12-07 20:26:49.656985000,8.150985107421874,-1.2397042925298214,-1.1248328817248343,0.9402797396674752
2024-12-07 20:26:49.666999000,8.1609990234375,-1.5366975265920162,-0.9354203169375658,0.6337143751397728
2024-12-07 20:26:49.677013200,8.17101318359375,-1.605425025859475,-0.6541086361318826,0.4307572691246867
2024-12-07 20:26:49.687026000,8.18102587890625,-1.5389625489145518,-0.5158937591403723,0.2121174408093094
2024-12-07 20:26:49.697040100,8.1910400390625,-1.4063292714476583,-0.4329395815998315,0.0456380078420042
2024-12-07 20:26:49.707054000,8.20105419921875,-1.1041606805741786,-0.3914741832673549,0.0462792283549904
2024-12-07 20:26:49.717067000,8.21106689453125,-0.4597925902772694,-0.4880781159758567,-0.0451607457190752
2024-12-07 20:26:49.727081000,8.2210810546875,-0.0122241793442517,-0.3872738089680671,-0.3361483096256852
2024-12-07 20:26:49.737095200,8.23109521484375,-0.0159697225481271,0.0255161340504884,-0.8418237493515014
2024-12-07 20:26:49.747108000,8.241108154296874,-0.7326854023057967,0.7866624186217784,-1.2248512990519405
2024-12-07 20:26:49.757122000,8.2511220703125,-1.9333312845796349,2.050969237488508,-0.9504206099316476
2024-12-07 20:26:49.767136000,8.261135986328124,-2.813254170700908,3.686086806300282,0.1211217033714056
2024-12-07 20:26:49.777149000,8.27114892578125,-2.638185188564658,5.115438641417026,1.6017273403853176
2024-12-07 20:26:49.787163100,8.2811630859375,-1.7362001082390546,5.548456548950076,2.724620486219228
2024-12-07 20:26:49.797176600,8.291176513671875,-0.7510914120901375,4.839983285424113,3.0289658366099
2024-12-07 20:26:49.807189500,8.301189453125,0.10208678456638,3.005836013174057,2.505458387595415
2024-12-07 20:26:49.817203500,8.311203369140625,0.8113847719460725,0.6037976680427789,1.5822136616200209
2024-12-07 20:26:49.827217700,8.3212177734375,1.4910036969095468,-1.1185849272459745,0.337968803051114
2024-12-07 20:26:49.837230300,8.331230224609374,1.815790362304449,-2.3441326841294763,-1.1272332208648324
2024-12-07 20:26:49.847244500,8.34124462890625,1.5980606345713138,-3.077953154879808,-2.4044360539227725
2024-12-07 20:26:49.857258500,8.351258544921874,0.9690707306701688,-3.3407951130151745,-3.260226369306445
2024-12-07 20:26:49.867271700,8.361271728515625,0.285844100070931,-3.0315555608421563,-3.5511774005949497
2024-12-07 20:26:49.877285400,8.371285400390626,-0.0301104030381888,-2.1803706934273244,-3.09206818947196
2024-12-07 20:26:49.887299600,8.381299560546875,0.2457095484834164,-1.0941185945093632,-2.155793886053562
2024-12-07 20:26:49.897312800,8.391312744140626,0.5007645790696144,-0.0364613064348697,-1.459296014742553
2024-12-07 20:26:49.907326500,8.401326416015625,0.56920328799095,0.8688555486619473,-0.9460092232301832
2024-12-07 20:26:49.917340400,8.41134033203125,0.6503355473339557,1.4537813429743052,-0.3127425918579101
2024-12-07 20:26:49.927353600,8.421353515625,0.9117144471794366,1.6162299129903317,0.2382102057039737
2024-12-07 20:26:49.937367600,8.431367431640625,1.0411129805088042,1.5352631098747254,0.451847987948358
2024-12-07 20:26:49.947381500,8.441381591796874,1.1985709026306868,1.2658218996047972,0.2699929989337921
2024-12-07 20:26:49.957394700,8.451394775390625,1.2727245186001062,0.7562807243615388,-0.1117079783380031
2024-12-07 20:26:49.967408600,8.46140869140625,1.0685153666973113,0.2838175261467695,-0.6345604705750942
2024-12-07 20:26:49.977422600,8.471422607421875,0.6521195081412792,-0.028174539604783,-1.166411969564855
2024-12-07 20:26:49.987435500,8.481435546875,0.3299024375060573,-0.1447626911997795,-1.514802505648136
2024-12-07 20:26:49.997449700,8.49144970703125,0.1407639952187426,-0.1616115346699953,-1.6580694053322076
2024-12-07 20:26:50.007463400,8.50146337890625,0.1599590730215422,-0.1006172600030899,-1.5887731662660836
2024-12-07 20:26:50.017476600,8.5114765625,0.4342764196941628,-0.0124093997180461,-1.4811851904675364
2024-12-07 20:26:50.027490600,8.521490478515625,0.5108107567876577,-0.0146960493505001,-1.4724012877702712
2024-12-07 20:26:50.037504500,8.53150439453125,0.3712544020593166,-0.0892383723765611,-1.4316376079663633
2024-12-07 20:26:50.047517400,8.541517333984375,0.068486676248908,-0.1328080495119094,-1.2338023750096558
2024-12-07 20:26:50.057531600,8.55153173828125,-0.1312502986758947,-0.1347527538388967,-0.9183855955064296
2024-12-07 20:26:50.067545600,8.561545654296875,-0.0357499432951211,-0.1188484977424144,-0.491024398560822
2024-12-07 20:26:50.077558500,8.57155859375,0.2182569664776325,-0.0392167426228523,-0.0875505654200911
2024-12-07 20:26:50.087572500,8.581572509765625,0.5097767375648021,0.1129132624745368,0.2391325812458991
2024-12-07 20:26:50.097586700,8.591586669921876,0.8015618815898895,0.2001969936519861,0.3922971900880336
2024-12-07 20:26:50.107599600,8.601599609375,0.966455506670475,0.1377495975673198,0.3943713660135865
2024-12-07 20:26:50.117613600,8.611613525390625,0.8565946175038814,-0.0177092596918344,0.2127446327969431
2024-12-07 20:26:50.127627500,8.62162744140625,0.4679810843646526,-0.1578355232626199,-0.0030833529680967
2024-12-07 20:26:50.137640400,8.631640380859375,0.057768261825107,-0.1791676496267318,-0.2007005592599511
2024-12-07 20:26:50.147654700,8.641654541015624,-0.1476911093344911,-0.147878192871809,-0.3609957506343722
2024-12-07 20:26:50.157668600,8.651668701171875,-0.089123258096911,-0.0704559304952621,-0.4549339712649584
2024-12-07 20:26:50.167681500,8.661681640625,0.0836696688661351,-0.0018581950873136,-0.6183820737123489
2024-12-07 20:26:50.177695500,8.671695556640625,0.1804430398574099,0.0889338364720344,-0.8938631486684083
2024-12-07 20:26:50.187709700,8.681709716796876,0.088544508360885,0.1497252820432186,-1.1347671235010026
2024-12-07 20:26:50.197722400,8.691722412109375,-0.146108260589838,0.195969146823883,-1.284355042900145
2024-12-07 20:26:50.207736600,8.701736572265625,-0.3977402579247951,0.3058592620849609,-1.2341224007442593
2024-12-07 20:26:50.217750500,8.71175048828125,-0.5003833977323026,0.4288467593282461,-0.9780901226237416
2024-12-07 20:26:50.227763700,8.721763671875,-0.305070157533884,0.4642582644492387,-0.6032365270286798
2024-12-07 20:26:50.237777400,8.73177734375,0.157113638728857,0.3409334980756044,-0.1912672527432441
2024-12-07 20:26:50.247791600,8.74179150390625,0.7127426844734698,0.1137479597330093,0.1795481733769178
2024-12-07 20:26:50.257804500,8.751804443359376,1.2881646643161773,-0.218065827819705,0.4060992132082581
2024-12-07 20:26:50.267818500,8.761818603515625,1.7083318581044673,-0.6198527307868004,0.408868970182538
2024-12-07 20:26:50.277832400,8.77183251953125,1.84255211250186,-0.8326222057640552,0.2867109095007181
2024-12-07 20:26:50.287845600,8.781845703125,1.7240379612803458,-0.7038929499983787,0.1758455194666981
2024-12-07 20:26:50.297859600,8.791859619140626,1.5204583394527431,-0.3203033825010061,0.0929454102009534
2024-12-07 20:26:50.307873500,8.80187353515625,1.3186065643310547,0.1074041436642408,-0.0352072147205472
2024-12-07 20:26:50.317886500,8.811886474609375,1.0854605832140891,0.472680055835843,-0.1128752685517072
2024-12-07 20:26:50.327900700,8.821900634765624,0.8240284918766468,0.7694675381928682,-0.1721390661641955
2024-12-07 20:26:50.337914400,8.831914306640625,0.5618470434766263,0.8178589363962412,-0.2547770173624157
2024-12-07 20:26:50.347927600,8.841927490234376,0.4030875372368842,0.6694225251197815,-0.2726277313515544
2024-12-07 20:26:50.357941500,8.85194140625,0.3388800726771354,0.4367945034623146,-0.2671492999404669
2024-12-07 20:26:50.367955500,8.86195556640625,0.2026303582787513,0.2922124295264482,-0.298533449241519
2024-12-07 20:26:50.377968600,8.87196875,-0.0072188453376293,0.2343582064509391,-0.2798155970290303
2024-12-07 20:26:50.387982600,8.881982666015626,-0.2208346349459141,0.1659726524889469,-0.2267766652807593
2024-12-07 20:26:50.397996500,8.89199658203125,-0.4495908566713333,-0.0006926584392786,-0.1208770809605717
2024-12-07 20:26:50.408009500,8.902009521484375,-0.5963035128951072,-0.1619803679823875,0.0221463653564453
2024-12-07 20:26:50.418023700,8.912023681640624,-0.4719686926960945,-0.2588397367566823,0.1404857445329427
2024-12-07 20:26:50.428037600,8.92203759765625,-0.0608206716656684,-0.2265244440853595,0.2412295535251498
2024-12-07 20:26:50.438050600,8.932050537109374,0.240338961360976,-0.2325613861620426,0.1905161421149969
2024-12-07 20:26:50.448064500,8.942064453125,0.4468997178912162,-0.3583768003076314,0.10089666146636
2024-12-07 20:26:50.458078700,8.95207861328125,0.4094960891049355,-0.4942494980871677,0.0191810858100652
2024-12-07 20:26:50.468091400,8.96209130859375,0.2684696618240326,-0.5516033704251051,0.0563861963495612
2024-12-07 20:26:50.478105600,8.972105712890626,0.3339280032277107,-0.5460796385675668,0.1556806833162903
2024-12-07 20:26:50.488119600,8.98211962890625,0.5601204388797283,-0.4954343239575624,0.2515820207133889
2024-12-07 20:26:50.498132500,8.992132568359375,0.7062497422575951,-0.417134694224596,0.3188026225492358
2024-12-07 20:26:50.508146400,9.002146484375,0.7364600985389202,-0.2828179937154054,0.4365583566188812
2024-12-07 20:26:50.518160600,9.01216064453125,0.6636882923167199,-0.1959615480393171,0.5090910933881998
2024-12-07 20:26:50.528173600,9.022173583984374,0.5368587326925247,-0.1372445706546306,0.5693231515109539
2024-12-07 20:26:50.538187500,9.0321875,0.4036824343901127,-0.0956090764522552,0.5986734568968415
2024-12-07 20:26:50.548201500,9.042201416015626,0.3197111887615174,-0.1028647466689348,0.4914519763231277
2024-12-07 20:26:50.558214700,9.052214599609377,0.3271064866445958,-0.1529728856623172,0.3175461927473545
2024-12-07 20:26:50.568228600,9.062228515625,0.345841874513775,-0.2255377711355686,0.1677113128498196
2024-12-07 20:26:50.578242600,9.07224267578125,0.3994401937104761,-0.3121644997090101,0.0520268320962786
2024-12-07 20:26:50.588255700,9.082255859375,0.4964425511520355,-0.3644423839569091,-0.0256637258276343
2024-12-07 20:26:50.598269400,9.09226953125,0.5154068524062633,-0.3172615305870771,-0.0766699827045202
2024-12-07 20:26:50.608283400,9.102283447265624,0.4414170486964285,-0.1982160489678383,-0.1184141979783773
2024-12-07 20:26:50.618296600,9.112296630859374,0.2451378130100667,-0.0819745188534259,-0.2055003607571125
2024-12-07 20:26:50.628310500,9.122310546875,0.02904270074144,-0.0010948094993829,-0.2861182043045759
2024-12-07 20:26:50.638324500,9.132324462890624,-0.1145849950790405,0.1081570078581571,-0.2685568286508321
2024-12-07 20:26:50.648337700,9.142337646484377,-0.1489513750612735,0.1936181997835636,-0.1909007575184106
2024-12-07 20:26:50.658351600,9.1523515625,-0.0315419702112674,0.2165437328189611,-0.1400467685937881
2024-12-07 20:26:50.668365600,9.162365478515625,0.1299191962026059,0.1609329047560691,-0.209537068927288
2024-12-07 20:26:50.678378500,9.17237841796875,0.1921018038712441,0.0922276173204183,-0.3131812755361199
2024-12-07 20:26:50.688392700,9.182392822265625,0.2293430086374282,0.039179917743802,-0.3417819315984845
2024-12-07 20:26:50.698406400,9.192406494140624,0.1503963131725788,-0.0201712658911943,-0.3959709101647138
2024-12-07 20:26:50.708419600,9.202419677734374,-0.0178219262860715,-0.0690571696132421,-0.41327597296983
2024-12-07 20:26:50.718433500,9.21243359375,-0.2271381920695304,-0.1308668523162603,-0.3616968846410512
2024-12-07 20:26:50.728447500,9.222447509765624,-0.4688149048402905,-0.1840495764493942,-0.205242002081871
2024-12-07 20:26:50.738460400,9.23246044921875,-0.7067794652201235,-0.2690869900047778,-0.068257251407206
2024-12-07 20:26:50.748474600,9.242474609375,-0.8562472653709352,-0.3882084594696759,0.0459964658908545
2024-12-07 20:26:50.758488600,9.252488525390625,-0.8984674275934695,-0.4676835627228021,0.2020750624835491
2024-12-07 20:26:50.768501500,9.26250146484375,-0.8674468509078025,-0.4719891509622335,0.3391096436493098
2024-12-07 20:26:50.778515500,9.272515380859376,-0.7737713728666306,-0.3822065887063741,0.3649270987339317
2024-12-07 20:26:50.788529700,9.28252978515625,-0.6804733498357236,-0.2455944707363843,0.3257461580768227
2024-12-07 20:26:50.798542800,9.29254296875,-0.6231684312060475,-0.10352642544806,0.3074165745295584
2024-12-07 20:26:50.808556800,9.302556884765623,-0.5516052701212465,0.1158703587144613,0.4069542226023971
2024-12-07 20:26:50.818570800,9.31257080078125,-0.5163514397799969,0.348688934507966,0.5495448304601014
2024-12-07 20:26:50.828584000,9.322583984375,-0.4797710370101034,0.3820347392708063,0.6175313021019101
2024-12-07 20:26:50.838598000,9.332597900390626,-0.4085002830006182,0.3148632372736931,0.708388069460541
2024-12-07 20:26:50.848611800,9.34261181640625,-0.3430791318021714,0.1995546040952205,0.7802782705426216
2024-12-07 20:26:50.858625000,9.352625,-0.3066507047235965,-0.0168938516557216,0.8037878870762885
2024-12-07 20:26:50.868638700,9.362638671875,-0.3227905231416225,-0.3170119397401809,0.7502597105063498
2024-12-07 20:26:50.878653000,9.37265283203125,-0.2598771169804036,-0.5697346549212933,0.7356117380812763
2024-12-07 20:26:50.888665900,9.382665771484374,-0.1276528587058186,-0.6861474499493837,0.7507986396886408
2024-12-07 20:26:50.898679800,9.3926796875,0.0411386505961418,-0.5386842676192521,0.7759883182637393
2024-12-07 20:26:50.908693800,9.40269384765625,0.2534222417525947,-0.1840864013284444,0.7729132947325706
2024-12-07 20:26:50.918707000,9.41270703125,0.40064065554142,0.1455862825423479,0.7929685330286621
2024-12-07 20:26:50.928721000,9.422720947265624,0.44767596296072,0.3324187677085399,0.8450092475198209
2024-12-07 20:26:50.938734800,9.43273486328125,0.4431456260547041,0.4205044629186391,0.9518722700446844
2024-12-07 20:26:50.948748800,9.442748779296876,0.2849298713028431,0.3725146312534809,1.0549044822350144
2024-12-07 20:26:50.958762000,9.452761962890625,0.0843286807641387,0.2212304293304681,1.1593718417949974
2024-12-07 20:26:50.968775700,9.462775634765626,0.0058875967338681,0.0964122095286846,1.3920634302079675
2024-12-07 20:26:50.978790000,9.472789794921876,0.101261256995052,0.1706114182054996,1.5806285843856631
2024-12-07 20:26:50.988802800,9.482802734375,0.1621216761492192,0.2804693847626447,1.5251248699590565
2024-12-07 20:26:50.998816800,9.492816650390624,0.1744566954568028,0.4289192400425672,1.31529101004228
2024-12-07 20:26:51.008830000,9.502829833984377,0.1647718983970582,0.5588596251636743,1.0813196109518408
2024-12-07 20:26:51.018844000,9.512843994140624,0.1327531044542789,0.604368161407113,0.8644244343467056
2024-12-07 20:26:51.028857900,9.52285791015625,0.0734346540451049,0.5462070643395185,0.6301395853929221
2024-12-07 20:26:51.038871800,9.532871826171874,-0.0161740129485726,0.4635772964477538,0.3109789431862533
2024-12-07 20:26:51.048885000,9.542885009765625,-0.1480462429150938,0.3874924201548099,0.0242499135069549
2024-12-07 20:26:51.058899000,9.55289892578125,-0.3469090653538704,0.3395639632880687,-0.3349586614497006
2024-12-07 20:26:51.068912600,9.56291259765625,-0.4926948159910738,0.348043622341752,-0.5880693530350923
2024-12-07 20:26:51.078925800,9.57292578125,-0.6275709039486944,0.3244634247899055,-0.7923892718359827
2024-12-07 20:26:51.088940000,9.58293994140625,-0.606370295009762,0.2924269490599632,-0.7282151980891823
2024-12-07 20:26:51.098952700,9.59295263671875,-0.3856549755945802,0.201105340668559,-0.3787487033374607
2024-12-07 20:26:51.108967000,9.602966796875,-0.1499194894410669,0.0394312621563673,0.0408561803929507
2024-12-07 20:26:51.118980900,9.61298095703125,-0.0362055781081318,-0.1399123285591602,0.392578052856028
2024-12-07 20:26:51.128994800,9.622994873046874,0.0168438750341534,-0.2871469628304243,0.6555658492028713
2024-12-07 20:26:51.139007700,9.6330078125,0.0019172317981719,-0.3961749083042145,0.8265681664220988
2024-12-07 20:26:51.149022000,9.64302197265625,-0.0105143797516822,-0.464785503193736,0.928509806896746
2024-12-07 20:26:51.159036000,9.653035888671877,-0.09331088251248,-0.5346686022371053,0.8818576535761355
2024-12-07 20:26:51.169048800,9.663048828125,-0.2518529466092586,-0.5749152724295854,0.7962254889979958
2024-12-07 20:26:51.179062800,9.673062744140625,-0.4111597114682197,-0.6426742189258337,0.6704099287219345
2024-12-07 20:26:51.189077000,9.683076904296875,-0.5058640941657125,-0.661036389568448,0.54762160731256
2024-12-07 20:26:51.199089700,9.693089599609374,-0.4728196104370057,-0.5562760384112596,0.4505978417567908
2024-12-07 20:26:51.209104000,9.703103759765623,-0.3752631993092596,-0.3700964641958474,0.4118817421324551
2024-12-07 20:26:51.219116800,9.71311669921875,-0.2281460539378225,-0.1284434245616197,0.4277414284348487
2024-12-07 20:26:51.229130800,9.723130859375,-0.1498490545533597,0.1281996789336204,0.4503684169150889
2024-12-07 20:26:51.239144700,9.733144775390626,-0.1749684443712234,0.2475093644469976,0.3891907485052943
2024-12-07 20:26:51.249158000,9.743157958984376,-0.2592820736967027,0.2530044547319412,0.3350599298670887
2024-12-07 20:26:51.259171800,9.753171875,-0.424322267641127,0.0968295581579208,0.2973161824062466
2024-12-07 20:26:51.269185800,9.763185791015625,-0.5522141957998276,-0.0987345149964094,0.250353794092685
2024-12-07 20:26:51.279199700,9.77319970703125,-0.6230453893482685,-0.2785778719276189,0.2390250292181968
2024-12-07 20:26:51.289213000,9.783212890625,-0.6273275967121124,-0.4182885404348373,0.249067699804902
2024-12-07 20:26:51.299227000,9.793226806640623,-0.6496059178851544,-0.507111902269721,0.2442928866185247
2024-12-07 20:26:51.309240800,9.80324072265625,-0.6361738971211016,-0.5133581031829119,0.2526571025989949
2024-12-07 20:26:51.319254000,9.81325390625,-0.6355285849548876,-0.3927303208082914,0.2894179765023291
2024-12-07 20:26:51.329267700,9.823267822265626,-0.6525285273335873,-0.1653945603400468,0.3561925881363451
2024-12-07 20:26:51.339282000,9.833281982421877,-0.7038017645835876,0.1275415072858333,0.4636430551603436
2024-12-07 20:26:51.349294800,9.843294921875,-0.7880627869389951,0.4656605324625968,0.6294203312076628
2024-12-07 20:26:51.359309000,9.85330908203125,-0.9649778353333472,0.7497410934597253,0.7498477687045931
2024-12-07 20:26:51.369322800,9.86332275390625,-1.1958453501243145,0.9308622152417898,0.8138530617557466
2024-12-07 20:26:51.379336000,9.8733359375,-1.3621008381426334,1.0390613086760043,0.7545392875216901
2024-12-07 20:26:51.389350000,9.883349853515623,-1.4578794259428978,1.146859420093894,0.5975526361733675
2024-12-07 20:26:51.399363800,9.89336376953125,-1.4868191047012804,1.223906419417262,0.4254834203749895
2024-12-07 20:26:51.409376800,9.903376708984377,-1.4625906723737716,1.2125135032653809,0.1974099932819605
2024-12-07 20:26:51.419391000,9.913390869140626,-1.3915934746086596,1.0925269414037466,-0.0384314374640583
2024-12-07 20:26:51.429404700,9.92340478515625,-1.166669451457262,0.8758400007218122,-0.2625323076643049
2024-12-07 20:26:51.439417900,9.93341796875,-0.7670107926905154,0.6309966406136751,-0.4104316894546151
2024-12-07 20:26:51.449431800,9.943431884765625,-0.3799824829161167,0.4085018904358148,-0.4431982330247759
2024-12-07 20:26:51.459446000,9.953446044921876,-0.0046264724905602,0.186138657683134,-0.3897203253373503
2024-12-07 20:26:51.469459000,9.963458984375,0.4544330360054969,0.0276888019144535,-0.271932734824717
2024-12-07 20:26:51.479473000,9.973472900390624,0.917500629365444,-0.0649707770824432,-0.2098348828300833
2024-12-07 20:26:51.489486800,9.98348681640625,1.240493981602788,0.0703887104779481,-0.1748269900739192
2024-12-07 20:26:51.499499800,9.993499755859377,1.449150760564208,0.3231535112351179,-0.0539952095597982
2024-12-07 20:26:51.509513700,10.003513671875,1.4828443558514115,0.541107110852003,-0.1697784745126962
2024-12-07 20:26:51.519528000,10.01352783203125,1.4483850368887186,0.7827852849274873,-0.2188599008068442
2024-12-07 20:26:51.529540900,10.023540771484376,1.411369019180536,1.006536172646284,-0.1479062499225139
2024-12-07 20:26:51.539554800,10.033554931640625,1.3109557573169468,1.245751756000519,-0.0569368159696459
2024-12-07 20:26:51.549568800,10.04356884765625,1.2965116369009018,1.3218015609800815,-0.0403179818630218
2024-12-07 20:26:51.559581700,10.053581787109374,1.3128577915459871,1.2139987733870743,0.0263709973141551
2024-12-07 20:26:51.569596000,10.063595947265624,1.263881286931038,0.9178951816409826,0.2592103236347436
2024-12-07 20:26:51.579609900,10.07360986328125,1.1567629744708536,0.532670121896267,0.3406716322690248
2024-12-07 20:26:51.589622800,10.083622802734377,1.0452151551306248,0.1031985086679458,0.2283025596737861
2024-12-07 20:26:51.599636700,10.09363671875,0.9937152695178983,-0.3813707224041223,-0.1816647271394729
2024-12-07 20:26:51.609651000,10.10365087890625,1.1167017438478768,-0.7981634713232517,-0.7853440294995904
2024-12-07 20:26:51.619664000,10.113663818359376,1.3940502201110123,-1.0528402431815862,-1.3250368896394966
2024-12-07 20:26:51.629677800,10.123677734375,1.672343429878354,-1.1767957086741925,-1.7885364446759222
2024-12-07 20:26:51.639691800,10.13369189453125,1.81940679923594,-1.219913550388813,-2.134941359899938
2024-12-07 20:26:51.649705000,10.143705078125,1.8195313023984432,-1.1757020682185888,-2.357263091598451
2024-12-07 20:26:51.659718700,10.15371875,1.6498638870447873,-1.0876672264128924,-2.488546415761113
2024-12-07 20:26:51.669732900,10.16373291015625,1.441401753872633,-0.9675795422643424,-2.4809403246715664
2024-12-07 20:26:51.679745800,10.173745849609375,1.2312222953885792,-0.8696183497279882,-2.3881404604211447
2024-12-07 20:26:51.689759700,10.183759765625,0.976353288893774,-0.7432604992687701,-2.2505890157744286
2024-12-07 20:26:51.699773700,10.193773681640623,0.5731470937132835,-0.560619036051631,-2.169499170801044
2024-12-07 20:26:51.709787000,10.203786865234376,0.0572440552879124,-0.2530079618632793,-2.033406108269096
2024-12-07 20:26:51.719800800,10.21380078125,-0.4116973985414952,0.1278822835475206,-1.831145752346516
2024-12-07 20:26:51.729814800,10.223814697265626,-0.7711544683665037,0.5405377865314483,-1.673090448853373
2024-12-07 20:26:51.739828000,10.233827880859376,-1.0830430737435817,0.8638631472021341,-1.404036192074418
2024-12-07 20:26:51.749842000,10.243842041015624,-1.3786504064053295,1.0328116006314754,-0.9802028769940138
2024-12-07 20:26:51.759855900,10.25385595703125,-1.7151240024626253,1.169963232305646,-0.3783773858070373
2024-12-07 20:26:51.769868800,10.263868896484375,-2.006621561717987,1.296434480011463,0.5743889104679226
2024-12-07 20:26:51.779883000,10.273883056640624,-2.070969822987914,1.2778753254920243,1.4559183550029993
2024-12-07 20:26:51.789896700,10.283896728515623,-1.6335948892891403,1.094265894025564,2.034855722555518
2024-12-07 20:26:51.799909600,10.29390966796875,-0.9991646940302104,0.7775748568028211,2.480279522675276
2024-12-07 20:26:51.809923600,10.303923583984377,-0.434357558638975,0.2562836225330829,2.448359074540436
2024-12-07 20:26:51.819937500,10.3139375,-0.0275877526927739,-0.4466881209671497,1.7120500018447635
2024-12-07 20:26:51.829950500,10.323950439453125,0.1157698940146714,-1.102324697318673,0.7322109897270799
2024-12-07 20:26:51.839964700,10.333964599609375,0.1414017633993178,-1.4220797982871531,0.1163137185677885
2024-12-07 20:26:51.849978400,10.343978271484374,0.0976771148979663,-1.498577347034216,-0.5038572843879461
2024-12-07 20:26:51.859991600,10.353991455078123,0.1596070629797875,-1.4801123005390169,-1.1050865632474425
2024-12-07 20:26:51.870005500,10.364005615234374,0.2908171757757664,-1.4087965383440255,-1.594357980661094
2024-12-07 20:26:51.880019700,10.374019775390623,0.5112156843267381,-1.2183008544951677,-1.84255094345808
2024-12-07 20:26:51.890032600,10.38403271484375,0.4793453589439392,-0.964939256888628,-1.938401719711721
2024-12-07 20:26:51.900046600,10.394046630859377,0.49255971836932,-0.668675506144762,-1.817548896409571
2024-12-07 20:26:51.910060500,10.404060546875,0.5702484496623277,-0.400241427090764,-1.340814596746862
2024-12-07 20:26:51.920073500,10.414073486328125,0.5167343016177416,-0.1854395695030689,-0.6750505941346288
2024-12-07 20:26:51.930087700,10.424087646484375,0.562715789135173,-0.0451940634667873,0.0164177585765719
2024-12-07 20:26:51.940101600,10.4341015625,0.5155541519224643,-0.0149742817699909,0.6588347878709435
2024-12-07 20:26:51.950114600,10.444114501953123,0.465268975861743,-0.0713712917745113,1.1842816805154084
2024-12-07 20:26:51.960128500,10.45412841796875,0.348679582157731,-0.126603934174776,1.4456749011471868
2024-12-07 20:26:51.970142700,10.464142822265623,0.1504682824302464,-0.1397971777468919,1.357632168295979
2024-12-07 20:26:51.980155400,10.4741552734375,-0.0756452427666634,-0.0932628055870533,0.9175652190342544
2024-12-07 20:26:51.990169600,10.484169677734377,-0.1091505489401519,-0.0171995566040277,0.3473112164139747
2024-12-07 20:26:52.000183600,10.49418359375,-0.0619920535326004,0.0592284340381622,-0.1747249910041689
2024-12-07 20:26:52.010196500,10.504196533203125,-0.1022889195423573,0.0975040964186191,-0.4968441907554864
2024-12-07 20:26:52.020210400,10.51421044921875,-0.2474959204435348,0.0691787501662969,-0.4665571890413761
2024-12-07 20:26:52.030224600,10.524224609375,-0.1557014338433742,-0.1107224744319915,-0.4743713699236512
2024-12-07 20:26:52.040237600,10.534237548828123,-0.0453150594979524,-0.4343886113643646,-0.8733689344331622
2024-12-07 20:26:52.050251500,10.54425146484375,-0.1098024369776248,-0.8261959721088409,-1.4084455329492689
2024-12-07 20:26:52.060265500,10.554265380859375,-0.2545376556485891,-1.1111404564589262,-1.6341227125555275
2024-12-07 20:26:52.070278700,10.564278564453126,-0.5002899472951888,-1.2192746679633857,-1.428646901717782
2024-12-07 20:26:52.080292400,10.574292236328125,-0.4946241766184568,-1.2259177592396735,-1.0541001801148056
2024-12-07 20:26:52.090306600,10.584306640625,-0.1386912623316049,-1.3041758879184722,-0.8886021594002842
2024-12-07 20:26:52.100319700,10.59431982421875,0.0140816437792032,-1.349244279178977,-0.841516875359416
2024-12-07 20:26:52.110333400,10.60433349609375,-0.1437865396440029,-1.3457722191542387,-0.8366358253195881
2024-12-07 20:26:52.120347400,10.614347412109376,-0.3611165274698287,-1.344178812482953,-0.8172589246764779
2024-12-07 20:26:52.130360600,10.624360595703124,-0.3312053002655506,-1.3496651349395512,-0.7021089891910552
2024-12-07 20:26:52.140374800,10.634374755859374,-0.3176069830238819,-1.1561579943150282,-0.4750380171388387
2024-12-07 20:26:52.150388500,10.644388427734375,-0.1821966785917058,-0.5480792879521846,-0.1856684098228812
2024-12-07 20:26:52.160401700,10.654401611328124,-0.1896977384041994,0.1802688888669014,0.17403291708678
2024-12-07 20:26:52.170415600,10.66441552734375,-0.1666366328230127,0.7538964595735073,0.5428206367716193
2024-12-07 20:26:52.180429600,10.6744296875,-0.1965957908222451,1.3457926774203777,0.848779267577827
2024-12-07 20:26:52.190442500,10.6844423828125,-0.5348591929057612,1.9086165300399065,1.2151029352366924
2024-12-07 20:26:52.200456700,10.694456787109376,-1.1923983514755965,2.586208333089948,1.5965782870590686
2024-12-07 20:26:52.210470400,10.704470458984376,-1.6998890239298343,3.5581828954428434,1.9964877057164907
2024-12-07 20:26:52.220483600,10.714483642578124,-1.9186498482763763,4.581348715850711,2.2251471160039302
2024-12-07 20:26:52.230497500,10.72449755859375,-2.0859078644007445,5.053780934405326,2.1160922825232147
2024-12-07 20:26:52.240511700,10.73451171875,-1.6711182719975708,4.2110862474381925,1.7899851821795103
2024-12-07 20:26:52.250524400,10.7445244140625,-0.9393617480397224,1.9323340902358288,1.177324116462469
2024-12-07 20:26:52.260538600,10.75453857421875,0.1095768480608239,-0.2238280446082353,0.4721902264922857
2024-12-07 20:26:52.270552600,10.764552490234376,0.713691290435195,-1.6359855838179589,-0.3991787662953138
2024-12-07 20:26:52.280565500,10.7745654296875,0.6599515169411897,-2.3960469957619903,-1.4617968916475772
2024-12-07 20:26:52.290579500,10.784579345703126,0.2197632793873548,-2.538028531810641,-2.35619253975749
2024-12-07 20:26:52.300593700,10.79459375,-0.1066261450290679,-2.1766700853437184,-2.8271985249012705
2024-12-07 20:26:52.310606600,10.804606689453124,-0.2469359850058332,-1.7630618116796015,-2.811273810538649
2024-12-07 20:26:52.320620500,10.81462060546875,-0.239099263498187,-1.5011673635274172,-2.231286057150364
2024-12-07 20:26:52.330634500,10.824634521484375,-0.0605880319535732,-1.0872475396960972,-1.4459779757469893
2024-12-07 20:26:52.340647400,10.8346474609375,0.2204600294798612,-0.5725041196346282,-0.6754898623347282
2024-12-07 20:26:52.350661600,10.84466162109375,0.2465466568946838,0.0345288770675659,0.019429507613182
2024-12-07 20:26:52.360675600,10.854675537109374,0.1178612402707338,0.5838701477795839,0.5580781193971633
2024-12-07 20:26:52.370688500,10.8646884765625,-0.0233416943545453,0.8717366570562124,0.8783224651873112
2024-12-07 20:26:52.380702500,10.874702392578126,-0.0326321035355329,0.9408563705116508,1.002623675377667
2024-12-07 20:26:52.390716700,10.884716552734377,-0.1025111017925199,0.8442343176245689,1.004018344606459
2024-12-07 20:26:52.400729600,10.8947294921875,-0.1679547662168741,0.6309007790237665,0.9293468422427772
2024-12-07 20:26:52.410743600,10.90474365234375,-0.1568745692759752,0.4389695094138384,0.6640387862548232
2024-12-07 20:26:52.420757500,10.914757568359375,-0.2889028665870428,0.335590968003869,0.2135249695196747
2024-12-07 20:26:52.430770700,10.924770751953124,-0.4898217447727918,0.1599818876415491,-0.2520291799589991
2024-12-07 20:26:52.440784400,10.934784423828123,-0.5437871437162161,-0.1201876373916864,-0.628840923884511
2024-12-07 20:26:52.450798600,10.944798583984374,-0.3225029383718967,-0.4226981735706329,-0.8869494237571954
2024-12-07 20:26:52.460811500,10.9548115234375,-0.0328822743377415,-0.6572030950158834,-1.013032256667316
2024-12-07 20:26:52.470825700,10.96482568359375,0.1932698247373104,-0.763445793685317,-1.024910618248582
2024-12-07 20:26:52.480839400,10.97483935546875,0.3874140942215919,-0.6564309415996075,-0.9359253438502548
2024-12-07 20:26:52.490852600,10.9848525390625,0.4366606479495764,-0.4132791878402232,-0.7954518742769956
2024-12-07 20:26:52.500866600,10.994866455078125,0.2919616696357727,-0.0998527053713798,-0.6430737396374344
2024-12-07 20:26:52.510880500,11.004880615234375,0.0299205064892768,0.1973538791805505,-0.4983236156582832
2024-12-07 20:26:52.520893700,11.014893798828124,-0.1929763947486877,0.4142144228637218,-0.3728065999373793
2024-12-07 20:26:52.530907600,11.02490771484375,-0.3466530447661876,0.472210100236535,-0.2834188822180032
2024-12-07 20:26:52.540921300,11.03492138671875,-0.3459866898119449,0.379308529177308,-0.2180202351123094
2024-12-07 20:26:52.550934500,11.0449345703125,-0.1301695177018642,0.2208218485295772,-0.1908268154993653
2024-12-07 20:26:52.560948700,11.05494873046875,0.1066448497295379,0.0511193618625402,-0.2305161440700292
2024-12-07 20:26:52.570962700,11.064962646484377,0.0774363091682083,-0.1413116739630699,-0.3874187703967094
2024-12-07 20:26:52.580975600,11.0749755859375,0.0377074888373725,-0.2753244230896234,-0.7003510396078229
2024-12-07 20:26:52.590989600,11.084989501953125,0.0495721141542308,-0.3144885587424039,-0.9522978019803762
2024-12-07 20:26:52.601003500,11.09500341796875,-0.0113514333640225,-0.2721346871376037,-0.978626713718474
2024-12-07 20:26:52.611016400,11.105016357421874,0.0878314281880855,-0.198552149054408,-0.8267077210232615
2024-12-07 20:26:52.621030700,11.11503076171875,0.4707563942968845,-0.1371142222732305,-0.5468921239942311
2024-12-07 20:26:52.631044600,11.125044677734374,0.9774339968025684,-0.1831301235169172,-0.1983183402985334
2024-12-07 20:26:52.641057500,11.1350576171875,1.5031658438682556,-0.2292909861892461,0.1314452367261052
2024-12-07 20:26:52.651071500,11.145071533203126,1.8881144247591493,-0.2604495100408792,0.2871159831702709
2024-12-07 20:26:52.661085700,11.155085693359377,1.93662272734046,-0.2598556358009576,0.3836576642975211
2024-12-07 20:26:52.671098400,11.165098388671876,1.6131412993252277,-0.2671072143644094,0.4982686706006526
2024-12-07 20:26:52.681112600,11.175112548828125,1.2563187427222728,-0.2244669270336627,0.6058709671854973
2024-12-07 20:26:52.691126500,11.18512646484375,1.0838766019582748,-0.1362491298764944,0.6342743471100926
2024-12-07 20:26:52.701139500,11.195139404296874,1.093704753011465,0.0733925684690475,0.5662801305532456
2024-12-07 20:26:52.711153400,11.2051533203125,1.120079549717903,0.2939034513533115,0.4836427638769149
2024-12-07 20:26:52.721167600,11.215167724609374,1.067633907687664,0.4188426671862602,0.3905786957323551
2024-12-07 20:26:52.731180500,11.2251806640625,1.0098246927976609,0.4304407505214214,0.2495437928840518
2024-12-07 20:26:52.741194500,11.235194580078126,1.0422317554056644,0.2804348979711532,0.0709694329753518
2024-12-07 20:26:52.751208400,11.24520849609375,1.1093547420859335,0.0743792414188384,-0.2135205856055021
2024-12-07 20:26:52.761221600,11.2552216796875,1.1969546265404671,0.0268891759693622,-0.5485699940785765
2024-12-07 20:26:52.771235600,11.265235595703125,1.1606301712930205,0.1682283224612474,-0.892077142034471
2024-12-07 20:26:52.781249500,11.27524951171875,0.9319476723909378,0.3382154712885618,-1.214059271402657
2024-12-07 20:26:52.791262700,11.2852626953125,0.6388521033544093,0.4018582146376371,-1.4273726439982652
2024-12-07 20:26:52.801277400,11.29527734375,0.4897884270250797,0.4041238214820623,-1.5452812305420636
2024-12-07 20:26:52.811291100,11.305291015625,0.4312123194158077,0.3040308776140213,-1.5877426541745665
2024-12-07 20:26:52.821304300,11.31530419921875,0.2773404390871524,0.1576408774733543,-1.576397668817639
2024-12-07 20:26:52.831318300,11.325318359375,0.0803378575623035,0.0499649311304092,-1.439455295979977
2024-12-07 20:26:52.841332200,11.335332275390623,0.0064379971582442,-0.0855529618620872,-1.1789715914085506
2024-12-07 20:26:52.851345400,11.345345458984376,0.1636426751714199,-0.178986447840929,-0.7958803288221359
2024-12-07 20:26:52.861359400,11.355359375,0.5080863733250648,-0.1472241128772497,-0.4577542893826961
2024-12-07 20:26:52.871373300,11.365373291015626,0.8438122928202152,-0.0905950476825237,-0.1400508602470159
2024-12-07 20:26:52.881386200,11.37538623046875,1.0316426299173385,0.0295236161261796,0.1558116162195801
2024-12-07 20:26:52.891400400,11.385400390625,1.1282230356197804,0.2304237896114587,0.4231479631647467
2024-12-07 20:26:52.901414400,11.395414306640625,1.0860662209570406,0.2610229260146617,0.6700099696189165
2024-12-07 20:26:52.911427300,11.40542724609375,0.9088017746031284,0.1329430740684271,0.8279179735958576
2024-12-07 20:26:52.921441300,11.415441162109374,0.6716611708920449,-0.1718085190355777,0.775918906289339
2024-12-07 20:26:52.931455500,11.42545556640625,0.4877566289365291,-0.4343377579599619,0.7357713125571608
