time,seconds_elapsed,z,y,x
2024-12-07 18:07:08.423518700,0.015518798828125,0.0179994748100638,0.0058510641157627,-0.0167839615404605
2024-12-07 18:07:08.433492700,0.02549267578125,-0.0349950332745909,-0.0467564904779195,-0.1447685364186763
2024-12-07 18:07:08.443466800,0.035466796875,-0.0512453263297677,-0.0337999782711267,-0.1622229445666074
2024-12-07 18:07:08.453440800,0.045440673828125,-0.0954176455333828,-0.0335194077640771,-0.1472521699279546
2024-12-07 18:07:08.463414800,0.055414794921875,-0.0853498405054211,-0.0149918174266815,-0.0669084671467542
2024-12-07 18:07:08.473388500,0.065388427734375,-0.0567290184378623,-0.0159761522889137,0.0220487502008676
2024-12-07 18:07:08.483362600,0.075362548828125,-0.0137310037106275,-0.0486135165214538,0.0983306103706359
2024-12-07 18:07:08.493336600,0.085336669921875,-0.1096951772108674,-0.1247872401416301,0.1090004729449748
2024-12-07 18:07:08.503310300,0.095310302734375,-0.0731722037166357,-0.3999725470215082,-0.2357633970737457
2024-12-07 18:07:08.513284400,0.105284423828125,0.128176298058033,-0.2504378191143274,-0.2880851204633712
2024-12-07 18:07:08.523258400,0.11525830078125,-0.1955731332436203,0.4019003002136945,0.197905083322525
2024-12-07 18:07:08.533232400,0.125232421875,-0.3634644788354635,0.4630465505719184,0.3159901954770088
2024-12-07 18:07:08.543206400,0.135206298828125,-0.2877513584643602,0.3855599907875061,0.2365752979785203
2024-12-07 18:07:08.553180400,0.145180419921875,-0.0188213125869631,-0.0822656107544898,-0.1939163059473037
2024-12-07 18:07:08.563154400,0.155154541015625,0.2058297388419508,-0.4419119926065206,-0.5393716653615236
2024-12-07 18:07:08.573128400,0.16512841796875,0.325255159689486,-0.7300766080468892,-0.7104565462976694
2024-12-07 18:07:08.583102500,0.1751025390625,0.1361792795106768,-0.2678624166458845,-0.0918120222568511
2024-12-07 18:07:08.593076500,0.185076416015625,0.0091311086997389,-0.1011287166565656,0.1476765328198671
2024-12-07 18:07:08.603050500,0.195050537109375,-0.0476823731511831,-0.0857008459001779,0.2145066740334033
2024-12-07 18:07:08.613024500,0.2050244140625,-0.1813368103593587,-0.1959697313457727,0.076664722007513
2024-12-07 18:07:08.622998500,0.21499853515625,-0.2116635595619678,-0.1516425138413906,-0.0028781857848167
2024-12-07 18:07:08.632972500,0.22497265625,-0.1433341197013855,-0.1190560030132532,-0.0788835671007633
2024-12-07 18:07:08.642946600,0.234946533203125,-0.0689113314017653,-0.1811123539537191,-0.1944014591157436
2024-12-07 18:07:08.652920600,0.244920654296875,0.0283227159038186,-0.0748269851863384,-0.1633615932077169
2024-12-07 18:07:08.662894600,0.25489453125,0.0806345024213194,0.1830336774051189,-0.0325771584779024
2024-12-07 18:07:08.672868600,0.26486865234375,0.0122188455820083,0.3777314891189336,0.1578150649964809
2024-12-07 18:07:08.682842400,0.27484228515625,-0.0646016515091061,0.3889560629665851,0.1595715532749891
2024-12-07 18:07:08.692816400,0.28481640625,-0.1258960781663656,0.4020195426791906,0.077985156956315
2024-12-07 18:07:08.702790400,0.294790283203125,-0.1242076866880059,0.3887240077763795,0.0430506216973066
2024-12-07 18:07:08.712764400,0.304764404296875,-0.1092187918707728,0.3441629815161228,0.0280278246104717
2024-12-07 18:07:08.722738400,0.314738525390625,-0.1218672610417008,0.2267646825820207,0.1324111591488123
2024-12-07 18:07:08.732712400,0.32471240234375,-0.0333496041551232,0.0636053339481353,0.0365197586238384
2024-12-07 18:07:08.742686500,0.3346865234375,-0.0182180859968066,-0.0826338595449924,-0.1283458094060421
2024-12-07 18:07:08.752660500,0.344660400390625,-0.1702569056794047,-0.270433143916726,-0.0651928954005241
2024-12-07 18:07:08.762634500,0.354634521484375,0.0053717561662197,-0.3515589369863272,-0.0740478175073862
2024-12-07 18:07:08.772608500,0.3646083984375,0.1316957043558359,-0.2038034937113523,-0.0331651874989271
2024-12-07 18:07:08.782582500,0.37458251953125,-0.0060194064199924,-0.1164344223380088,0.24116379481256
2024-12-07 18:07:08.792556500,0.384556640625,-0.1316010118097066,-0.160890234658122,0.2223819374531507
2024-12-07 18:07:08.802530600,0.394530517578125,-0.031514789943397,-0.0924438904196024,0.2435176644623279
2024-12-07 18:07:08.812504600,0.404504638671875,0.0201388249263167,-0.084441785749793,0.3392126656323671
2024-12-07 18:07:08.822478600,0.414478515625,0.0059989481538534,-1.6793120998471975,-0.7381184602051973
2024-12-07 18:07:08.832452600,0.42445263671875,-0.0612114245489239,-2.3740906000196933,-1.2990303417235611
2024-12-07 18:07:08.842426600,0.434426513671875,-0.0801250915944576,-2.133227249458432,-1.2554542348474262
2024-12-07 18:07:08.852400600,0.444400634765625,-0.0833960760891437,-1.652439875012636,-1.3082409454002977
2024-12-07 18:07:08.862374700,0.454374755859375,-0.1417950735658407,-1.304556411668658,-1.141366960157454
2024-12-07 18:07:08.872348700,0.4643486328125,0.159819682817161,-1.0910948627740145,-0.6061974226608872
2024-12-07 18:07:08.882322400,0.474322509765625,0.1116194232717156,-0.6513274809807539,-0.2412748539716005
2024-12-07 18:07:08.892295700,0.484295654296875,-0.292434840105474,0.12568272767663,-0.1599704894647002
2024-12-07 18:07:08.902269700,0.494269775390625,-0.0008287059091031,0.2322334693819284,0.5595736186519265
2024-12-07 18:07:08.912243700,0.50424365234375,0.1346301503725349,0.3457861988037824,0.6930328255489469
2024-12-07 18:07:08.922217700,0.5142177734375,-0.060103463307023,0.8959779488652944,0.2695984466582536
2024-12-07 18:07:08.932191500,0.52419140625,-0.1728225183837115,0.9056254826545714,0.3701891109153628
2024-12-07 18:07:08.942165500,0.53416552734375,-0.1689459692113101,0.8187532548874616,0.5366176904782652
2024-12-07 18:07:08.952139500,0.544139404296875,-0.0680335256539285,0.4480003726094961,0.6903720819070935
2024-12-07 18:07:08.962113500,0.554113525390625,0.0830097071200609,-0.1176712706565856,0.8923682339355349
2024-12-07 18:07:08.972087600,0.564087646484375,0.1872330287910997,-0.0790904878497123,0.4674447855308651
2024-12-07 18:07:08.982061600,0.5740615234375,0.0095488957203924,-0.0002846621602773,0.290299289381504
2024-12-07 18:07:08.992035600,0.58403564453125,-0.2156681190282106,0.2687994052350521,0.2057707021310925
2024-12-07 18:07:09.002009600,0.594009521484375,-0.167649061268568,0.5133674555331468,0.1567728624671697
2024-12-07 18:07:09.011983600,0.603983642578125,-0.0702843733206391,0.6233791513472795,0.0839580938860774
2024-12-07 18:07:09.021957600,0.61395751953125,-0.0958829249575734,0.8447703241974115,0.1019707204386591
2024-12-07 18:07:09.031931600,0.623931640625,-0.1426437993496656,1.0600473980814218,0.2516770055204629
2024-12-07 18:07:09.041905700,0.63390576171875,-0.1658123473607003,1.046749525091052,0.3627785423979163
2024-12-07 18:07:09.051879700,0.643879638671875,-0.077115972906351,0.9107184218794108,0.473946422509849
2024-12-07 18:07:09.061853700,0.653853759765625,0.0192693486154079,0.6174462541669606,0.5448235010266304
2024-12-07 18:07:09.071827700,0.66382763671875,0.0209971953213214,0.5667483325868845,0.4905623340070247
2024-12-07 18:07:09.081801700,0.6738017578125,-0.0640963323354721,0.5703419731646776,0.4270218819886445
2024-12-07 18:07:09.091775700,0.683775634765625,-0.1715735412359237,0.6070318276584148,0.5810773021906614
2024-12-07 18:07:09.101749800,0.693749755859375,-0.1739624821990728,0.2725812618613243,0.0801917270898819
2024-12-07 18:07:09.111723800,0.703723876953125,-0.1452601193279027,-0.0733206722766161,-0.3112435854718089
2024-12-07 18:07:09.121697800,0.71369775390625,-0.0783428843528032,-0.1671814437568187,-0.1931365537464618
2024-12-07 18:07:09.131671600,0.723671630859375,0.1077256307035684,-0.5110200156241655,-0.2634273568078875
2024-12-07 18:07:09.141645600,0.7336455078125,0.1167351588502526,-0.7137777996748685,-0.2417246435657143
2024-12-07 18:07:09.151619600,0.74361962890625,-0.0786988581836223,-0.4975865335553884,0.0407253936201333
2024-12-07 18:07:09.161593600,0.753593505859375,-0.0886395297005772,-0.5695160437345504,-0.0932379634067416
2024-12-07 18:07:09.171567600,0.763567626953125,0.0130449211426079,-0.6011719957143068,-0.2690732537403703
2024-12-07 18:07:09.181541400,0.773541259765625,0.0843394944190979,-0.6838561241418123,-0.4819730770990252
2024-12-07 18:07:09.191515400,0.783515380859375,0.1064965273000299,-0.8571703715652227,-0.4055541465461253
2024-12-07 18:07:09.201489400,0.793489501953125,0.1040571713238954,-0.8397709084749221,-0.1025540732845664
2024-12-07 18:07:09.211463400,0.80346337890625,-0.0353618207603693,-0.6046089844256639,0.1522092078134417
2024-12-07 18:07:09.221437400,0.8134375,-0.1087618418835103,-0.5422480975806713,0.2886243419066071
2024-12-07 18:07:09.231411500,0.823411376953125,-0.177623050533235,-0.5280284335702657,0.3321525179877877
2024-12-07 18:07:09.241385500,0.833385498046875,-0.3274512084290385,-0.5715092633783817,0.3137412475064396
2024-12-07 18:07:09.251359500,0.843359375,-0.4363993666648864,-0.4490326382666826,0.3279600347340107
2024-12-07 18:07:09.261333500,0.85333349609375,-0.3134071932464838,-0.4396306036710738,0.2650555425316095
2024-12-07 18:07:09.271307500,0.8633076171875,-0.1098427689880132,-0.2165226900309324,-0.0398687767907977
2024-12-07 18:07:09.281281500,0.873281494140625,-0.0026847090393304,0.0495937597304582,-0.3912891820892691
2024-12-07 18:07:09.291255600,0.883255615234375,0.1162948677368462,0.022861235627532,-0.6131709149353206
2024-12-07 18:07:09.301229600,0.8932294921875,0.09870075885728,-0.0831149210602045,-0.7347941380880773
2024-12-07 18:07:09.311203600,0.90320361328125,-0.0538553626976907,-0.0992372038215398,-0.6331364291213453
2024-12-07 18:07:09.321177600,0.913177490234375,-0.0639135231144726,-0.241260825446248,-0.5716210531897843
2024-12-07 18:07:09.331151400,0.9231513671875,-0.0252402397185564,-0.226165547645092,-0.4333759271904825
2024-12-07 18:07:09.341125400,0.93312548828125,-0.0112656365104019,-0.2126104850232601,-0.3101829705029726
2024-12-07 18:07:09.351099400,0.943099365234375,0.0537204842716455,-0.0489852724432945,-0.1342290222257375
2024-12-07 18:07:09.361073400,0.953073486328125,0.0690690061815083,0.1211485913783311,0.1389057818651199
2024-12-07 18:07:09.371047400,0.96304736328125,0.0881716199278831,0.3431768930882215,0.2174032722577452
2024-12-07 18:07:09.381021400,0.973021484375,0.1049767703868448,0.353871890103817,0.2457144438542425
2024-12-07 18:07:09.390995500,0.982995361328125,-0.0546637564711272,0.3802174607157706,0.2927728398881852
2024-12-07 18:07:09.400969500,0.992969482421875,-0.2486297467790544,0.5124035789370537,0.3192721397571265
2024-12-07 18:07:09.410943500,1.002943603515625,-0.3851746447317302,0.6231856746017933,0.4352909670315683
2024-12-07 18:07:09.420916700,1.012916748046875,-0.3683487437456846,0.662071577835083,0.4049171638168394
2024-12-07 18:07:09.430890800,1.022890869140625,-0.1157604685992002,0.568925676625967,0.2849829166643321
2024-12-07 18:07:09.440864800,1.03286474609375,0.187215785395354,0.5424006577938795,0.2752383522413671
2024-12-07 18:07:09.450838800,1.0428388671875,0.3317576734513044,0.0980599767357111,0.0829028857447207
2024-12-07 18:07:09.460812800,1.052812744140625,0.4475935453742742,-0.1299170042455196,0.1063164945580065
2024-12-07 18:07:09.470786800,1.062786865234375,0.0251741887450218,-0.1951110686898231,0.1115701773025095
2024-12-07 18:07:09.480760800,1.0727607421875,-0.4556627239309251,-0.2006079125404357,0.1952937317803502
2024-12-07 18:07:09.490734800,1.08273486328125,-0.5745546224236489,-0.068380293264985,0.306225611179322
2024-12-07 18:07:09.500708900,1.092708984375,-0.4995454125382005,0.0115209264457225,0.2727358679011464
2024-12-07 18:07:09.510683000,1.102682861328125,-0.2290069085508584,-0.0560801991403102,0.1247474195878952
2024-12-07 18:07:09.520657000,1.112656982421875,0.1100181255549192,-0.0300350727796554,0.0324821006055921
2024-12-07 18:07:09.530631000,1.122630859375,0.2303004554927349,-0.0509919360905885,-0.0467467728015035
2024-12-07 18:07:09.540605000,1.13260498046875,0.2843659538097679,-0.0241676420509815,-0.2405003624677658
2024-12-07 18:07:09.550579000,1.142578857421875,0.1526474531002342,-0.011672902137041,-0.2857745784986764
2024-12-07 18:07:09.560553000,1.152552978515625,-0.0171818748168647,-0.1234229660511016,-0.2516509212311357
2024-12-07 18:07:09.570526700,1.162526611328125,-0.0648567953139543,-0.2892021417945623,-0.2291190636884421
2024-12-07 18:07:09.580500700,1.172500732421875,-0.119434042545408,-0.3394908980518579,-0.1374444771409034
2024-12-07 18:07:09.590474800,1.182474853515625,-0.1187095276631414,-0.1816436843514442,-0.0285123201917856
2024-12-07 18:07:09.600448500,1.192448486328125,-0.168482589483261,0.05882219132483,0.0610465163107961
2024-12-07 18:07:09.610422500,1.202422607421875,-0.1936087013028562,0.5406248802930116,0.207476702331379
2024-12-07 18:07:09.620396500,1.212396484375,-0.1472906022422015,0.8530266958892345,0.183890440364927
2024-12-07 18:07:09.630370600,1.22237060546875,0.0471340916186571,1.1098767201334236,0.2099391469221562
2024-12-07 18:07:09.640344600,1.232344482421875,0.1796079407401382,1.2584358810067175,0.1702851819258183
2024-12-07 18:07:09.650318600,1.242318603515625,0.1515596578635275,1.1444640493899585,0.0971937883604317
2024-12-07 18:07:09.660292600,1.252292724609375,0.282912101739645,0.6294418123871087,0.0077874390058219
2024-12-07 18:07:09.670266600,1.2622666015625,0.2156044061422347,0.3936363297373056,0.0736088415682315
2024-12-07 18:07:09.680240600,1.27224072265625,0.1912088005542755,-0.0941197146773338,-0.027678609314002
2024-12-07 18:07:09.690214700,1.282214599609375,0.0550409192204475,-0.2650052736490965,-0.0475364984070882
2024-12-07 18:07:09.700188700,1.292188720703125,0.1767367692179977,-0.5334346765279769,-0.1241371056698262
2024-12-07 18:07:09.710162700,1.30216259765625,0.2680928644008934,-0.5925222407907247,-0.1333669620363041
2024-12-07 18:07:09.720136700,1.31213671875,0.2816859209455549,-0.747453274783492,-0.1623549003832042
2024-12-07 18:07:09.730110700,1.32211083984375,0.2990906447328627,-0.7794558482438325,-0.1118276591949164
2024-12-07 18:07:09.740084700,1.332084716796875,0.1467677474118769,-0.5234615640461444,0.0888038899494335
2024-12-07 18:07:09.750058800,1.342058837890625,0.142114368648082,-0.1710001252621412,0.399501860769838
2024-12-07 18:07:09.760032800,1.35203271484375,0.1745018497727811,0.0218850840717554,0.4797647168671712
2024-12-07 18:07:09.770006800,1.3620068359375,0.3832750947207212,-0.0251601602196693,0.477754180762358
2024-12-07 18:07:09.779980500,1.37198046875,0.5104343246906995,-0.1366296536266803,0.402348920764029
2024-12-07 18:07:09.789954600,1.38195458984375,0.4499743030309677,-0.1385024617612361,0.2587555656045675
2024-12-07 18:07:09.799928600,1.391928466796875,0.2317432016469538,-0.1226309388905763,0.0189342942750314
2024-12-07 18:07:09.809902600,1.401902587890625,-0.0679119451008737,0.1582458576291799,-0.0347884413192048
2024-12-07 18:07:09.819876600,1.411876708984375,-0.2599152570337057,0.4596913949251174,0.044605139396619
2024-12-07 18:07:09.829850600,1.4218505859375,-0.3709929746441542,0.6817097597628832,0.1925025118929333
2024-12-07 18:07:09.839824600,1.43182470703125,-0.3841616682969033,0.9662778120160104,0.3550814120240509
2024-12-07 18:07:09.849797600,1.441797607421875,-0.3368767700307071,1.2771844206184149,0.5499681339060888
2024-12-07 18:07:09.859771600,1.451771728515625,-0.223671977263689,1.2849743438422678,0.815653973697871
2024-12-07 18:07:09.869745700,1.46174560546875,-0.0806722040832042,1.097828554943204,0.9871567147199064
2024-12-07 18:07:09.879719700,1.4717197265625,-0.0581061520099639,0.8772720793515443,0.7121176113776863
2024-12-07 18:07:09.889693700,1.481693603515625,-0.4355728527128696,1.1466273649036884,0.3745519822999835
2024-12-07 18:07:09.899667700,1.491667724609375,-0.6785434046864509,1.297674835461378,0.2271560382534749
2024-12-07 18:07:09.909641700,1.501641845703125,-0.8162069314055145,1.279418463280797,0.3432499583244323
2024-12-07 18:07:09.919615700,1.51161572265625,-0.808259917923808,0.8193921373128891,0.4677828218461945
2024-12-07 18:07:09.929589800,1.52158984375,-0.5706494316786527,-0.7283698041290044,0.2642110910641029
2024-12-07 18:07:09.939563800,1.531563720703125,0.4318577777124941,-2.933033811813593,0.2785255389521829
2024-12-07 18:07:09.949537800,1.541537841796875,0.7657739443719387,-2.296146944117546,1.4572893510952591
2024-12-07 18:07:09.959511800,1.55151171875,0.1744425208009779,-0.7349445063441992,1.8251444661051035
2024-12-07 18:07:09.969485800,1.56148583984375,-0.5931324816435575,0.1297463238537311,1.3745675210058688
2024-12-07 18:07:09.979459800,1.5714599609375,-0.9919289706230164,0.5420259792625903,0.7764321895737201
2024-12-07 18:07:09.989433900,1.581433837890625,-0.9299526991814374,0.4971288529157638,0.3766727373136207
2024-12-07 18:07:09.999407900,1.591407958984375,-0.6382359442174435,0.2822901704490184,0.2798411150627769
2024-12-07 18:07:10.009382000,1.6013818359375,-0.4129815200679004,0.1008680198937654,0.2058993517457507
2024-12-07 18:07:10.019355600,1.611355712890625,-0.3020183687478304,-0.0124164139807224,0.1498655124978162
2024-12-07 18:07:10.029329700,1.62132958984375,-0.285866275370121,-0.0426584075093269,0.1978506131889298
2024-12-07 18:07:10.039303700,1.6313037109375,-0.2697755567908287,0.0087806878268718,0.2455558192264288
2024-12-07 18:07:10.049277700,1.641277587890625,-0.2740881592929363,0.1760948180526494,0.3046078555180691
2024-12-07 18:07:10.059251700,1.651251708984375,-0.3086749040275812,0.3445528576165437,0.3629210561411455
2024-12-07 18:07:10.069225700,1.661225830078125,-0.315057298541069,0.4999088390231132,0.5096114640004933
2024-12-07 18:07:10.079199700,1.67119970703125,-0.4152699232660233,0.6368593951672316,0.527803940632008
2024-12-07 18:07:10.089173800,1.681173828125,-0.4685775889530778,0.7390554487943649,0.3370312664726749
2024-12-07 18:07:10.099147800,1.691147705078125,-0.5224097169056534,0.7658382417798042,0.0823668791718781
2024-12-07 18:07:10.109121800,1.701121826171875,-0.4618085332095623,0.7349123576402664,-0.1282281743757426
2024-12-07 18:07:10.119095800,1.711095703125,-0.3787427119880914,0.5743862801194191,-0.2415904957920312
2024-12-07 18:07:10.129069800,1.72106982421875,-0.3722206167429685,0.3845207108676433,-0.1920739660162478
2024-12-07 18:07:10.139043800,1.7310439453125,-0.3955015390872955,0.2472860770851373,-0.0939604324623942
2024-12-07 18:07:10.149017900,1.741017822265625,-0.5477332509934902,0.1812754355609417,-0.0080495240081101
2024-12-07 18:07:10.158992000,1.750991943359375,-0.5372188712418079,0.1676022995173931,-0.0247572785072028
2024-12-07 18:07:10.168966000,1.7609658203125,-0.2728273455768823,0.1829337241619825,0.0376494202408939
2024-12-07 18:07:10.178940000,1.77093994140625,-0.0765787972897291,0.1742056433051824,0.0972671458575874
2024-12-07 18:07:10.188914000,1.780913818359375,-0.1093874264359474,0.092032387009263,-0.0913714388824999
2024-12-07 18:07:10.198888000,1.790887939453125,0.1486348564580082,0.0931564226031303,-0.0547665592584759
2024-12-07 18:07:10.208862000,1.800862060546875,0.4865238722711801,0.15039397508502,-0.0074140756487846
2024-12-07 18:07:10.218835700,1.810835693359375,0.6224079682275653,0.1878174045503139,0.0733707950286567
2024-12-07 18:07:10.228809700,1.820809814453125,0.5413742373555899,0.0615904869943857,0.0872922067448496
2024-12-07 18:07:10.238783700,1.83078369140625,0.3850134628206491,0.0596738397181034,0.0623337796423584
2024-12-07 18:07:10.248757800,1.8407578125,0.1681423977434635,-0.1951227591276168,-0.1580715239755809
2024-12-07 18:07:10.258730800,1.850730712890625,0.1047366780206561,-0.3524292900800704,-0.2863984094854444
2024-12-07 18:07:10.268704800,1.860704833984375,0.107817692901194,-0.4812520693480968,-0.3082555095717311
2024-12-07 18:07:10.278678500,1.870678466796875,0.1270323887199163,-0.5648989053279161,-0.3964386738069355
2024-12-07 18:07:10.288652500,1.880652587890625,0.227427092013508,-0.5270552046239376,-0.4243181759878993
2024-12-07 18:07:10.298626600,1.89062646484375,0.3862522108353674,-0.6209989782124757,-0.5136522638238966
2024-12-07 18:07:10.308600600,1.9006005859375,0.3411754901379347,-0.7408598678678274,-0.5278210744298995
2024-12-07 18:07:10.318574600,1.91057470703125,0.1309229664176702,-0.8174281437635421,-0.5467296269088984
2024-12-07 18:07:10.328548600,1.920548583984375,-0.1805985592126846,-0.9060580288529396,-0.6302903920404612
2024-12-07 18:07:10.338522600,1.930522705078125,-0.5441330345444381,-0.953215501347184,-0.6520540416896343
2024-12-07 18:07:10.348496600,1.94049658203125,-0.8321509349904954,-0.9175684339046478,-0.4645220299519598
2024-12-07 18:07:10.358470700,1.950470703125,-0.8629135913923383,-0.8342851705402136,-0.2383265255600213
2024-12-07 18:07:10.368444700,1.960444580078125,-0.6917986075788736,-0.7930050656467675,-0.094670480427891
2024-12-07 18:07:10.378418700,1.970418701171875,-0.499002830094099,-0.752764825195074,0.0795217188738286
2024-12-07 18:07:10.388392700,1.980392822265625,-0.4523839945212006,-0.6429255633383989,0.1268690879169851
2024-12-07 18:07:10.398366700,1.99036669921875,-0.5590897806577384,-0.6150690036416053,0.1976540311709046
2024-12-07 18:07:10.408340700,2.0003408203125,-0.6837725375115871,-0.7174199555695057,0.3585381283491849
2024-12-07 18:07:10.418314800,2.010314697265625,-0.7282498310111463,-0.8797241486787796,0.597038183845207
2024-12-07 18:07:10.428289500,2.02028955078125,-0.7490138020984828,-1.0459925692439078,0.8500489952526986
2024-12-07 18:07:10.438263600,2.030263671875,-0.7794079174488783,-1.1151888550668954,1.136574903575331
2024-12-07 18:07:10.448237600,2.040237548828125,-0.743601129399985,-1.059478658282757,1.3278921329401432
2024-12-07 18:07:10.458211600,2.050211669921875,-0.5676771378695964,-0.8975643412739038,1.340465344917774
2024-12-07 18:07:10.468185600,2.060185546875,-0.1835156157031655,-0.6861416047304868,1.142716475070268
2024-12-07 18:07:10.478159600,2.07015966796875,0.1131394724458456,-0.4842500821202993,0.9787419375959784
2024-12-07 18:07:10.488133600,2.080133544921875,-0.1121083758324384,-0.3027946138173341,1.01650015197359
2024-12-07 18:07:10.498107600,2.090107666015625,-0.6306465120017528,-0.4946849668949842,1.022264633784443
2024-12-07 18:07:10.508081700,2.10008154296875,-1.0737035829901695,-0.9922639016658068,0.7932860014799982
2024-12-07 18:07:10.518055700,2.1100556640625,-1.3395922153450548,-1.3973679663568734,0.5223311717767268
2024-12-07 18:07:10.528029700,2.12002978515625,-1.3521404390119016,-1.474880245104432,0.2728753494370728
2024-12-07 18:07:10.538003700,2.130003662109375,-1.1675474033355713,-1.3466981018275022,-0.0969014543503522
2024-12-07 18:07:10.547977700,2.139977783203125,-0.9160410782068968,-1.1075292802244423,-0.5922705310519785
2024-12-07 18:07:10.557951700,2.14995166015625,-0.8088746888212859,-0.674789020588994,-1.1113356137048451
2024-12-07 18:07:10.567925800,2.15992578125,-0.8327741814553737,0.0681932462602853,-1.4377239421427248
2024-12-07 18:07:10.577899800,2.169899658203125,-0.9842372470766304,0.8320125494331121,-1.6271011433556677
2024-12-07 18:07:10.587873800,2.179873779296875,-1.1981712357886134,1.4002853151082992,-1.6094056199282407
2024-12-07 18:07:10.597846800,2.1898466796875,-1.3588343836925922,1.6975445066303014,-1.3654824434049426
2024-12-07 18:07:10.607820800,2.19982080078125,-1.3134540038734674,1.688043103313446,-0.9050682871632276
2024-12-07 18:07:10.617794800,2.209794921875,-0.954949339402467,1.3834960928708313,-0.2660728298153728
2024-12-07 18:07:10.627768800,2.219768798828125,-0.5351562396235764,0.9451017529964446,0.3244475696336478
2024-12-07 18:07:10.637742800,2.229742919921875,-0.2304026006929576,0.6681137806087732,0.7689872073300182
2024-12-07 18:07:10.647716900,2.239716796875,-0.093062752970308,0.4451841461449861,1.0099996109731495
2024-12-07 18:07:10.657691000,2.24969091796875,-0.0379435078166425,0.1078285065561533,0.9985208431687206
2024-12-07 18:07:10.667664600,2.25966455078125,-0.1955249101877212,-0.3257107945024967,0.7415531838942319
2024-12-07 18:07:10.677638700,2.269638671875,-0.4463439837045967,-0.8838111257314681,0.0998096699472516
2024-12-07 18:07:10.687612700,2.27961279296875,-0.6693072281770408,-1.2059972532391547,-0.5548685097008943
2024-12-07 18:07:10.697586700,2.289586669921875,-0.8018376297913491,-1.0485615429490804,-1.0546537223443389
2024-12-07 18:07:10.707560700,2.299560791015625,-0.8862029893040656,-0.5388333207011222,-1.31507619824782
2024-12-07 18:07:10.717534700,2.30953466796875,-0.6134346804380416,-0.0508458056181669,-1.150152178028971
2024-12-07 18:07:10.727508700,2.3195087890625,-0.2830873121760785,0.3488286352396011,-0.7210694179877638
2024-12-07 18:07:10.737482800,2.329482666015625,0.3512766129136085,0.9326052595168352,-0.0386208225563168
2024-12-07 18:07:10.747456800,2.339456787109375,1.543097602892667,1.2563865472614764,0.5888166642710566
2024-12-07 18:07:10.757430800,2.3494306640625,1.6196435208261013,0.7418675836056471,0.5132567617002874
2024-12-07 18:07:10.767404800,2.35940478515625,1.393323659402132,0.2146481283307075,0.773856128540635
2024-12-07 18:07:10.777378800,2.36937890625,1.3541830507554111,-0.288361599317193,1.062891827727109
2024-12-07 18:07:10.787352800,2.379352783203125,1.1778421489872035,-0.3340846550941467,1.2218562819544223
2024-12-07 18:07:10.797326800,2.389326904296875,0.7851251260519028,-0.0446446128904819,1.3184955051720142
2024-12-07 18:07:10.807300900,2.39930078125,0.493658692587167,0.2776724475204944,1.1511332980208098
2024-12-07 18:07:10.817275000,2.40927490234375,0.3553397706992924,0.4367231917917728,0.7829302463561296
2024-12-07 18:07:10.827249000,2.419248779296875,0.2601186706513166,0.3160720285415649,0.4575695804655552
2024-12-07 18:07:10.837223000,2.429222900390625,0.2729799057900905,0.0327156901657581,0.1786386207839474
2024-12-07 18:07:10.847197000,2.439197021484375,0.434884358992055,-0.0718430009394884,-0.0923711174443364
2024-12-07 18:07:10.857171000,2.4491708984375,0.5929248302422464,-0.0383732775360345,-0.3786547049110755
2024-12-07 18:07:10.867144700,2.459144775390625,0.6838790666259825,-0.0623316607505083,-0.7959129159174859
2024-12-07 18:07:10.877118700,2.46911865234375,0.7309639122754334,-0.2743663917124271,-1.2248544408570974
2024-12-07 18:07:10.887092700,2.4790927734375,0.6316548853266983,-0.3134194682061672,-1.2980952528305352
2024-12-07 18:07:10.897066800,2.489066650390625,0.420839540091902,-0.289036722099781,-0.8264620756991207
2024-12-07 18:07:10.907040800,2.499040771484375,0.325730668246746,-0.3248234902739524,-0.2782653719123453
2024-12-07 18:07:10.917014800,2.509014892578125,0.4555021265417337,-0.2524491589367389,0.2169617390353232
2024-12-07 18:07:10.926988800,2.51898876953125,0.7679390134513377,-0.0144844524264335,0.6495213814068586
2024-12-07 18:07:10.936961500,2.52896142578125,1.0314064100086688,0.3892261120796203,0.837065521973744
2024-12-07 18:07:10.946935600,2.538935546875,1.1164210272103547,0.6904828488051891,0.8517495155602693
2024-12-07 18:07:10.956909600,2.54890966796875,1.1417648003686218,0.975387001144886,0.8169123031958937
2024-12-07 18:07:10.966883600,2.558883544921875,1.070108773368597,1.0837491761863232,0.6670024583660066
2024-12-07 18:07:10.976857600,2.568857666015625,0.885965673416853,0.6567278787195682,0.2397173588639125
2024-12-07 18:07:10.986831600,2.57883154296875,0.6238976222634315,0.1019873793125152,-0.3644366848684847
2024-12-07 18:07:10.996805600,2.5888056640625,0.3920797479450702,-0.3411000868141651,-0.9277557736590504
2024-12-07 18:07:11.006779600,2.598779541015625,0.2384433568727225,-0.5087836348742246,-1.441437848099321
2024-12-07 18:07:11.016753700,2.608753662109375,0.2813468251843005,-0.4768821837007999,-1.655455715702474
2024-12-07 18:07:11.026727700,2.618727783203125,0.3369266005218029,-0.3476180904060602,-1.6721264261268078
2024-12-07 18:07:11.036701700,2.62870166015625,0.4209101941753178,-0.1814858634412288,-1.4227897001221774
2024-12-07 18:07:11.046675700,2.63867578125,0.546995657433942,-0.0485655857264995,-0.9054726301804183
2024-12-07 18:07:11.056649700,2.648649658203125,0.6754916889656335,0.0015811317116022,-0.4191858911333605
2024-12-07 18:07:11.066623700,2.658623779296875,0.6785183433104306,0.0168394911199808,0.0361356912096962
2024-12-07 18:07:11.076597800,2.66859765625,0.5271914712894707,0.0139151281058788,0.3981512864110991
2024-12-07 18:07:11.086571800,2.67857177734375,0.3830740922559053,0.0561392358511686,0.6230262462563813
2024-12-07 18:07:11.096545800,2.6885458984375,0.418691860538721,0.1254968497157096,0.7745308129318058
2024-12-07 18:07:11.106519800,2.698519775390625,0.4085153344392776,0.2072913358271121,0.7801075170855969
2024-12-07 18:07:11.116493800,2.708493896484375,0.3081149320572614,0.223877144446969,0.6055143357675522
2024-12-07 18:07:11.126467600,2.718467529296875,0.2910539802063256,0.1348626439541578,0.4175881370805204
2024-12-07 18:07:11.136441600,2.728441650390625,0.2659470114786177,0.0694862086802721,0.2467109806109219
2024-12-07 18:07:11.146415600,2.73841552734375,0.1064526150930672,0.0114016839802265,0.0779037988157942
2024-12-07 18:07:11.156389600,2.7483896484375,-0.152260938000679,-0.0313964242607355,-0.0643264512969181
2024-12-07 18:07:11.166363600,2.75836376953125,-0.4078531442034989,-0.0434001657873392,-0.0421929088894277
2024-12-07 18:07:11.176337700,2.768337646484375,-0.709662765571475,-0.0037602293163537,0.1323642512671649
2024-12-07 18:07:11.186311700,2.778311767578125,-0.9449426899772136,0.0808574975222349,0.3246703455388546
2024-12-07 18:07:11.196285700,2.78828564453125,-0.8612386439174413,0.0573848519980907,0.517112195019424
2024-12-07 18:07:11.206259700,2.798259765625,-0.5597497789364307,-0.0448866049528121,0.6074435867970809
2024-12-07 18:07:11.216233700,2.808233642578125,-0.2221048740774392,-0.1357353351354598,0.6522277908213436
2024-12-07 18:07:11.226207700,2.818207763671875,0.0257662363540381,-0.1130886190414428,0.652129152752459
2024-12-07 18:07:11.236181800,2.828181640625,0.107566056227684,0.0048655602097511,0.5560944347666577
2024-12-07 18:07:11.246155800,2.83815576171875,-0.0963233256688341,0.1015150856256485,0.3473269985049962
2024-12-07 18:07:11.256128800,2.848128662109375,-0.4636976714244112,0.1324742875128984,0.1787658638928085
2024-12-07 18:07:11.266102800,2.858102783203125,-0.8272888819120824,0.0774362909018993,0.0817699727246537
2024-12-07 18:07:11.276076800,2.868076904296875,-1.061119411227107,-0.0497112486302852,0.0865407673230394
2024-12-07 18:07:11.286050800,2.87805078125,-1.157935525381565,-0.0944488005012273,0.2432026436964049
2024-12-07 18:07:11.296024800,2.88802490234375,-1.1469435912460089,-0.155931150946021,0.5053444176731631
2024-12-07 18:07:11.305998800,2.897998779296875,-0.9128723850429058,-0.2322252860754728,0.7759039279159158
2024-12-07 18:07:11.315972900,2.907972900390625,-0.7046341237545013,-0.231117032572627,1.0123820491302755
2024-12-07 18:07:11.325947000,2.91794677734375,-0.5076374239811674,-0.0989694927960634,1.1875606291208416
2024-12-07 18:07:11.335921000,2.9279208984375,-0.3144997011909261,0.0499941572248935,1.3029758644789458
2024-12-07 18:07:11.345895000,2.93789501953125,-0.2624923957790248,0.1564595587342977,1.3927343152068554
2024-12-07 18:07:11.355869000,2.947868896484375,-0.2886784101814031,0.0658393766105175,1.3500111718982457
2024-12-07 18:07:11.365843000,2.957843017578125,-0.3955571051994338,-0.116174894618988,1.2186734871998428
2024-12-07 18:07:11.375816700,2.967816650390625,-0.4271247578412294,-0.3510603398144244,1.0643090010486542
2024-12-07 18:07:11.385790700,2.977790771484375,-0.3690922555893659,-0.4374877464234828,0.9651193626958876
2024-12-07 18:07:11.395764700,2.9877646484375,-0.3527624675571918,-0.3113034989655017,0.9245783857319504
2024-12-07 18:07:11.405738800,2.99773876953125,-0.3455886304050684,-0.0791255591630935,0.9397110729340464
2024-12-07 18:07:11.415712800,3.007712646484375,-0.2885615423360839,0.2906085014611482,0.9466117922332136
2024-12-07 18:07:11.425685800,3.017685791015625,-0.2803360955054871,0.4366647396028041,0.9445775829918682
2024-12-07 18:07:11.435659500,3.027659423828125,-0.2965706612685695,0.3780547297239303,0.9383404421679676
2024-12-07 18:07:11.445633500,3.037633544921875,-0.3385048096239567,0.2866992190629244,1.02067078872174
2024-12-07 18:07:11.455607600,3.047607666015625,-0.3267980052173137,0.1344692607223987,1.1662658390924334
2024-12-07 18:07:11.465581600,3.05758154296875,-0.289810610815417,-0.0662555561959743,1.232147885800898
2024-12-07 18:07:11.475555600,3.0675556640625,-0.2852122136418707,-0.0566939471244812,1.352193630503863
2024-12-07 18:07:11.485529600,3.077529541015625,-0.2370189683591015,-0.0077495912134647,1.4143155940264462
2024-12-07 18:07:11.495503600,3.087503662109375,-0.1734311335350386,0.1169353575974702,1.5259437851265072
2024-12-07 18:07:11.505477600,3.0974775390625,-0.2393523614764213,0.4485457315325736,1.6026539537109434
2024-12-07 18:07:11.515451600,3.10745166015625,-0.2622825706869364,0.5311193853229284,1.700553625318408
2024-12-07 18:07:11.525425700,3.11742578125,-0.1944313062647357,0.6477806021541357,1.941176445122063
2024-12-07 18:07:11.535399700,3.127399658203125,-0.2915718300679698,0.8546189335167408,2.12155186310336
2024-12-07 18:07:11.545373700,3.137373779296875,-0.4847556570222601,0.8136988941073418,2.1109407449789344
2024-12-07 18:07:11.555346700,3.1473466796875,-0.6418225705325603,0.7482873875200748,2.0417443130254744
2024-12-07 18:07:11.565320700,3.15732080078125,-0.7404038677286356,0.7582838808774948,1.7203512355916202
2024-12-07 18:07:11.575294700,3.167294677734375,-0.9877870485126972,0.7194768880993128,1.229391280569136
2024-12-07 18:07:11.585268700,3.177268798828125,-1.395828335699439,0.989241923496127,0.7150392709780484
2024-12-07 18:07:11.595242800,3.18724267578125,-1.6928034495830535,1.2909154243290424,0.1367241543765645
2024-12-07 18:07:11.605216800,3.197216796875,-1.887352792736888,1.4389830022931098,-0.4048505283214151
2024-12-07 18:07:11.615190800,3.207190673828125,-2.0436276425540445,1.3502648543983695,-0.8354824905660003
2024-12-07 18:07:11.625164800,3.217164794921875,-1.912643885859847,0.9931412690222264,-0.9362906700313092
2024-12-07 18:07:11.635138800,3.227138916015625,-1.502291983643174,0.5039724352002144,-0.7249798694297671
2024-12-07 18:07:11.645112800,3.23711279296875,-1.1779064463950693,0.0474210918664932,-0.4569217110160738
2024-12-07 18:07:11.655086800,3.2470869140625,-1.0204020547829569,-0.3479810784995555,-0.1962965156147256
2024-12-07 18:07:11.665060900,3.257060791015625,-1.1006412742763758,-0.5675280847877263,0.0765057685861363
2024-12-07 18:07:11.675035000,3.267034912109375,-1.512840850186348,-0.4625952996730804,0.2082213466862216
2024-12-07 18:07:11.685008600,3.277008544921875,-1.9581804791539907,-0.184572139018774,-0.178303726273775
2024-12-07 18:07:11.694982700,3.286982666015625,-2.208201534160972,0.2651607564717531,-1.1732089362286031
2024-12-07 18:07:11.704956700,3.296956787109375,-1.8322236107110976,0.7550339391708374,-2.188487364387512
2024-12-07 18:07:11.714930700,3.3069306640625,-0.896758285588026,1.2613006227880716,-2.867883586511016
2024-12-07 18:07:11.724904700,3.31690478515625,0.4791884148165583,1.7881617661446332,-3.0663653006777167
2024-12-07 18:07:11.734878700,3.326878662109375,1.468541105210781,2.1255331878244874,-2.7935727341532703
2024-12-07 18:07:11.744852700,3.336852783203125,1.3779808365806936,2.520153852424025,-2.390830137896537
2024-12-07 18:07:11.754826800,3.34682666015625,1.1743033073365687,2.705295900285244,-1.7941347030743957
2024-12-07 18:07:11.764800800,3.35680078125,0.7123132800802588,2.5628730502098795,-1.0861617902860046
2024-12-07 18:07:11.774774800,3.36677490234375,0.0868549843713641,2.005035753831267,-0.4121360091544687
2024-12-07 18:07:11.784748800,3.376748779296875,0.1448746271416544,1.2136913148730992,0.0121658002205193
2024-12-07 18:07:11.794722800,3.386722900390625,0.8116013373062014,0.3153460523545742,0.0769588826484978
2024-12-07 18:07:11.804696800,3.39669677734375,1.4943085836738348,-0.4128343666821717,-0.2078198897458612
2024-12-07 18:07:11.814670800,3.4066708984375,1.6926929749459028,-0.5977671557068824,-0.0205061969339847
2024-12-07 18:07:11.824644900,3.416644775390625,1.867293170526624,-0.6942419090777635,0.2395047755591571
2024-12-07 18:07:11.834618600,3.42661865234375,2.322355736607313,-0.8456523677289486,0.2819980556346476
2024-12-07 18:07:11.844592600,3.436592529296875,1.926495008818805,-1.0014490786403416,-0.105536888487637
2024-12-07 18:07:11.854565600,3.446565673828125,1.4183245374068616,-1.0550269395709038,-0.4745508181437849
2024-12-07 18:07:11.864539600,3.45653955078125,1.206665946280956,-0.9507833057641982,-0.5148527256548404
2024-12-07 18:07:11.874513700,3.466513671875,0.999654596439004,-0.9157949944913388,-0.4932949738413095
2024-12-07 18:07:11.884487700,3.47648779296875,0.7139236378863454,-0.8609551508009433,-0.349810778144747
2024-12-07 18:07:11.894461700,3.486461669921875,0.649007221339643,-0.9437941775292158,-0.3830266729176044
2024-12-07 18:07:11.904435700,3.496435791015625,0.7374675950810313,-1.1131167249679566,-0.5609302939578891
2024-12-07 18:07:11.914409700,3.50640966796875,0.7611401470914483,-1.235031040021777,-0.741541420391202
2024-12-07 18:07:11.924383700,3.5163837890625,0.905053820246458,-1.5889824251025917,-0.9586283201761544
2024-12-07 18:07:11.934357800,3.526357666015625,1.0264461572527883,-2.0129320600390432,-1.2596103316135705
2024-12-07 18:07:11.944331500,3.53633154296875,0.9358473101779818,-2.455277767887712,-1.6605512852758169
2024-12-07 18:07:11.954305500,3.546305419921875,0.8138020622208714,-2.805503994965553,-2.017366681485623
2024-12-07 18:07:11.964279600,3.556279541015625,0.4846390814378857,-2.998474544495344,-2.3014583483986555
2024-12-07 18:07:11.974253600,3.566253662109375,-0.2516013099357486,-2.947120204833149,-2.409239800942689
2024-12-07 18:07:11.984227600,3.5762275390625,-0.7322156659021973,-2.719776845580339,-1.9832586601786315
2024-12-07 18:07:11.994201600,3.58620166015625,-0.564287495431304,-2.437365094578266,-1.0124765224806964
2024-12-07 18:07:12.004175600,3.596175537109375,-0.2810825482249259,-1.9215765493780368,0.0760357764542102
2024-12-07 18:07:12.014149600,3.606149658203125,-0.3842588450610637,-1.1982640286386013,1.0780408815421163
2024-12-07 18:07:12.024123600,3.61612353515625,-0.5554077311441302,-0.6232528946191072,1.8019181965574624
2024-12-07 18:07:12.034097700,3.62609765625,-0.5842676226645708,-0.2802788306266069,2.196343192454427
2024-12-07 18:07:12.044071700,3.63607177734375,-0.89421444632411,0.0703968937844038,2.419814094188064
2024-12-07 18:07:12.054045700,3.646045654296875,-1.3147183247208594,0.4009264867454767,2.647426479640603
2024-12-07 18:07:12.064019700,3.656019775390625,-1.742048688136786,0.5038023393303156,2.677210792529583
2024-12-07 18:07:12.073993700,3.66599365234375,-2.07373753413558,0.4362848003745079,2.510579676131904
2024-12-07 18:07:12.083967700,3.6759677734375,-2.230907286965847,0.3919342019945382,2.3080613999255
2024-12-07 18:07:12.093941800,3.685941650390625,-2.1065774352028965,0.424186366301775,2.03164801255539
2024-12-07 18:07:12.103915800,3.695915771484375,-2.1295523603379727,0.5227899483948946,1.6154184504769742
2024-12-07 18:07:12.113889800,3.705889892578125,-2.316462002393603,0.6167459969431162,1.1375792583122848
2024-12-07 18:07:12.123862800,3.71586279296875,-2.335613862109184,0.6866606601685286,0.7927566438436507
2024-12-07 18:07:12.133836800,3.7258369140625,-2.040189484798908,0.699252430716157,0.6420759607717395
2024-12-07 18:07:12.143810800,3.735810791015625,-1.4238310258686542,0.4568552947163581,0.6337649362832307
2024-12-07 18:07:12.153784800,3.745784912109375,-0.9793880534797906,0.1004804818809032,0.7026780212506651
2024-12-07 18:07:12.163758800,3.7557587890625,-0.8580454008340835,-0.2128448783010244,0.6732372611023485
2024-12-07 18:07:12.173732900,3.76573291015625,-0.7631096935987473,-0.448936776676774,0.518643350109458
2024-12-07 18:07:12.183707000,3.775706787109375,-0.4804517127506434,-0.5323901359111071,0.203575676304847
2024-12-07 18:07:12.193680600,3.7856806640625,-0.104138127605617,-0.388863123986125,-0.2971853956334293
2024-12-07 18:07:12.203654700,3.795654541015625,0.1587348101899027,0.1582248148411512,-0.80369626327008
2024-12-07 18:07:12.213628700,3.805628662109375,0.2669583074130118,0.9712608611255884,-1.2252790229447186
2024-12-07 18:07:12.223602700,3.815602783203125,0.3090281013794243,1.863021484556794,-1.4974161943003534
2024-12-07 18:07:12.233576700,3.82557666015625,0.1062305698402226,2.6314929974496364,-1.5476559968493877
2024-12-07 18:07:12.243550700,3.83555078125,-0.3005161474913358,3.035451399236917,-1.4370694237567485
2024-12-07 18:07:12.253524700,3.845524658203125,-0.6009349720880389,2.876895745006204,-0.9932954366706312
2024-12-07 18:07:12.263498800,3.855498779296875,-0.399810634458065,1.869163056051731,-0.4515628873966634
2024-12-07 18:07:12.273472800,3.86547265625,-0.0673281538635492,0.477454430630803,-0.4239323915407061
2024-12-07 18:07:12.283446800,3.87544677734375,-0.0696662414222955,-0.650168958595395,-1.0051840273849666
2024-12-07 18:07:12.293420800,3.8854208984375,-0.077233461806178,-1.3368091604977843,-1.9000944931492207
2024-12-07 18:07:12.303394800,3.895394775390625,0.0677234367914497,-1.5783599088013172,-2.830284800478816
2024-12-07 18:07:12.313368800,3.905368896484375,0.1707943735569715,-1.496696940115094,-3.5637402373090383
2024-12-07 18:07:12.323342800,3.9153427734375,0.3324545696742833,-1.4120488181382418,-3.727217858111858
2024-12-07 18:07:12.337057500,3.9290576171875,0.8494641811020672,-1.2457108394682406,-3.2293367255240675
2024-12-07 18:07:12.347031600,3.939031494140625,1.5442249994874,-0.8567378253668546,-2.431199996077269
2024-12-07 18:07:12.357005600,3.949005615234375,2.308766917846352,-0.28545769456923,-1.497462371529639
2024-12-07 18:07:12.366979600,3.9589794921875,2.833525682096183,0.1382265674293041,-0.6032344081368297
2024-12-07 18:07:12.376953600,3.96895361328125,2.9932869127243755,0.3876858969002962,0.019415625218302
2024-12-07 18:07:12.386927600,3.978927734375,2.6686025386601684,0.6378589275985955,0.443610686283186
2024-12-07 18:07:12.396901600,3.988901611328125,2.2617928390949964,0.915218071386218,0.8520978906065225
2024-12-07 18:07:12.406874600,3.99887451171875,2.016012636528164,0.9748790516227483,0.9842840818930416
2024-12-07 18:07:12.416848600,4.0088486328125,1.54074197967723,0.743059423738718,0.7613022057853639
2024-12-07 18:07:12.426823000,4.018822998046875,0.8657605052560567,0.4506628698170185,0.4140793983072042
2024-12-07 18:07:12.436797000,4.028796875,0.2050241215474903,0.2685340322971344,0.02667421804443
2024-12-07 18:07:12.446771000,4.03877099609375,-0.2211846904926002,0.1328729314416646,-0.3856142051927745
2024-12-07 18:07:12.456745000,4.048744873046875,-0.2919282057575881,-0.0232540343374013,-0.7526615109510719
2024-12-07 18:07:12.466719000,4.058718994140625,0.1123649809420108,-0.1098404309004545,-0.9943960913889108
2024-12-07 18:07:12.476693000,4.06869287109375,0.6631704789876938,-0.1859545332878828,-1.1628818226773292
2024-12-07 18:07:12.486667000,4.0786669921875,1.1796068205721677,-0.2240092463940382,-1.1633370921641588
2024-12-07 18:07:12.496641000,4.08864111328125,1.4402312487885356,-0.1588058295994996,-0.978622256739065
2024-12-07 18:07:12.506615000,4.098614990234375,1.2896154476463797,-0.0295978504061698,-0.605696195140481
2024-12-07 18:07:12.516588800,4.1085888671875,1.0164923339933156,0.136404612699151,-0.1706673131112009
2024-12-07 18:07:12.526562800,4.118562744140625,0.8781874406307936,0.1531324601382017,0.3033522477000951
2024-12-07 18:07:12.536536800,4.128536865234375,0.7010621104866266,0.1954337247729301,0.7740710864655673
2024-12-07 18:07:12.546510800,4.1385107421875,0.6212965729195624,0.1189759235143661,1.1169798301368952
2024-12-07 18:07:12.556484900,4.14848486328125,0.6216577343821525,-0.0964630629330873,1.267601768758893
2024-12-07 18:07:12.566459000,4.158458984375,0.5642366420269012,-0.2501893973112106,1.2090522568956017
2024-12-07 18:07:12.576433000,4.168432861328125,0.4418455032415688,-0.317845467954874,0.9529784777209164
2024-12-07 18:07:12.586407000,4.178406982421875,0.6377011066883802,-0.3610995032697915,0.7536992565009742
2024-12-07 18:07:12.596381000,4.188380859375,0.7281056002348661,-0.3805336870580911,0.5193208109796047
2024-12-07 18:07:12.606355000,4.19835498046875,0.5822978569615632,-0.4292857352674007,0.2379940787352621
2024-12-07 18:07:12.616329000,4.208328857421875,0.1673299853820353,-0.3442787168502807,-0.0052309594560414
2024-12-07 18:07:12.626303000,4.218302978515625,-0.1614711763512343,-0.318373291221261,-0.1156128402894362
2024-12-07 18:07:12.636277000,4.228277099609375,-0.3499024019509553,-0.1011696331888437,-0.1221331819688901
2024-12-07 18:07:12.646251000,4.2382509765625,-0.3011176935810595,0.1870914283633232,-0.0612651274975389
2024-12-07 18:07:12.656224000,4.24822412109375,-0.4094576567906886,0.3479518524050712,-0.1370603731941431
2024-12-07 18:07:12.666198000,4.258197998046875,-0.3880991538763046,0.2067161662876606,-0.1229855610145255
2024-12-07 18:07:12.676172000,4.268172119140625,-0.2560877346348017,-0.073192077460885,-0.1364028591334819
2024-12-07 18:07:12.686146000,4.27814599609375,0.0270862329114228,-0.2594108146429061,-0.0696023824058473
2024-12-07 18:07:12.696120000,4.2881201171875,0.2082260593939572,-0.2858586765855551,-0.0531936473859474
2024-12-07 18:07:12.706094000,4.298093994140625,0.2109107319006696,-0.1785001256287098,-0.0267142212612554
2024-12-07 18:07:12.716068000,4.308068115234375,0.1895603757601231,-0.0416670583844184,0.0758444733995012
2024-12-07 18:07:12.726042000,4.3180419921875,0.1222948388040065,0.0502606992065906,0.2811662079203874
2024-12-07 18:07:12.736016100,4.32801611328125,0.0910761091977357,0.0555669889211654,0.4105145088998601
2024-12-07 18:07:12.745990100,4.337990234375,-0.0111889180123805,0.2178565689831972,0.4780380026724189
2024-12-07 18:07:12.755964200,4.347964111328125,-0.2025555760094896,0.1978039610356092,0.379693217645958
2024-12-07 18:07:12.765938000,4.35793798828125,-0.3840080851703882,0.1655149718493223,0.2585168614778667
2024-12-07 18:07:12.775912000,4.367911865234375,-0.6396499026685952,0.0200713126480579,0.0873276342512574
2024-12-07 18:07:12.785886000,4.377885986328125,-0.750455963730812,-0.1629506743192672,-0.0052343935221433
2024-12-07 18:07:12.795860000,4.38785986328125,-0.8525596628993749,-0.3214490454047918,-0.1193628952716477
2024-12-07 18:07:12.805833000,4.3978330078125,-0.8745230729043483,-0.3921382001340389,-0.1962750161689706
2024-12-07 18:07:12.815807000,4.407806884765625,-0.8258481815844774,-0.3631114276140928,-0.2121122166449204
2024-12-07 18:07:12.825781000,4.417781005859375,-0.8734154039233922,-0.1141764142781496,-0.2387132415889762
2024-12-07 18:07:12.835754800,4.427754638671875,-0.8205962524056434,0.1263759706377983,0.097574750502035
2024-12-07 18:07:12.845728800,4.437728759765625,-0.64997314376235,0.4170481849849224,0.6433517528612166
2024-12-07 18:07:12.855702800,4.447702880859375,-0.4546984089434147,0.5099766440510749,1.0784035043094309
2024-12-07 18:07:12.865676800,4.4576767578125,-0.2110282025341875,0.398225411093235,1.428386643346399
2024-12-07 18:07:12.875650800,4.46765087890625,0.0073036010116338,0.2016080294936895,1.688238918146491
2024-12-07 18:07:12.885624800,4.477624755859375,0.0689648151546716,0.0695575203508138,1.8217597921028728
2024-12-07 18:07:12.895598800,4.487598876953125,-0.0654015514488332,0.0189209735691547,1.8229954713776704
2024-12-07 18:07:12.905572900,4.49757275390625,-0.1638590396021492,-0.0629635289132595,1.6363620159149168
2024-12-07 18:07:12.915547000,4.507546875,-0.1357207403545267,-0.1392336986452341,1.493843596510589
2024-12-07 18:07:12.925521000,4.51752099609375,-0.0777712219446897,-0.1621440341114997,1.4255718781866131
2024-12-07 18:07:12.935495000,4.527494873046875,0.0167594116210937,-0.1628366925507783,1.422080382809043
2024-12-07 18:07:12.945469000,4.537468994140625,0.1240138994152657,-0.177557876342535,1.4061150441750885
2024-12-07 18:07:12.955443000,4.54744287109375,0.1280301858519204,-0.1183972468435764,1.3789938130155206
2024-12-07 18:07:12.965417000,4.5574169921875,0.0126899884914048,-0.0240203425347805,1.3256187811806797
2024-12-07 18:07:12.975391000,4.567390869140625,-0.2053957313388586,-0.0202472537368536,1.2601609512336551
2024-12-07 18:07:12.985365000,4.577364990234375,-0.4604436745971441,-0.0937818610250949,1.2449468693584202
2024-12-07 18:07:12.995339000,4.587339111328125,-0.6342682096302509,-0.1949707834362983,1.2867984905295071
2024-12-07 18:07:13.005313000,4.59731298828125,-0.6022182898968458,-0.1698100386947393,1.4285010635063051
2024-12-07 18:07:13.015287000,4.607287109375,-0.4812976620554923,0.0077256258159875,1.6782055999100207
2024-12-07 18:07:13.025260800,4.6172607421875,-0.5076689516305923,0.3354290554404258,1.868304247265309
2024-12-07 18:07:13.035234800,4.62723486328125,-0.5284363933166488,0.6774380737930535,2.0796786146223543
2024-12-07 18:07:13.045208800,4.637208740234375,-0.6318517961382866,1.1376754121631385,2.321898202098161
2024-12-07 18:07:13.055182800,4.647182861328125,-0.7188368366301059,1.392169228670001,2.464748483805358
2024-12-07 18:07:13.065156000,4.657156005859375,-0.6593202333003282,1.7152005748301744,2.593691382321716
2024-12-07 18:07:13.075130000,4.667130126953125,-0.489998891437985,1.862362143865228,2.5093156475454568
2024-12-07 18:07:13.085103900,4.677103759765625,-0.2228705794866196,2.0428180797368287,2.367166938236356
2024-12-07 18:07:13.095078000,4.687077880859375,-0.2586509361863136,2.232992861068249,2.0527742410838603
2024-12-07 18:07:13.105052000,4.697052001953125,-0.5161959934899583,2.326372571033239,1.5552153261877597
2024-12-07 18:07:13.115026000,4.70702587890625,-0.7776292904037981,2.1906039181500674,0.9737763510778544
2024-12-07 18:07:13.125000000,4.717,-1.1678461670864373,1.76864107311666,0.2747078986264765
2024-12-07 18:07:13.134974000,4.726973876953125,-1.4262030156970025,1.2755658795058726,-0.2888764535041526
2024-12-07 18:07:13.144948000,4.736947998046875,-1.3905876585669814,0.9081266518205404,-0.6013249943189323
2024-12-07 18:07:13.154922000,4.746921875,-1.3382172737300395,0.5557002843499184,-0.8150808499850333
2024-12-07 18:07:13.164896000,4.75689599609375,-1.1355758826006204,0.2551853059023619,-1.03410112898536
2024-12-07 18:07:13.174870000,4.7668701171875,-0.933763781902194,0.0258463889181613,-1.264866498576105
2024-12-07 18:07:13.184844000,4.776843994140625,-0.7389974349968135,-0.2477308982431888,-1.5862563611395657
2024-12-07 18:07:13.194818000,4.786818115234375,-0.5830984327547252,-0.6389040527373552,-2.065861686193943
2024-12-07 18:07:13.204792000,4.7967919921875,-0.4179283288203179,-1.0626818382382393,-2.5785055036276576
2024-12-07 18:07:13.214766000,4.80676611328125,-0.2356178511232137,-1.3576894514411688,-2.9395693510621785
2024-12-07 18:07:13.224740000,4.816739990234375,-0.0774418438598513,-1.4445967505216597,-2.9517697842046617
2024-12-07 18:07:13.234714000,4.826714111328125,-0.0749358523882925,-1.1177549061626195,-2.692142696462572
2024-12-07 18:07:13.244688100,4.836688232421875,-0.1756317305855453,-0.4082482079356908,-2.3894068270951507
2024-12-07 18:07:13.254662100,4.846662109375,-0.0974368764013051,0.4834492871314287,-1.9866830816693604
2024-12-07 18:07:13.264636200,4.85663623046875,-0.0829090232245624,1.4082313056766986,-1.5500477142915128
2024-12-07 18:07:13.274610000,4.86660986328125,0.1145459782429039,2.0674767201751467,-1.2178744457766413
2024-12-07 18:07:13.284584000,4.876583984375,0.3101999216377735,2.52887316545248,-0.8062169408541172
2024-12-07 18:07:13.294558000,4.886557861328125,0.4866100892499089,2.485944708830118,-0.4905453098069876
2024-12-07 18:07:13.304532000,4.896531982421875,0.5233306311428546,2.0903607521563767,-0.4540001244809478
2024-12-07 18:07:13.314506000,4.906506103515625,0.5703339359886944,1.519399770310521,-0.5355024227127433
2024-12-07 18:07:13.324479700,4.916479736328125,1.031373822913319,0.960970353257656,-0.456198145981878
2024-12-07 18:07:13.334453800,4.926453857421875,1.1597284001477062,0.5869698673605919,-0.1602687417589127
2024-12-07 18:07:13.344427800,4.936427734375,0.953211994215846,0.2073842748075723,0.0860408915095031
2024-12-07 18:07:13.354400800,4.94640087890625,0.8236259754903614,-0.2124152547121048,0.0592968230992555
2024-12-07 18:07:13.364374800,4.956374755859375,0.9054527564361692,-0.5336094485729932,-0.0136066466785967
2024-12-07 18:07:13.374348800,4.966348876953125,0.684863839879632,-0.6260702901273966,-0.1850444327056407
2024-12-07 18:07:13.384322800,4.97632275390625,0.3964158774532377,-0.6424035852909088,-0.370959949157387
2024-12-07 18:07:13.394296800,4.986296875,0.3944622591674327,-0.6594260317623615,-0.4789570902787148
2024-12-07 18:07:13.404270800,4.996270751953125,0.6696558954842389,-0.7644862426489591,-0.8340272502563894
2024-12-07 18:07:13.414244900,5.006244873046875,0.8750345295578241,-0.8258551958471536,-1.1940310672439634
2024-12-07 18:07:13.424219000,5.016218994140625,0.7801771482557058,-0.7631739910066128,-1.239466392120719
2024-12-07 18:07:13.434193000,5.02619287109375,0.6453799707531929,-0.8057879748523235,-1.3792401889920234
2024-12-07 18:07:13.444167000,5.0361669921875,0.5672150733157992,-0.9232143308371304,-1.5704957512974738
2024-12-07 18:07:13.454141000,5.046140869140625,0.5113222134411335,-1.1053922681957482,-1.7115467284977437
2024-12-07 18:07:13.464115000,5.056114990234375,0.6590072218284011,-1.3475894977092742,-1.7343854600325226
2024-12-07 18:07:13.474089000,5.0660888671875,0.857143775819242,-1.6127952623665331,-1.757290534801781
2024-12-07 18:07:13.484063000,5.07606298828125,0.936074396932125,-1.9669775335937736,-2.058556770008057
2024-12-07 18:07:13.494037000,5.086037109375,0.9039408905684948,-2.301023610243201,-2.4223434665352106
2024-12-07 18:07:13.504011000,5.096010986328125,0.9037921297475696,-2.5353297942459583,-2.510340314418077
2024-12-07 18:07:13.513985000,5.105985107421875,0.6696978349298238,-2.663830501952768,-2.2847389765270054
2024-12-07 18:07:13.523959000,5.115958984375,0.3521598254889249,-2.5816858872294426,-1.8519697830580173
2024-12-07 18:07:13.533932800,5.125932861328125,-0.0172001411259174,-2.2199644526690245,-1.2712154292114075
2024-12-07 18:07:13.543906800,5.13590673828125,-0.2588897133782505,-1.7278969747960566,-0.4907591717533767
2024-12-07 18:07:13.553880600,5.145880615234375,-0.1683154162228107,-1.2468074025332927,0.4105710979253053
2024-12-07 18:07:13.563854600,5.1558544921875,-0.1151791615799069,-0.8704834421247243,1.0089451334841548
2024-12-07 18:07:13.573828600,5.16582861328125,-0.4360410547465085,-0.4165110093683004,1.676054559355974
2024-12-07 18:07:13.583802600,5.175802734375,-0.8144038275063037,-0.126827806058526,2.320106788636744
2024-12-07 18:07:13.593776600,5.185776611328125,-1.3207657881915569,-0.0408218397319316,2.927392591056228
2024-12-07 18:07:13.603750700,5.195750732421875,-1.9881196903437377,0.0403285032570362,3.3714269826442003
2024-12-07 18:07:13.613724700,5.205724609375,-2.5275731887698174,0.1628057128906249,3.64662690257132
2024-12-07 18:07:13.623698700,5.21569873046875,-2.8909429750591515,0.4810971710473298,3.81956939407289
2024-12-07 18:07:13.633671700,5.225671630859375,-2.9522976074710487,0.9601502690464258,3.756917999848723
2024-12-07 18:07:13.643645700,5.235645751953125,-2.76289527181685,1.3796031770855188,3.390110348065197
2024-12-07 18:07:13.653619700,5.24561962890625,-2.35776081198752,1.5525211186677217,2.517402507889271
2024-12-07 18:07:13.663593700,5.25559375,-1.8589092269323768,1.1109908188551665,1.033933298137784
2024-12-07 18:07:13.673567700,5.265567626953125,-1.4173621221154928,0.2616331668674945,-0.5049772283285856
2024-12-07 18:07:13.683541800,5.275541748046875,-1.0478265066727994,-0.5141928004413843,-1.5849512698903678
2024-12-07 18:07:13.693515800,5.285515869140625,-0.8902097407273948,-1.0802385377168655,-2.1815539118625225
2024-12-07 18:07:13.703489800,5.29548974609375,-0.9250660961836576,-1.5723095227211712,-2.4128765500098464
2024-12-07 18:07:13.713463800,5.3054638671875,-1.0625718019925057,-1.8545137684524056,-2.440082244582474
2024-12-07 18:07:13.723437800,5.315437744140625,-1.3649139958672225,-1.5128922881126403,-2.3752244263552127
2024-12-07 18:07:13.733411800,5.325411865234375,-1.7312701044909655,-0.43174891051054,-2.076365252290666
2024-12-07 18:07:13.743385900,5.3353857421875,-1.7346067015677689,1.1333762536644936,-1.4359952186539768
2024-12-07 18:07:13.753360000,5.34535986328125,-1.0741142096176743,2.713934549292922,-0.6273647138521075
2024-12-07 18:07:13.763334000,5.355333984375,-0.0059122927837073,3.879143280547857,0.1250317164219915
2024-12-07 18:07:13.773308000,5.365307861328125,0.8402098844140767,4.4491608440637584,0.7954625418014823
2024-12-07 18:07:13.783282000,5.375281982421875,1.2037126494333148,4.107335365584492,1.5045632895760237
2024-12-07 18:07:13.793255700,5.385255615234375,1.3459317936301232,2.867272176614404,1.9116906767882405
2024-12-07 18:07:13.803229700,5.395229736328125,1.6208365300029517,1.2118746208399531,1.750370526280254
2024-12-07 18:07:13.813203700,5.40520361328125,1.8490562336988745,-0.2038257055431604,0.9426800788074732
2024-12-07 18:07:13.823177700,5.415177734375,1.896614688209444,-1.2228782454133034,0.1502123349077999
2024-12-07 18:07:13.833151700,5.42515185546875,1.6731589840449392,-1.9946844556868075,-0.482576742080599
2024-12-07 18:07:13.843125800,5.435125732421875,0.9964134225606918,-2.0217969190180303,-1.3193744799636304
2024-12-07 18:07:13.853099800,5.445099853515625,0.209094147465378,-1.9447008198559284,-2.5476860024720427
2024-12-07 18:07:13.863073800,5.45507373046875,-0.3768674196355044,-1.938724083533883,-3.698462011487782
2024-12-07 18:07:13.873047800,5.4650478515625,-0.7612607047311961,-1.74178463037312,-4.2735973564088345
2024-12-07 18:07:13.883021800,5.475021728515625,-1.2359966701835394,-1.3397861304819585,-4.470431011107563
2024-12-07 18:07:13.892995800,5.484995849609375,-1.2787183521874248,-0.8086912950783968,-4.07086119966805
2024-12-07 18:07:13.902968800,5.49496875,-0.5530366180986166,-0.4319903180509805,-3.327330359025299
2024-12-07 18:07:13.912942800,5.50494287109375,0.5231511829227209,-0.1770768148273229,-2.570105047290027
2024-12-07 18:07:13.922916900,5.514916748046875,1.4808347695946693,0.0119593178629875,-1.8359110670521857
2024-12-07 18:07:13.932891000,5.524890869140625,2.082588949111104,0.1467389597088098,-1.0748739419437945
2024-12-07 18:07:13.942865000,5.534864990234375,2.3819651327870783,0.3081955960780382,-0.1708492455493658
2024-12-07 18:07:13.952839000,5.5448388671875,2.523469260582328,0.4954664726614952,0.7102043981675058
2024-12-07 18:07:13.962813000,5.55481298828125,2.661628607994318,0.7049106026083231,1.3815792994640768
2024-12-07 18:07:13.972787000,5.564786865234375,2.7593852178692817,0.7995844440370797,1.6619821948617697
2024-12-07 18:07:13.982761000,5.574760986328125,2.489863343578577,0.9448784656345844,1.5207675515323875
2024-12-07 18:07:13.992735000,5.58473486328125,1.976586488938332,1.2089292150378226,1.14814237257652
2024-12-07 18:07:14.002709000,5.594708984375,1.2789141670204698,1.2154682614177466,0.4480916310895234
2024-12-07 18:07:14.012683000,5.60468310546875,0.5713545112080872,1.0037415734916926,-0.3072789196245372
2024-12-07 18:07:14.022657000,5.614656982421875,0.2287064642995595,0.698345837265253,-0.9953077263411134
2024-12-07 18:07:14.032631000,5.624631103515625,0.1523610373742878,0.406207642018795,-1.4303120584510265
2024-12-07 18:07:14.042604800,5.634604736328125,0.3667104750193655,0.0894686740010976,-1.724910360200703
2024-12-07 18:07:14.052578800,5.644578857421875,0.7943547266900539,-0.1314507896840572,-1.8495090920329096
2024-12-07 18:07:14.062552800,5.654552734375,1.1904280743159352,-0.1238672026872634,-1.754522823654115
2024-12-07 18:07:14.072526600,5.664526611328125,1.283103873795271,-0.0230985515147447,-1.6485130569577215
2024-12-07 18:07:14.082500600,5.67450048828125,1.0532080535806714,0.071108841446042,-1.3583655971370636
2024-12-07 18:07:14.092474600,5.684474609375,0.6439813560016453,0.1308288583934307,-0.954409387306869
2024-12-07 18:07:14.102448600,5.69444873046875,0.4796189151883125,0.1022913306951522,-0.2597366125311702
2024-12-07 18:07:14.112422700,5.704422607421875,0.4568469652794301,0.086230422732234,0.2988484334748238
2024-12-07 18:07:14.122396700,5.714396728515625,0.5669816298861057,-0.090958035776019,0.5622062687104568
2024-12-07 18:07:14.132370700,5.72437060546875,0.8793295964032412,-0.1116588784992694,0.9225830471962688
2024-12-07 18:07:14.142344700,5.7343447265625,1.2017261517912148,-0.0964858592867851,1.2240854292459786
2024-12-07 18:07:14.152318700,5.744318603515625,1.4274199902713298,-0.1195832417577505,1.3596749261699617
2024-12-07 18:07:14.162291700,5.754291748046875,1.244503801766038,-0.1532341669470071,1.2966989761665462
2024-12-07 18:07:14.172265700,5.764265625,0.7852249331645668,-0.2582330030351877,1.114886511119455
2024-12-07 18:07:14.182239700,5.77423974609375,0.4432225637484341,-0.3836871826529502,0.9713679747618734
2024-12-07 18:07:14.192213800,5.7842138671875,0.3078524086635559,-0.497574258595705,0.8467593060575425
2024-12-07 18:07:14.202187800,5.794187744140625,0.2382785216998308,-0.6582178250163793,0.670691522142291
2024-12-07 18:07:14.212161800,5.804161865234375,0.2430956396579742,-0.5572977826744318,0.5867701435374095
2024-12-07 18:07:14.222135800,5.8141357421875,0.1894306849658489,-0.3405523898035287,0.4555265303306281
2024-12-07 18:07:14.232109800,5.82410986328125,0.1115250960517674,-0.0033697686940431,0.3599090513762086
2024-12-07 18:07:14.242083800,5.834083740234375,-0.010198226474598,0.2760012994378805,0.2386853489350527
2024-12-07 18:07:14.252057900,5.844057861328125,-0.2275309907793998,0.2519493927210569,0.0877481703514233
2024-12-07 18:07:14.262032000,5.854031982421875,-0.4101911221643909,0.1865039838641881,-0.0431931354405358
2024-12-07 18:07:14.272006000,5.864005859375,-0.5355787028193474,0.1077145247876644,-0.0823759757937863
2024-12-07 18:07:14.281980000,5.87397998046875,-0.5374439121693373,-0.1060761099308729,0.0089046795327216
2024-12-07 18:07:14.291954000,5.883953857421875,-0.5702823153993114,-0.1375643041282892,0.07996095054131
2024-12-07 18:07:14.301927700,5.893927734375,-0.6074584921052679,-0.1405173087149858,0.1757989221123047
2024-12-07 18:07:14.311901700,5.903901611328125,-0.5573130167761817,-0.1271820263236761,0.2679071873693727
2024-12-07 18:07:14.321875700,5.913875732421875,-0.5510112132182344,0.0705406861692667,0.2559681633757427
2024-12-07 18:07:14.331849700,5.923849609375,-0.7175204933345317,0.2235492276668548,0.1630094005028717
2024-12-07 18:07:14.341823700,5.93382373046875,-0.8502139765560627,0.19627309820652,0.2820004302548244
2024-12-07 18:07:14.351797800,5.9437978515625,-0.96687519338727,0.1226794542074203,0.3423123121481388
2024-12-07 18:07:14.361771800,5.953771728515625,-0.980038041821122,-0.0633393764883279,0.396057273273915
2024-12-07 18:07:14.371745800,5.963745849609375,-0.8894166906535625,-0.2428203298479318,0.5436382367648184
2024-12-07 18:07:14.381719800,5.9737197265625,-0.8000637519866227,-0.3764192374765873,0.7152846240412444
2024-12-07 18:07:14.391693800,5.98369384765625,-0.6616448768556118,-0.2815577645212411,1.001343134047836
2024-12-07 18:07:14.401667800,5.993667724609375,-0.519251252874732,-0.1396358497053384,1.2219785931598397
2024-12-07 18:07:14.411640800,6.003640869140625,-0.3403349476605654,0.0328384397625923,1.334944827930629
2024-12-07 18:07:14.421614800,6.01361474609375,-0.2080664118528365,0.0905401026248931,1.2882603797756134
2024-12-07 18:07:14.431589600,6.023589599609375,-0.1968137992207892,0.1370008250266313,1.2463244413219392
2024-12-07 18:07:14.441563600,6.033563720703125,-0.2965998325641267,0.0065443070769309,1.1450484251491724
2024-12-07 18:07:14.451537700,6.04353759765625,-0.3522942655235528,-0.1204945113837718,1.0240620385952293
2024-12-07 18:07:14.461511700,6.05351171875,-0.3739537241458892,-0.0030628947019577,0.9755515440568328
2024-12-07 18:07:14.471485700,6.063485595703125,-0.3196522251158952,0.1674006394654512,0.9340300316229462
2024-12-07 18:07:14.481459700,6.073459716796875,-0.2397416530549526,0.2351975798845291,0.8793285734899342
2024-12-07 18:07:14.491433700,6.083433837890625,-0.211261956491135,0.4125052808582782,0.7578482659392058
2024-12-07 18:07:14.501407700,6.09340771484375,-0.1746545561164617,0.3439396941542625,0.913404446092993
2024-12-07 18:07:14.511381500,6.103381591796875,-0.0405137875629123,0.1312766021609306,1.0072897674925625
2024-12-07 18:07:14.521355500,6.11335546875,0.0009176993668079,-0.0852998638838529,0.966907488221675
2024-12-07 18:07:14.531329500,6.12332958984375,0.0508498881382402,-0.1082961240679025,0.9216422592148183
2024-12-07 18:07:14.541303600,6.133303466796875,-0.0636941721422132,-0.0433925670027732,0.8215404013879597
2024-12-07 18:07:14.551277600,6.143277587890625,-0.3644751171827316,-0.0023421792119741,0.6914211525686085
2024-12-07 18:07:14.561251600,6.15325146484375,-0.6302776786893606,-0.0767477241158485,0.5944049492647872
2024-12-07 18:07:14.571225600,6.1632255859375,-0.994344799593091,0.2248112104266881,0.4404440389458089
2024-12-07 18:07:14.581199600,6.17319970703125,-1.1520651720434427,0.3474105851352214,0.5290314366003498
2024-12-07 18:07:14.591173600,6.183173583984375,-0.8892091853827238,0.4336766637027263,0.897716536160931
2024-12-07 18:07:14.601147600,6.193147705078125,-0.5353121608376503,0.7238444356590509,1.3907207834273576
2024-12-07 18:07:14.611121700,6.20312158203125,-0.054041395922238,0.7326204473108052,1.87882578741014
2024-12-07 18:07:14.621095700,6.213095703125,0.3497989415764808,0.9737140994966028,2.38720727122426
2024-12-07 18:07:14.631069700,6.223069580078125,0.551299419042468,1.355359547188878,2.6185741869047283
2024-12-07 18:07:14.641043700,6.233043701171875,0.3551379645168781,1.743329521727562,2.5788939184233546
2024-12-07 18:07:14.651016700,6.2430166015625,-0.090674524393212,1.9273855279177423,2.3198665501400826
2024-12-07 18:07:14.660990700,6.25299072265625,-0.4622516008019447,1.881997987705469,1.895731475634128
2024-12-07 18:07:14.670964700,6.26296484375,-0.8333160332471132,1.7049579977571965,1.168786662806943
2024-12-07 18:07:14.680938800,6.272938720703125,-1.2108055303037166,1.4745622651964423,0.4347602576883509
2024-12-07 18:07:14.690912500,6.28291259765625,-1.310696229597926,1.0687222874462603,-0.0478224392089992
2024-12-07 18:07:14.700886500,6.292886474609375,-1.5181471399009228,0.9746849903553724,-0.7812105098914355
2024-12-07 18:07:14.710860500,6.302860595703125,-1.7163655269563196,0.5986766717672347,-1.437313607776165
2024-12-07 18:07:14.720834600,6.31283447265625,-1.4925561870485544,0.2491203067749738,-1.59676664923802
2024-12-07 18:07:14.730808600,6.32280859375,-1.3143002454392612,-0.1754553511053323,-1.7840949550971388
2024-12-07 18:07:14.740782600,6.332782470703125,-1.0110299769341946,-0.633184506046772,-1.9170558570832013
2024-12-07 18:07:14.750756600,6.342756591796875,-0.8962222790151834,-0.9675111532032488,-1.9987620803892607
2024-12-07 18:07:14.760730600,6.352730712890625,-0.9369989644311368,-1.1080401523560286,-2.0110713807336986
2024-12-07 18:07:14.770704400,6.362704345703125,-0.8492465928286314,-1.060764606440067,-1.9289291040979324
2024-12-07 18:07:14.780678400,6.372678466796875,-0.5434006286166608,-0.9356219769895076,-1.7442644644901155
2024-12-07 18:07:14.790652400,6.38265234375,-0.1586209745518863,-0.668930942210555,-1.6099122542761266
2024-12-07 18:07:14.800626400,6.39262646484375,0.0560388442166149,-0.192115978527069,-1.4546572490260004
2024-12-07 18:07:14.810600400,6.402600341796875,0.0633636341467499,0.6199626209020614,-1.1330467294491826
2024-12-07 18:07:14.820574500,6.412574462890625,0.1561640829190611,1.5278952114552258,-0.5959658784385771
2024-12-07 18:07:14.830548500,6.422548583984375,0.2090475318446755,2.218347665122151,-0.1504160407863557
2024-12-07 18:07:14.840522500,6.4325224609375,0.5271995815306901,2.51072785243094,0.0736260849639773
2024-12-07 18:07:14.850496500,6.44249658203125,1.080965829078108,2.5386563083201645,0.2780315631564706
2024-12-07 18:07:14.860470500,6.452470458984375,1.347343706254661,2.2896587511420248,0.4931112147722393
2024-12-07 18:07:14.870444500,6.462444580078125,1.5037819299399853,1.7333721913367508,0.4560519424442201
2024-12-07 18:07:14.880418600,6.47241845703125,1.667182978375256,1.3024001104176044,0.5785896500933915
2024-12-07 18:07:14.890392600,6.482392578125,1.6435463744610548,0.964403834837675,0.774200923390314
2024-12-07 18:07:14.900365600,6.492365478515625,1.09931820897907,0.6993547220468521,0.6945930606029928
2024-12-07 18:07:14.910339600,6.502339599609375,0.5632692582994699,0.5117828166902065,0.6800834737353026
2024-12-07 18:07:14.920313600,6.512313720703125,0.6822513192936778,0.176854696509242,0.3774178931251168
2024-12-07 18:07:14.930287600,6.52228759765625,0.9447162608101964,-0.1575783336311578,-0.133457014939934
2024-12-07 18:07:14.940261600,6.53226171875,1.0432336259245871,-0.4196615823537111,-0.5787034126661718
2024-12-07 18:07:14.950235600,6.542235595703125,1.034021707073599,-0.6703489923149347,-0.9972042806774376
2024-12-07 18:07:14.960209700,6.552209716796875,0.6305594182401895,-0.7736445316165685,-1.1436214610859752
2024-12-07 18:07:14.970183700,6.56218359375,0.0628824265010654,-0.8522066116780043,-1.2062724169187249
2024-12-07 18:07:14.980157700,6.57215771484375,-0.3819087748035788,-0.7284224110990762,-1.0855160397283732
2024-12-07 18:07:14.990131700,6.582131591796875,-0.4604435284666717,-0.8068506356477737,-1.1352455546677112
2024-12-07 18:07:15.000105700,6.592105712890625,-0.3552992925584316,-1.0109043047279118,-1.5098133190587162
2024-12-07 18:07:15.010079700,6.602079833984375,0.1035271561004221,-1.3044646417319774,-1.9651906501770016
2024-12-07 18:07:15.020053500,6.612053466796875,0.650452451711893,-1.4856611668378117,-2.243470708201825
2024-12-07 18:07:15.030027500,6.622027587890625,0.9130608933523296,-1.5994190634429457,-2.413659517081081
2024-12-07 18:07:15.040001500,6.63200146484375,0.9256593859016896,-1.712348108008504,-2.694368263557553
2024-12-07 18:07:15.049975600,6.6419755859375,0.6941637292750179,-1.9085458028912543,-3.1472634224712848
2024-12-07 18:07:15.059949600,6.651949462890625,0.466883644516766,-2.144747591382265,-3.400830771782994
2024-12-07 18:07:15.069923600,6.661923583984375,0.1683215537026524,-2.2998504748106003,-3.2439202544108032
2024-12-07 18:07:15.079897600,6.671897705078125,-0.2373416061758995,-2.259859825205803,-2.7266619289189578
2024-12-07 18:07:15.089871600,6.68187158203125,-0.6153393450155854,-1.983855603158473,-1.7860832063049077
2024-12-07 18:07:15.099845600,6.691845703125,-0.7016985086940228,-1.6433441298872231,-0.6145194069348275
2024-12-07 18:07:15.109819600,6.701819580078125,-0.5898123973101377,-1.1590718359351158,0.6491757097743451
2024-12-07 18:07:15.119793700,6.711793701171875,-0.4028998326450586,-0.7079395950406789,1.721512534455955
2024-12-07 18:07:15.129766700,6.7217666015625,-0.1423150057867169,-0.332657252639532,2.653153917376697
2024-12-07 18:07:15.139740700,6.73174072265625,0.0907261267162859,-0.0020487492233514,3.36969387524128
2024-12-07 18:07:15.149714700,6.741714599609375,0.1354782916344702,0.1234200434416532,3.8046348597913977
2024-12-07 18:07:15.159688700,6.751688720703125,-0.2215121688812971,0.0229202723383903,3.68521469964087
2024-12-07 18:07:15.169662700,6.761662841796875,-0.7125935583263635,-0.4225193098723888,2.751362654933333
2024-12-07 18:07:15.179636700,6.77163671875,-0.9415048975482584,-0.886543765565753,1.602897114817053
2024-12-07 18:07:15.189610800,6.78161083984375,-0.923453984811902,-1.0908294898360966,0.7877576665125787
2024-12-07 18:07:15.199584500,6.79158447265625,-0.7884655225209891,-1.0301467653363945,0.3108322281919419
2024-12-07 18:07:15.209558500,6.80155859375,-0.4067676139891147,-0.8381026830017566,0.138774118309468
2024-12-07 18:07:15.219532500,6.811532470703125,0.1042632152900099,-0.5568675745636225,0.2025593388691544
2024-12-07 18:07:15.229506600,6.821506591796875,0.4135480679094791,-0.3206628634631633,0.4146829171583056
2024-12-07 18:07:15.239480600,6.83148046875,0.371100672802329,-0.1857066960066556,0.65249550184682
2024-12-07 18:07:15.249454600,6.84145458984375,-0.1268412500619888,-0.1216004267990589,0.921652488347888
2024-12-07 18:07:15.259428600,6.8514287109375,-0.8593024151578545,-0.0663946724057197,1.1770233799502252
2024-12-07 18:07:15.269402600,6.861402587890625,-1.4923948590070009,0.0572901594519615,1.3581982777461408
2024-12-07 18:07:15.279376400,6.87137646484375,-1.913718675484508,0.1866156275451183,1.4610152397505938
2024-12-07 18:07:15.289350400,6.881350341796875,-1.982570531783998,0.1434907715678215,1.375279760928452
2024-12-07 18:07:15.299324400,6.891324462890625,-1.79777247505486,0.0704629447579383,1.0057973369777202
2024-12-07 18:07:15.309298400,6.90129833984375,-1.4452940851360558,0.0427665440589189,0.4850755731590092
2024-12-07 18:07:15.319272400,6.9112724609375,-0.9247983851581812,0.0227180277645587,-0.0812844907626509
2024-12-07 18:07:15.329246500,6.92124658203125,-0.4141872425958514,0.0672457362771034,-0.5007086110986769
2024-12-07 18:07:15.339220500,6.931220458984375,0.0138455700010061,0.3233522486776113,-0.7987912478327751
2024-12-07 18:07:15.349193500,6.941193359375,0.3914819281823933,0.9585779051631688,-1.0281664051741362
2024-12-07 18:07:15.359167500,6.95116748046875,0.4714041906811296,2.047721633869409,-1.1734329542428257
2024-12-07 18:07:15.369141500,6.9611416015625,0.3053074734210967,3.3123411719471214,-1.2272406784065066
2024-12-07 18:07:15.379115500,6.971115478515625,-0.021789660873264,4.2048043906897306,-1.2449576830133795
2024-12-07 18:07:15.389089500,6.981089599609375,-0.6281674085371196,4.3357150821477175,-1.3174267068967225
2024-12-07 18:07:15.399063600,6.9910634765625,-1.5903496218025683,3.511910389089584,-1.3208797699600456
2024-12-07 18:07:15.409037600,7.00103759765625,-2.562546886995434,1.8809645530045032,-1.173360327398032
2024-12-07 18:07:15.419011600,7.011011474609375,-2.8265052819401024,0.0422685314089059,-1.1858028987333178
2024-12-07 18:07:15.428985000,7.020985107421875,-2.1938632122069595,-1.4292822770118712,-1.3608616517364978
2024-12-07 18:07:15.438959000,7.030958984375,-0.9627484688460828,-2.276812129050493,-1.6791994332529605
2024-12-07 18:07:15.448933000,7.04093310546875,0.3893846636421978,-2.7071108407527205,-2.080655058439076
2024-12-07 18:07:15.458907100,7.0509072265625,1.441825970634073,-2.838212670868635,-2.314158840017765
2024-12-07 18:07:15.468881200,7.060881103515625,1.9526834891729057,-2.575595169138908,-2.226461121211946
2024-12-07 18:07:15.478855200,7.070855224609375,2.087346957293153,-1.9357780932098625,-1.887468235810101
2024-12-07 18:07:15.488829200,7.0808291015625,1.9405698575310408,-1.0354781894922256,-1.3693643994048237
2024-12-07 18:07:15.498803200,7.09080322265625,1.7560118931680917,-0.1704723019957542,-0.6460650304079055
2024-12-07 18:07:15.508777200,7.100777099609375,1.5703924370534716,0.3742138363867998,0.0898201908525079
2024-12-07 18:07:15.518751200,7.110751220703125,1.556398983014375,0.6008288813650607,0.8285363246899098
2024-12-07 18:07:15.528725200,7.120725341796875,1.526672537792474,0.639260611090064,1.3943962570697068
2024-12-07 18:07:15.538699300,7.13069921875,1.5601241410173474,0.4922504332244395,1.6466908099666238
2024-12-07 18:07:15.548673300,7.14067333984375,1.5983131480276584,0.2815162634670734,1.4785044269509613
2024-12-07 18:07:15.558647000,7.15064697265625,1.6077997921667992,0.1249298634827136,0.9648407649502158
2024-12-07 18:07:15.568620000,7.1606201171875,1.3739029196172952,0.1097375550478696,0.3710759767524897
2024-12-07 18:07:15.578594000,7.170593994140625,1.0851314243249597,0.1039805989563465,-0.1963853994745761
2024-12-07 18:07:15.588568000,7.180568115234375,0.8491852180302143,0.0637064562350511,-0.6067691581342369
2024-12-07 18:07:15.598542000,7.1905419921875,0.7743155627459287,0.0264414322018623,-0.9147478235259652
2024-12-07 18:07:15.608516000,7.20051611328125,0.8136994786292314,0.1721428655564784,-1.1221621281456202
2024-12-07 18:07:15.618489900,7.21048974609375,0.911468801855296,0.4401110806643962,-1.310515612334013
2024-12-07 18:07:15.628463900,7.2204638671875,1.0759399637401104,0.6966682594418525,-1.352812200793624
2024-12-07 18:07:15.638438000,7.23043798828125,1.1964655278492715,0.7963122904986143,-1.3958464558780193
2024-12-07 18:07:15.648412000,7.240411865234375,1.2866057444363832,0.6871107420235872,-1.3317600604146718
2024-12-07 18:07:15.658386000,7.250385986328125,1.2916980991393328,0.4877180504918098,-1.2103740070186555
2024-12-07 18:07:15.668360000,7.26035986328125,1.0873737964242696,0.353845586618781,-1.144321352983639
2024-12-07 18:07:15.678334000,7.270333984375,0.8145072878807783,0.3367506594330072,-1.1170662663113324
2024-12-07 18:07:15.688308000,7.280307861328125,0.5078256034970283,0.3260392958045006,-1.181238294231519
2024-12-07 18:07:15.698282000,7.290281982421875,0.2819371192276477,0.3890414031624793,-1.0346520408663895
2024-12-07 18:07:15.708256000,7.300256103515625,0.0673784227460622,0.4744827213436365,-1.1522601100936531
2024-12-07 18:07:15.718230000,7.31022998046875,0.1669428126953542,0.2667132466107607,-1.1050779415495693
2024-12-07 18:07:15.728204000,7.3202041015625,0.505515572988987,0.0923170491695404,-0.9192738495830446
2024-12-07 18:07:15.738178000,7.330177978515625,0.7794681962687522,-0.0701671766817569,-0.7183350976530463
2024-12-07 18:07:15.748152000,7.340152099609375,0.7948820384997874,-0.3079062577426433,-0.5576772104460745
2024-12-07 18:07:15.758126000,7.3501259765625,0.7109732636481523,-0.34096038608253,-0.3198643334966152
2024-12-07 18:07:15.768100000,7.36010009765625,0.5061497792392969,-0.3547136016249656,-0.1877503306634724
2024-12-07 18:07:15.778074000,7.37007421875,0.385519074255228,-0.292860079780221,0.1139735851824283
2024-12-07 18:07:15.788047000,7.380047119140625,0.349064270626381,-0.1804196955144405,0.370185019262135
2024-12-07 18:07:15.798021000,7.390021240234375,0.3468577004928141,-0.1537467926442623,0.540854085939005
2024-12-07 18:07:15.807995100,7.3999951171875,0.3559469428122043,-0.1822714608609676,0.6144115626461804
2024-12-07 18:07:15.817969200,7.40996923828125,0.3995154509037733,-0.2194721874862909,0.6592342355173081
2024-12-07 18:07:15.827943200,7.419943115234375,0.6022809068042785,-0.200146724769473,0.761301913524419
2024-12-07 18:07:15.837917200,7.429917236328125,0.7332300305765121,-0.2187777754813432,0.8231509053245186
2024-12-07 18:07:15.847891200,7.43989111328125,0.8684738558679819,-0.2767997563391923,0.8481926998615265
2024-12-07 18:07:15.857865200,7.449865234375,0.8674263195764272,-0.3099953389763832,0.9987114703699946
2024-12-07 18:07:15.867839000,7.4598388671875,0.8053267140161245,-0.2794447178900242,0.9618196635633708
2024-12-07 18:07:15.877813000,7.46981298828125,0.575191678218171,-0.1328682552665472,0.8525348207190633
2024-12-07 18:07:15.887787000,7.479787109375,0.2457294952929019,0.1027303066343069,0.8280198265351355
2024-12-07 18:07:15.897761000,7.489760986328125,-0.0814127933174371,0.2373790155768394,0.7305370651654899
2024-12-07 18:07:15.907735000,7.499735107421875,-0.4094523960936814,0.0995861633896827,0.447299238602817
2024-12-07 18:07:15.917709000,7.509708984375,-0.6732832922011613,-0.124392103344202,0.0982181264394894
2024-12-07 18:07:15.927683000,7.51968310546875,-0.6110866925397888,-0.295071910610795,0.121792478772439
2024-12-07 18:07:15.937657000,7.529656982421875,-0.4271545684576034,-0.4655711006134748,0.0136864339165389
2024-12-07 18:07:15.947631000,7.539631103515625,-0.2780763886788859,-0.542229977402091,-0.1143147267702966
2024-12-07 18:07:15.957605000,7.549605224609375,-0.0876157761434093,-0.4177355827271938,-0.068474182093516
2024-12-07 18:07:15.967579100,7.5595791015625,-0.0382499799499288,-0.2362415359795093,0.0324746844841167
2024-12-07 18:07:15.977553200,7.56955322265625,-0.1575327043911442,-0.0902349821984767,0.1692813934444449
2024-12-07 18:07:15.987526100,7.579526123046875,-0.3398720063239336,0.100240243384242,0.2983270216829143
2024-12-07 18:07:15.997500000,7.5895,-0.4253998337447643,0.185217451184988,0.5408966829717159
2024-12-07 18:07:16.007474000,7.599473876953125,-0.4534036929577589,0.2082020209312438,0.6599458909180015
2024-12-07 18:07:16.017448000,7.609447998046875,-0.4414239168286323,0.0974064812630415,0.6499011014394461
2024-12-07 18:07:16.027422000,7.619421875,-0.4425000216275453,-0.0819330177992582,0.62653242774643
2024-12-07 18:07:16.037396000,7.62939599609375,-0.4853495677947997,-0.1745177779942751,0.6070481212060899
2024-12-07 18:07:16.047370000,7.639369873046875,-0.5369347936034202,-0.0801227535068988,0.6153050043545663
2024-12-07 18:07:16.057344000,7.649343994140625,-0.6703069067388773,0.0464922865837812,0.6340684492744505
2024-12-07 18:07:16.067318000,7.659318115234375,-0.8384627484858036,0.296727861124277,0.7967563810043037
2024-12-07 18:07:16.077292000,7.6692919921875,-1.0422317554056644,0.2710474764227867,0.8101177476849406
2024-12-07 18:07:16.087266000,7.67926611328125,-0.9730150113165378,0.1427063431918621,0.9878198548037558
2024-12-07 18:07:16.097240000,7.689239990234375,-0.8349170387029647,-0.0708341161578893,1.0847346800923348
2024-12-07 18:07:16.107214000,7.699214111328125,-0.7037269457817077,-0.2078571530163288,1.115726615205407
2024-12-07 18:07:16.117188000,7.70918798828125,-0.552384876191616,-0.1241442660629749,1.1498812521331012
2024-12-07 18:07:16.127161900,7.719161865234375,-0.5766834511458874,0.034992987447977,1.1220208199787884
2024-12-07 18:07:16.137135900,7.729135986328125,-0.7366928113162517,0.2073182238340377,1.1083896233808248
2024-12-07 18:07:16.147110000,7.73910986328125,-0.939996538811922,0.2702969503164291,1.139780786944553
2024-12-07 18:07:16.157084000,7.749083984375,-1.0529109703302382,0.2159896060675382,1.2490592731133103
2024-12-07 18:07:16.167058000,7.759057861328125,-1.2293547479510307,0.4826268648326396,1.3645612369067963
2024-12-07 18:07:16.177032000,7.769031982421875,-1.3350935887515545,0.4981190329968929,1.5242619695194064
2024-12-07 18:07:16.187006000,7.779005859375,-1.270883859169483,0.5074392345279455,1.737017123710364
2024-12-07 18:07:16.196980000,7.78897998046875,-1.1227648432791233,0.5529542005121708,1.9290201433822511
2024-12-07 18:07:16.206953000,7.798952880859375,-0.9720388597607612,0.606149199604988,2.056100170636177
2024-12-07 18:07:16.216927000,7.808927001953125,-0.8472644791007041,0.5979454348832368,2.093472308305651
2024-12-07 18:07:16.226901000,7.81890087890625,-0.7161445288062095,0.6970961294651031,2.12072695658654
2024-12-07 18:07:16.236875000,7.828875,-0.5557657508015632,0.7923924867063761,2.150326706688851
2024-12-07 18:07:16.246849000,7.83884912109375,-0.4110124119520187,0.8992430881410837,2.128229002779722
2024-12-07 18:07:16.256823000,7.848822998046875,-0.4157938010096549,1.148425938758254,2.1030558369480072
2024-12-07 18:07:16.266797000,7.858797119140625,-0.500196423792839,1.4509955116480588,2.0683710386663674
2024-12-07 18:07:16.276771000,7.86877099609375,-0.7462567584753036,1.7339824321895836,1.71032273966074
2024-12-07 18:07:16.286745000,7.8787451171875,-1.1372463730961084,1.8489087880522013,1.1398290830656883
2024-12-07 18:07:16.296719000,7.888718994140625,-1.4649568169832228,1.749791411218047,0.462314436905086
2024-12-07 18:07:16.306693000,7.898693115234375,-1.6868723059684037,1.4970295330703258,-0.258665987624973
2024-12-07 18:07:16.316667100,7.908667236328125,-1.7141805841326712,1.16176823541224,-0.7679483658015728
2024-12-07 18:07:16.326641200,7.91864111328125,-1.3804916503578424,0.7769879968255757,-1.0825713645786046
2024-12-07 18:07:16.339108900,7.93110888671875,-0.7650894692391157,0.4029787431001663,-1.283486151111126
2024-12-07 18:07:16.349083000,7.941082763671875,-0.3858608734302222,-0.0552940171986818,-1.327068979988992
2024-12-07 18:07:16.359057000,7.951056884765625,-0.7173112344980239,-0.555456538721919,-1.2935428502231836
2024-12-07 18:07:16.369031000,7.961031005859375,-1.3207704643666744,-0.8867699755370616,-1.2500944613799452
2024-12-07 18:07:16.379005000,7.9710048828125,-1.9559809232831,-0.7409644972860813,-1.1245955658376217
2024-12-07 18:07:16.388979000,7.98097900390625,-2.615240366306901,-0.3067103259563445,-1.3042501221984624
2024-12-07 18:07:16.398953000,7.990952880859375,-2.7941712845683098,0.0960088894248008,-1.9654221208453173
2024-12-07 18:07:16.408926000,8.000926025390624,-1.7478687725923954,0.350861602371931,-2.5025457150191066
2024-12-07 18:07:16.418900000,8.01089990234375,-0.1658253529727459,0.5357610736489296,-2.82205239418447
2024-12-07 18:07:16.428874000,8.0208740234375,1.737507245314866,0.8776081794381141,-2.901921465191245
2024-12-07 18:07:16.438848300,8.03084814453125,2.7688375213474035,1.3655974480867386,-2.573395028746128
2024-12-07 18:07:16.448822300,8.040822265625,2.6301778231978417,2.071855373650789,-2.0243105092741547
2024-12-07 18:07:16.458796300,8.05079638671875,2.078937148605287,3.0399346821308133,-1.232807518753409
2024-12-07 18:07:16.468770300,8.060770263671875,1.3064710131183266,3.5108237628966568,-0.6454103658914566
2024-12-07 18:07:16.478744300,8.070744384765625,0.9500131981745362,3.370477719095349,-0.1817526976838707
2024-12-07 18:07:16.488718300,8.08071826171875,1.010344332757592,2.78650469546318,0.4779977437272668
2024-12-07 18:07:16.498692400,8.0906923828125,0.5320733250468969,1.8289239846438168,0.6830139742292464
2024-12-07 18:07:16.508666400,8.100666259765624,0.3406491281762719,1.0240618924647569,0.2963116815388202
2024-12-07 18:07:16.518640400,8.110640380859374,0.8950362841010093,0.2326636774927377,0.0431081971034407
2024-12-07 18:07:16.528614400,8.120614501953124,1.475270705726743,-0.4473942234098911,-0.2735261414960027
2024-12-07 18:07:16.538588200,8.130588134765626,1.6614248532399534,-0.8193897992253303,-0.2406597908131778
2024-12-07 18:07:16.548562200,8.140562255859376,2.003663296434284,-1.098316630721092,-0.2126296281151473
2024-12-07 18:07:16.558536200,8.1505361328125,1.927435796800256,-1.2915531377106904,-0.4143531006820499
2024-12-07 18:07:16.568510200,8.16051025390625,1.7312763881012796,-1.4977689532607792,-0.5902846909970044
2024-12-07 18:07:16.578484200,8.170484130859375,1.7817662198886275,-1.512823899051547,-0.449434789326787
2024-12-07 18:07:16.588458200,8.180458251953125,1.4270675235718489,-1.4224720124751329,-0.4712026767596602
2024-12-07 18:07:16.598432300,8.190432373046875,1.023476201531291,-1.2686562462478876,-0.5507458768129349
2024-12-07 18:07:16.608405200,8.2004052734375,0.951662134425342,-1.1810662256002424,-0.8389657295718789
2024-12-07 18:07:16.618379300,8.210379150390626,0.8900365761175751,-1.1794435928344726,-1.171442803338915
2024-12-07 18:07:16.628353300,8.220353271484376,0.904143719664216,-1.1723901671916246,-1.553715881410241
2024-12-07 18:07:16.638327300,8.230327392578126,0.9608598786205051,-1.2818307851195334,-1.887817633769661
2024-12-07 18:07:16.648301300,8.24030126953125,0.9362707962870598,-1.5314502735882998,-2.027509159184992
2024-12-07 18:07:16.658274300,8.2502744140625,0.7818544338181614,-1.9117051437050103,-2.2806787413507696
2024-12-07 18:07:16.668248300,8.260248291015625,0.5677049026593566,-2.409578092986345,-2.534797294804453
2024-12-07 18:07:16.678222300,8.270222412109375,0.2800005982071161,-2.85454187437892,-2.7733877319976687
2024-12-07 18:07:16.688196400,8.2801962890625,0.091446696075797,-3.181545046779513,-3.0152023919343947
2024-12-07 18:07:16.698170400,8.29017041015625,-0.2645123755656182,-3.000878683027625,-3.0834207726359364
2024-12-07 18:07:16.708144400,8.300144287109376,-0.8377356032550335,-2.312251691222191,-2.64605168415606
2024-12-07 18:07:16.718118100,8.3101181640625,-0.9413368475049734,-1.629631246355176,-1.7414005994915962
2024-12-07 18:07:16.728092200,8.320092041015625,-0.8410643092863261,-0.9546049098789692,-0.5315197828173637
2024-12-07 18:07:16.738066200,8.330066162109375,-0.9933626566879452,-0.2643886030554771,0.8139144365541636
2024-12-07 18:07:16.748040200,8.340040283203125,-1.112090742921084,0.320671046769619,2.0760116165474054
2024-12-07 18:07:16.758014200,8.35001416015625,-1.166390049993992,0.6631453445464373,3.083366412100196
2024-12-07 18:07:16.767988200,8.35998828125,-1.4491703420475124,0.9119903415113688,3.809861654528975
2024-12-07 18:07:16.777962200,8.369962158203125,-1.8500743247002365,0.9466630109637976,4.050958813846111
2024-12-07 18:07:16.787936300,8.379936279296874,-2.149880862617493,0.7574538597941398,3.998021296645701
2024-12-07 18:07:16.797910300,8.38991015625,-2.1035082568906245,0.4940694653451442,3.4898277366191146
2024-12-07 18:07:16.807884300,8.39988427734375,-1.6308166567474602,0.2902928596407175,2.464622227077186
2024-12-07 18:07:16.817858300,8.4098583984375,-1.1393038901478052,0.0564542931497097,1.3008765541121363
2024-12-07 18:07:16.827832300,8.419832275390625,-0.9215557499751448,-0.2340688681155443,0.3395749230735004
2024-12-07 18:07:16.837806300,8.429806396484375,-0.799278154566884,-0.5303448938190937,-0.3336008170999586
2024-12-07 18:07:16.847780400,8.4397802734375,-0.5494999684050679,-0.6936509574472903,-0.5269385925069451
2024-12-07 18:07:16.857753300,8.44975341796875,-0.1394230837374925,-0.6781050132691859,-0.334258404225856
2024-12-07 18:07:16.867727400,8.459727294921874,0.1861936027407646,-0.3011912702739238,0.0815283825211226
2024-12-07 18:07:16.877701400,8.469701416015624,0.2511627723880112,0.6904816797614097,0.3850273452155291
2024-12-07 18:07:16.887675400,8.47967529296875,0.0963999345690011,2.125306977853179,0.4181337882645428
2024-12-07 18:07:16.897649400,8.4896494140625,-0.0645100277028977,3.608037936457991,0.1567852835573256
2024-12-07 18:07:16.907623200,8.499623046875,-0.1416501121371984,4.481750862023234,-0.3482476204812526
2024-12-07 18:07:16.917597200,8.50959716796875,-0.2489073946766555,4.730609887513518,-1.0103915329001842
2024-12-07 18:07:16.927571200,8.5195712890625,-0.1753781942158937,3.737306705927848,-1.8700095898784697
2024-12-07 18:07:16.937545200,8.529545166015625,-0.1623527084261178,1.789553512763977,-2.4759061298966407
2024-12-07 18:07:16.947519200,8.539519287109375,-0.2110996420688927,-0.1634364120095968,-2.487532270282507
2024-12-07 18:07:16.957493200,8.5494931640625,-0.1196351180754601,-1.4164227954387665,-2.308464866159856
2024-12-07 18:07:16.967467300,8.55946728515625,0.1047523139812052,-2.143034357723593,-2.295599100976437
2024-12-07 18:07:16.977441300,8.569441162109374,0.0809032363601028,-2.3963269817471504,-2.373154780474305
2024-12-07 18:07:16.987415300,8.579415283203126,-0.0833240337662398,-2.248942125350237,-2.542434073293209
2024-12-07 18:07:16.997389300,8.589389404296876,-0.3227233031243086,-1.8578098873883484,-2.826927306744456
2024-12-07 18:07:17.007363300,8.59936328125,-0.4225333383977413,-1.4121201298087835,-2.925592263635993
2024-12-07 18:07:17.017337300,8.60933740234375,-0.1283792732842266,-0.8069833221167325,-2.715823724040389
2024-12-07 18:07:17.027311400,8.619311279296875,0.4671924182049929,-0.1258580842435359,-2.1000266983851787
2024-12-07 18:07:17.037285400,8.629285400390625,1.1419342386513949,0.4116372658520936,-1.1915412231896072
2024-12-07 18:07:17.047259400,8.63925927734375,1.704478251416236,0.6061012688100338,-0.0167368344631046
2024-12-07 18:07:17.057233400,8.6492333984375,1.9711001664817327,0.6149538528293371,1.0492446298424154
2024-12-07 18:07:17.067206400,8.659206298828124,2.0279754615224896,0.5573609110385179,1.8329226988911629
2024-12-07 18:07:17.077180400,8.669180419921876,1.9994757816165685,0.4001841439455747,2.403496142724156
2024-12-07 18:07:17.087154400,8.679154541015626,1.748960951743275,0.1226005437523126,2.5625530244752763
2024-12-07 18:07:17.097128400,8.68912841796875,1.298334760674834,-0.2077566152513027,2.199912429243326
2024-12-07 18:07:17.107102500,8.6991025390625,0.8645265795469284,-0.2895329811841249,1.4829752887547016
2024-12-07 18:07:17.117076500,8.709076416015625,0.6398259898878633,-0.2300958728313445,0.4615136419162154
2024-12-07 18:07:17.127050500,8.719050537109375,0.6555765167273581,-0.0573784222573041,-0.5003342978935689
2024-12-07 18:07:17.137024500,8.7290244140625,0.6516600739359856,0.1086474217236042,-1.1492532564278692
2024-12-07 18:07:17.146998500,8.73899853515625,0.5084178703017532,0.1389168877810239,-1.6199726066499949
2024-12-07 18:07:17.156972300,8.74897216796875,0.3403561365790665,0.1614011067897081,-1.87986974350512
2024-12-07 18:07:17.166946300,8.7589462890625,0.1516349150568246,0.1968354082643985,-1.923037561841309
2024-12-07 18:07:17.176920300,8.76892041015625,0.1818839228481054,0.3071323507606983,-1.8340481957897543
2024-12-07 18:07:17.186894300,8.778894287109376,0.260110487344861,0.3584259001463651,-1.6779241526201367
2024-12-07 18:07:17.196868400,8.788868408203125,0.3111141138732433,0.2952560350060463,-1.4273073236770928
2024-12-07 18:07:17.206842400,8.79884228515625,0.4442454039901494,0.2188794822901487,-1.1261324930813164
2024-12-07 18:07:17.216816400,8.80881640625,0.6188372701339423,0.1226835458606481,-0.673631813377887
2024-12-07 18:07:17.226790400,8.818790283203125,0.7200735388182103,0.1150526125907897,-0.2569104491945356
2024-12-07 18:07:17.236764200,8.82876416015625,0.788236024614051,0.0903214914381504,0.1256815221002325
2024-12-07 18:07:17.246738200,8.83873828125,0.9159773653209208,0.0811877523899078,0.3218852813975885
2024-12-07 18:07:17.256712200,8.848712158203124,0.905973273178935,0.0016068506747484,0.4836751683091744
2024-12-07 18:07:17.266686200,8.858686279296874,1.0299755734879523,-0.0251893863141536,0.7766779079630971
2024-12-07 18:07:17.276659200,8.8686591796875,1.078492059375718,0.0409036727964878,0.87555504630059
2024-12-07 18:07:17.286633200,8.87863330078125,0.901894479432702,-0.0422884051531553,0.7896168845131993
2024-12-07 18:07:17.296607200,8.888607177734375,0.7155680440925062,-0.1655015278458595,0.6983297629132866
2024-12-07 18:07:17.306581200,8.898581298828125,0.5605038852393627,-0.2929395747572183,0.5083898132510483
2024-12-07 18:07:17.316555300,8.90855517578125,0.5409726708173751,-0.4731044187277555,0.1682143670011311
2024-12-07 18:07:17.326529300,8.918529296875,0.4894412210226058,-0.4315577718526124,-0.1042042516443878
2024-12-07 18:07:17.336503300,8.92850341796875,0.4751630317579954,-0.3014806086093187,-0.1118638630194589
2024-12-07 18:07:17.346477300,8.938477294921874,0.3986749814916402,-0.1484995396405458,-0.1633508160853758
2024-12-07 18:07:17.356451300,8.948451416015626,0.2478783438898623,-0.0612701689988374,-0.1459878490805626
2024-12-07 18:07:17.366425300,8.95842529296875,-0.0008439765434712,0.0476432101845741,-0.1972906412186101
2024-12-07 18:07:17.376399400,8.9683994140625,-0.2083768660414963,0.1482458571404218,-0.0976317048536613
2024-12-07 18:07:17.386373400,8.978373291015625,-0.1667956593096256,0.2042529910445213,0.1071405608246102
2024-12-07 18:07:17.396347400,8.988347412109375,-0.1152857637595385,0.1419078862905502,0.2581761582814157
2024-12-07 18:07:17.406321400,8.9983212890625,-0.1902092681229114,-0.0537000260055065,0.4212243016257881
2024-12-07 18:07:17.416295200,9.008295166015625,-0.2769283146223053,0.043023733690381,0.4863873864099383
2024-12-07 18:07:17.426269200,9.018269287109376,-0.2883130109351128,0.1232137072145938,0.6948879518963396
2024-12-07 18:07:17.436243000,9.028242919921874,-0.3951602513689548,0.2600222245395183,0.7735606527253985
2024-12-07 18:07:17.446217000,9.038217041015624,-0.5970306581258773,0.2892524106770753,0.65782502630651
2024-12-07 18:07:17.456191000,9.04819091796875,-0.7378243726294488,0.1871826137781143,0.540199056096375
2024-12-07 18:07:17.466165000,9.0581650390625,-0.948228945106268,0.0540185904353857,0.4148168092036619
2024-12-07 18:07:17.476139000,9.068138916015624,-1.1083517025232317,-0.0717284346491098,0.3885723243460059
2024-12-07 18:07:17.486112000,9.078112060546877,-1.1137392407804727,-0.3649813131392002,0.4157183246206491
2024-12-07 18:07:17.496086000,9.0880859375,-1.1466735421329737,-0.4621235905081033,0.3100966073937714
2024-12-07 18:07:17.506060000,9.09806005859375,-1.1305986056447028,-0.6170797589421272,0.3887666413417086
2024-12-07 18:07:17.516034000,9.108033935546874,-0.9869581964731216,-0.5248270071804523,0.5944128403102978
2024-12-07 18:07:17.526008000,9.118008056640624,-0.8291875551402569,-0.3873246623724699,0.7788628507867456
2024-12-07 18:07:17.535982000,9.127982177734374,-0.5819020991096273,-0.1227075112581253,1.0502356136411428
2024-12-07 18:07:17.545956000,9.1379560546875,-0.3539402791649103,0.1247626902222633,1.198703735230118
2024-12-07 18:07:17.555930000,9.14793017578125,-0.1503214943706989,0.2628659235328435,1.3222953358463942
2024-12-07 18:07:17.565904100,9.157904052734375,0.0327010405858978,0.3423988944530486,1.4023171131968497
2024-12-07 18:07:17.575878100,9.167878173828123,0.0859212289188988,0.3031377281665802,1.3509583896204829
2024-12-07 18:07:17.585852200,9.17785205078125,0.0219587520961649,0.1952010850608348,1.158288941929117
2024-12-07 18:07:17.595826200,9.187826171875,-0.1088128231520764,0.043758477705717,0.9536034777514636
2024-12-07 18:07:17.605800200,9.19780029296875,-0.2551549107640981,-0.0830757580935955,0.7860992317810654
2024-12-07 18:07:17.615774200,9.207774169921874,-0.1679009719367138,-0.2042652660042047,0.6305553265869617
2024-12-07 18:07:17.625748200,9.217748291015624,-0.0572486583977937,-0.2678869665652513,0.5539642178049311
2024-12-07 18:07:17.635722200,9.22772216796875,-0.1182067109738476,-0.2083095729589462,0.549362094304338
2024-12-07 18:07:17.645696300,9.2376962890625,-0.2817009906505234,-0.2486018358588218,0.5302252494947984
2024-12-07 18:07:17.655670300,9.247670166015626,-0.5953478196054697,0.0675491031378507,0.4771430265940725
2024-12-07 18:07:17.665644300,9.257644287109375,-0.8365846796542405,0.0354226110368967,0.3833953600995242
2024-12-07 18:07:17.675618000,9.2676181640625,-0.9321347193956374,0.0880704976409673,0.5345793165184557
2024-12-07 18:07:17.685591000,9.277591064453125,-0.989979005599022,0.1915320411592722,0.666164253976196
2024-12-07 18:07:17.695565000,9.28756494140625,-0.8224217142671346,0.1454068343222141,0.8295998622681945
2024-12-07 18:07:17.705539000,9.2975390625,-0.5327870262742043,0.4571194986104965,1.0513619873225688
2024-12-07 18:07:17.715513000,9.30751318359375,-0.4044961619257927,0.5318406853348017,1.1524737528443336
2024-12-07 18:07:17.725487000,9.317487060546876,-0.3310527400523424,0.4410317026406526,1.3326442959032951
2024-12-07 18:07:17.735461000,9.327461181640626,-0.3002718356077559,0.3693231417357921,1.4842581681720912
2024-12-07 18:07:17.745435000,9.337434814453124,-0.2559568747967481,0.3259025176823139,1.6325088476181029
2024-12-07 18:07:17.755409000,9.347408935546875,-0.2785503993988037,0.3182014417856931,1.715428830628097
2024-12-07 18:07:17.765383000,9.3573828125,-0.4175385988503694,0.6594926672577858,1.9322678931318225
2024-12-07 18:07:17.775357000,9.36735693359375,-0.5045704010933637,0.973820482480526,2.0310914015859365
2024-12-07 18:07:17.785331000,9.3773310546875,-0.4515746874323114,1.25421680200696,1.9613065022200344
2024-12-07 18:07:17.795305000,9.387304931640625,-0.5168149291059002,1.5789268950343132,1.5899423561759292
2024-12-07 18:07:17.805279000,9.397279052734374,-0.7440706466078758,1.6222107409656046,0.9351509984768926
2024-12-07 18:07:17.815253000,9.4072529296875,-1.0326911891222,1.412363290914893,0.1817620865667238
2024-12-07 18:07:17.825227000,9.41722705078125,-1.11365097797513,1.1348702916145323,-0.4567142788104713
2024-12-07 18:07:17.835201000,9.427200927734376,-1.059547704930976,0.7677198177427053,-0.9464898463539778
2024-12-07 18:07:17.845175000,9.437175048828124,-1.0529740986943243,0.4257160600870847,-1.3517983475759623
2024-12-07 18:07:17.855149000,9.447149169921875,-1.120352959831804,0.1946229929119348,-1.6598716324485838
2024-12-07 18:07:17.865123000,9.457123046875,-0.9539700460415332,-0.0296598097264766,-1.7799828436031937
2024-12-07 18:07:17.875097000,9.46709716796875,-0.6107832891464233,-0.2337701774299144,-1.9033602169468995
2024-12-07 18:07:17.885071000,9.477071044921876,-0.4942962598383426,-0.2616226454734802,-2.138825361726433
2024-12-07 18:07:17.895044000,9.487044189453124,-0.4361123664170503,-0.0661836600035429,-2.349547694915533
2024-12-07 18:07:17.905018000,9.49701806640625,-0.2609048525929451,0.1764268264859914,-2.451004620613157
2024-12-07 18:07:17.914992000,9.5069921875,-0.0996796868920326,0.474558124667406,-2.422174393578618
2024-12-07 18:07:17.924966100,9.516966064453126,-0.0992892262697219,0.868673177832365,-2.429570641309768
2024-12-07 18:07:17.934940200,9.526940185546875,-0.0111854108810424,1.433408417031169,-2.3537331639066337
2024-12-07 18:07:17.944914200,9.5369140625,0.1346530928567051,2.016122380512953,-1.964649382907152
2024-12-07 18:07:17.954888200,9.54688818359375,0.2174292834818363,2.539157243579626,-1.56186762368381
2024-12-07 18:07:17.964862200,9.5568623046875,0.3194856363773345,2.882558593073487,-1.0707730094309895
2024-12-07 18:07:17.974836200,9.566836181640625,0.4864019994571805,2.797615872064233,-0.5954765605516731
2024-12-07 18:07:17.984810200,9.576810302734376,0.6221461024209857,2.2212205902099607,-0.3863905963927507
2024-12-07 18:07:17.994784000,9.586783935546874,0.8891350972332059,1.5814251415908336,-0.1799456482619047
2024-12-07 18:07:18.004758000,9.596758056640626,1.2994251862600446,0.9598620997548104,-0.1023940604172646
2024-12-07 18:07:18.014732000,9.60673193359375,1.6543915936022997,0.4268284052431583,-0.2002281194426119
2024-12-07 18:07:18.024706000,9.6167060546875,2.2150410247921943,0.1078238303810358,-0.2747599210746586
2024-12-07 18:07:18.034680000,9.62668017578125,2.276125900352001,0.0719096364349126,-0.3115432990707457
2024-12-07 18:07:18.044654000,9.636654052734375,1.7964321663618086,-0.0350987859100103,-0.3865248902969062
2024-12-07 18:07:18.054628000,9.646628173828123,1.3744430178433655,-0.4224024054944515,-0.7140133619964122
2024-12-07 18:07:18.064602000,9.65660205078125,1.1831234503909944,-0.767944274148345,-0.9799503635376692
2024-12-07 18:07:18.074576100,9.666576171875,1.268942661973834,-1.063119060611725,-1.2412195193983613
2024-12-07 18:07:18.084550100,9.676550048828124,1.4171896881580353,-1.2805828308850526,-1.4198570076711474
2024-12-07 18:07:18.094523000,9.68652294921875,1.1552101920709013,-1.3846107761144637,-1.4793819404378532
2024-12-07 18:07:18.104497000,9.696496826171876,0.6816261731326579,-1.4093448198765517,-1.3357315943941472
2024-12-07 18:07:18.114471000,9.706470947265624,0.1692863070815801,-1.42219728718698,-1.148579814145714
2024-12-07 18:07:18.124445000,9.71644482421875,-0.0620376462399959,-1.4638234290391203,-1.0572088136546314
2024-12-07 18:07:18.134419000,9.7264189453125,-0.0950283539548516,-1.536460795226693,-1.1162656905181705
2024-12-07 18:07:18.144393000,9.73639306640625,0.0055601183451712,-1.6302584383428096,-1.2052651395723224
2024-12-07 18:07:18.154367000,9.746366943359376,0.2514848439492285,-1.8382178826898337,-1.2721426270589231
2024-12-07 18:07:18.164341000,9.756341064453125,0.6209950326897203,-2.067384365716576,-1.485596869429946
2024-12-07 18:07:18.174315000,9.76631494140625,0.8865651006147265,-2.2550223220467567,-2.00891595626548
2024-12-07 18:07:18.184289000,9.7762890625,0.7621691978782414,-2.3974065936774016,-2.377136105195433
2024-12-07 18:07:18.194263000,9.786262939453126,0.5014034614950418,-2.4518793576210736,-2.42496899273321
2024-12-07 18:07:18.204237000,9.796237060546876,0.1964608758635818,-2.3906419218480583,-2.3001279765777287
2024-12-07 18:07:18.214211000,9.806211181640624,-0.1304562256887555,-2.1517565933614966,-1.8001916650258003
2024-12-07 18:07:18.224185000,9.81618505859375,-0.288421220549941,-1.8162749309509991,-1.003340445344895
2024-12-07 18:07:18.234159000,9.8261591796875,-0.3374734207496047,-1.5114637166142464,-0.1465646260552108
2024-12-07 18:07:18.244133000,9.836133056640625,-0.5062402340017259,-1.2418594247370958,0.7362757549479604
2024-12-07 18:07:18.254107000,9.84610693359375,-0.5284501661136746,-1.0741659398049117,1.522506065762788
2024-12-07 18:07:18.264081000,9.856080810546874,-0.4910848965764045,-0.8850456359624862,2.301974773488193
2024-12-07 18:07:18.274055000,9.866054931640624,-0.6232435422688722,-0.5901894139289856,2.976433100818097
2024-12-07 18:07:18.284028200,9.876028076171876,-0.8707394627124071,-0.3319581644594669,3.378404128180444
2024-12-07 18:07:18.294002200,9.886002197265626,-1.3084338376238942,-0.0273000948578119,3.730169109132886
2024-12-07 18:07:18.303976000,9.895975830078124,-1.6364704447254537,0.1298299104839563,3.940270826205611
2024-12-07 18:07:18.313950000,9.905949951171875,-1.833399668753147,0.2481213588654995,4.067096586437523
2024-12-07 18:07:18.323924000,9.915924072265623,-2.006684105560184,0.4286684801518917,3.9242905822634695
2024-12-07 18:07:18.333898000,9.92589794921875,-2.201318204388022,0.6022802492171525,3.3181185863047835
2024-12-07 18:07:18.343872000,9.9358720703125,-2.2231750852786005,0.6606868454784155,2.4380570223651823
2024-12-07 18:07:18.353846000,9.945845947265624,-2.1275398514717816,0.6759253311425447,1.580366864709556
2024-12-07 18:07:18.363820000,9.955820068359374,-2.1734914553076026,0.92297292329669,1.1996218729883432
2024-12-07 18:07:18.373794000,9.9657939453125,-2.5309955644339324,1.229158348596096,1.331938631851971
2024-12-07 18:07:18.383768000,9.97576806640625,-2.8433532486274835,1.2640747636765242,1.8409585597001017
2024-12-07 18:07:18.393742000,9.9857421875,-2.9504703920438886,1.091176111316681,2.4846178441405296
2024-12-07 18:07:18.403716000,9.995716064453124,-2.766585358506441,0.9530471590429545,2.890809119546413
2024-12-07 18:07:18.413690000,10.005690185546875,-2.206449722057581,0.8350725215256214,2.939720742231607
2024-12-07 18:07:18.423664000,10.0156640625,-1.343926883548498,0.7152654078841209,2.5192969433337447
2024-12-07 18:07:18.433638400,10.025638427734377,-0.3208468417279422,0.4572188673317432,1.5222725492678582
2024-12-07 18:07:18.443612400,10.0356123046875,0.4311522597916424,0.1804810703128576,0.2402599778406322
2024-12-07 18:07:18.453586400,10.04558642578125,0.747235978771001,-0.042438042756915,-0.7845712915614247
2024-12-07 18:07:18.463560400,10.055560546875,0.8406360008716582,-0.2287865437984466,-1.5011976125352084
2024-12-07 18:07:18.473533400,10.065533447265626,0.7482203136332333,-0.3650724985539913,-1.8195706114955248
2024-12-07 18:07:18.483507500,10.075507568359376,0.3695103348709642,-0.3644260173439979,-1.8283384398408231
2024-12-07 18:07:18.493481500,10.0854814453125,0.0673544573485851,0.0515367104917764,-1.4352961304739116
2024-12-07 18:07:18.503455500,10.09545556640625,0.068122080720216,0.7098030508249997,-0.6283236220121383
2024-12-07 18:07:18.513429500,10.105429443359377,0.3263220582686365,1.144412026941776,-0.0499213842496275
2024-12-07 18:07:18.523403500,10.115403564453125,0.6827361802011728,1.196869359409809,0.0334041838865727
2024-12-07 18:07:18.533377500,10.12537744140625,0.894236658155918,0.7498217574805021,-0.3683563425302505
2024-12-07 18:07:18.543351300,10.135351318359374,0.4977906778253614,-0.0972626888781785,-1.0556292893782258
2024-12-07 18:07:18.553325300,10.1453251953125,-0.0590016395449638,-0.8167652959406375,-1.979852358866483
2024-12-07 18:07:18.563299300,10.15529931640625,-0.421135162037611,-1.2770523186713456,-2.914515866087377
2024-12-07 18:07:18.573273300,10.1652734375,-0.6124556062728166,-1.4666682970762253,-3.6839638227969407
2024-12-07 18:07:18.583247400,10.175247314453124,-0.6137649353057145,-1.4314596210509538,-4.1561838599056005
2024-12-07 18:07:18.593221400,10.185221435546875,-0.2884218050718307,-1.1643155818074942,-4.171793809230626
2024-12-07 18:07:18.603195400,10.1951953125,0.4214385288983583,-0.7322662270456552,-3.710265262006223
2024-12-07 18:07:18.613169400,10.20516943359375,1.2544817365534602,-0.2134650560259819,-2.8464976841330527
2024-12-07 18:07:18.623143400,10.215143310546877,1.9826305914081632,0.2251169153749942,-1.8000651160366832
2024-12-07 18:07:18.633117400,10.225117431640625,2.425080198022723,0.5284171406269074,-0.7231967854052782
2024-12-07 18:07:18.643091500,10.235091552734374,2.775627912139893,0.6760474962174892,0.2795852954044938
2024-12-07 18:07:18.653065500,10.2450654296875,3.065638447707891,0.7077811896085738,1.14634233741723
2024-12-07 18:07:18.663038500,10.25503857421875,3.155399967175722,0.6651087535738944,1.8187191092327235
2024-12-07 18:07:18.673012500,10.265012451171875,3.056967065474391,0.4829050972521305,2.1539149404391646
2024-12-07 18:07:18.682986500,10.274986572265624,2.6748352955698964,0.3688578623116016,2.240755604024231
2024-12-07 18:07:18.692960500,10.28496044921875,2.1245921075820924,0.2918015106379986,2.0329161327950653
2024-12-07 18:07:18.702934500,10.2949345703125,1.500888692716509,0.2732645679503679,1.353321027098596
2024-12-07 18:07:18.712908500,10.304908447265625,0.8520251176312565,0.3057201458752155,0.371338061754778
2024-12-07 18:07:18.722882600,10.314882568359376,0.3589002396598458,0.3892833952248096,-0.5980112666610629
2024-12-07 18:07:18.732856600,10.324856689453124,0.1035597431957721,0.491871078518033,-1.4501559920839964
2024-12-07 18:07:18.742830600,10.33483056640625,0.0513414801806211,0.4273036215394735,-2.095786868858337
2024-12-07 18:07:18.752804600,10.3448046875,-0.1781457592330873,0.2005535520046949,-2.5331542037725447
2024-12-07 18:07:18.762778600,10.354778564453126,-0.3307506883658468,0.0152145202666521,-2.6966543286681173
2024-12-07 18:07:18.772752600,10.364752685546875,-0.3624421500504016,-0.1284995386630296,-2.5842782418102024
2024-12-07 18:07:18.782726400,10.374726318359375,-0.260131968524307,-0.2648819395303726,-2.1159518511392177
2024-12-07 18:07:18.792700400,10.384700439453123,0.0901899740129709,-0.3329237946212292,-1.4770917836740611
2024-12-07 18:07:18.802674400,10.39467431640625,0.5211123705714941,-0.3194558257609605,-0.6954142407927661
2024-12-07 18:07:18.812648400,10.4046484375,0.9909235929727552,-0.2157248176515102,0.1997269649874418
2024-12-07 18:07:18.822622500,10.41462255859375,1.238008448397368,-0.1049246018081903,1.0143246345654129
2024-12-07 18:07:18.832596500,10.424596435546874,1.2912737362474205,-0.0054319619208574,1.5143126763045789
2024-12-07 18:07:18.842569500,10.434569580078126,1.2690635118745266,0.011876315754652,1.8427365291580555
2024-12-07 18:07:18.852543200,10.444543212890624,1.3086065638422966,0.0122509942859411,2.147414326373488
2024-12-07 18:07:18.862517200,10.454517333984375,1.2136866386979817,-0.0808785403102636,2.1551361527971924
2024-12-07 18:07:18.872491300,10.4644912109375,0.987415877112746,-0.2494499771207571,1.837390784215927
2024-12-07 18:07:18.882465300,10.47446533203125,0.6535679533839225,-0.2980933042585849,1.371698687571287
2024-12-07 18:07:18.892439300,10.484439208984377,0.2157745020121335,-0.2008008047640323,0.8061481864668428
2024-12-07 18:07:18.902413300,10.494413330078125,-0.164512589873746,-0.0994587376177311,0.3251044991724193
2024-12-07 18:07:18.912387300,10.50438720703125,-0.3597434124857187,-0.0568202038526535,0.0404322924250736
2024-12-07 18:07:18.922361300,10.514361328125,-0.4677326625615358,-0.0744289257794618,-0.3158572532797232
2024-12-07 18:07:18.932335400,10.52433544921875,-0.5327958671677857,-0.1328875444889068,-0.5393185469347983
2024-12-07 18:07:18.942309400,10.534309326171876,-0.4704057542283087,-0.0821358468949794,-0.5718363033756614
2024-12-07 18:07:18.952283400,10.544283447265624,-0.3296388546664268,-0.0621346768736839,-0.5361464197047054
2024-12-07 18:07:18.962257400,10.55425732421875,-0.1438075458994135,-0.1081564233362674,-0.3990465547503903
2024-12-07 18:07:18.972231400,10.5642314453125,-0.0841138324370607,-0.0718757341653108,-0.4102577576598152
2024-12-07 18:07:18.982205400,10.574205322265623,-0.1203466273456811,-0.0891717368811368,-0.3899599793121218
2024-12-07 18:07:18.992179500,10.584179443359377,-0.2355359815260395,-0.0640939942479133,-0.3144569214951246
2024-12-07 18:07:19.002153500,10.594153564453125,-0.3875105403333902,0.0521896214425563,-0.2813035888307728
2024-12-07 18:07:19.012127500,10.60412744140625,-0.5163531933456659,0.136658295199275,-0.0831901417208835
2024-12-07 18:07:19.022101500,10.6141015625,-0.6614326954096555,0.0465022234559059,-0.0594453738576266
2024-12-07 18:07:19.032074500,10.624074462890626,-0.7337222710728645,-0.1437000304043293,-0.0746510349643882
2024-12-07 18:07:19.042048500,10.634048583984375,-0.6477969687670468,-0.2775251480042934,0.0455924471006495
2024-12-07 18:07:19.052022500,10.6440224609375,-0.514381601011753,-0.2520399936139583,0.2793358324217609
2024-12-07 18:07:19.061996500,10.65399658203125,-0.4403717774271964,-0.1771264991879463,0.5767173899481073
2024-12-07 18:07:19.071970600,10.663970458984377,-0.5100999781697988,-0.2012637461006641,0.842630097298324
2024-12-07 18:07:19.081944600,10.673944580078125,-0.8009019563764334,-0.1389151342153549,1.1163942853339015
2024-12-07 18:07:19.091918600,10.683918701171876,-0.94190266469419,0.092804540425539,1.49677453539595
2024-12-07 18:07:19.101892400,10.693892333984374,-0.8064800487697124,0.4142296204328536,1.944172412067652
2024-12-07 18:07:19.111866400,10.703866455078124,-0.5947060145705938,0.5883586913704871,2.30480225199908
2024-12-07 18:07:19.121840400,10.71384033203125,-0.3856049989730119,0.5809627359002828,2.5401576527938245
2024-12-07 18:07:19.131814400,10.723814453125,-0.1609539475440979,0.5122404973298311,2.655990602107346
2024-12-07 18:07:19.141788400,10.733788330078124,0.0131347913831472,0.3852145383507013,2.587996093289554
2024-12-07 18:07:19.151762400,10.743762451171875,-0.1069634141594171,0.2741740840107202,2.341888704594969
2024-12-07 18:07:19.161736400,10.753736328125,-0.5292582676261663,0.2834101143896579,2.0134151673808693
2024-12-07 18:07:19.171710500,10.76371044921875,-1.0268588297069072,0.2582020233750343,1.661615699636936
2024-12-07 18:07:19.181684500,10.7736845703125,-1.4340519756317138,0.1278986501604318,1.3838180183015762
2024-12-07 18:07:19.191658500,10.783658447265625,-1.7721353449732065,0.2348977201551199,1.030404539489746
2024-12-07 18:07:19.201632500,10.793632568359374,-1.8020155194520948,0.2733516617119312,0.9482613860711456
2024-12-07 18:07:19.211605500,10.80360546875,-1.4901526330381631,0.4256295508474111,1.2079882809258995
2024-12-07 18:07:19.221579500,10.81357958984375,-0.7783107698619365,0.3383960885524749,1.4885696016304195
2024-12-07 18:07:19.231553300,10.82355322265625,-0.0273585105141624,0.7707108162522316,1.9682237342625857
2024-12-07 18:07:19.241527300,10.83352734375,-0.1757551560358144,1.6808043842315672,2.1304190601699053
2024-12-07 18:07:19.251501300,10.843501220703123,-0.3172410357883199,1.8949825569629668,2.1608942779324947
2024-12-07 18:07:19.261475300,10.853475341796877,-0.3615490006029606,2.264052600720525,2.2669658578187226
2024-12-07 18:07:19.271449300,10.863449462890625,-0.6238952841758728,2.340759992825985,2.0424707276038823
2024-12-07 18:07:19.281423400,10.87342333984375,-1.0204162294387815,2.1005290949493647,1.485046249809861
2024-12-07 18:07:19.291397400,10.8833974609375,-1.3412386673778294,1.650172514602542,0.9441538046218454
2024-12-07 18:07:19.301371400,10.893371337890626,-1.456442671138048,1.0969096865326164,0.3479897001974284
2024-12-07 18:07:19.311345400,10.903345458984376,-1.3825368924498558,0.5408370617389678,-0.2248404365211725
2024-12-07 18:07:19.321319400,10.9133193359375,-1.0732488980252295,0.110570498740673,-0.6844217221353203
2024-12-07 18:07:19.331293400,10.92329345703125,-0.8997855244547128,-0.3350847720474004,-1.0908586428653448
2024-12-07 18:07:19.341267500,10.933267333984375,-0.913955504104495,-0.8255997597813606,-1.385994047166407
2024-12-07 18:07:19.351241500,10.943241455078123,-1.1280851615190506,-1.133656824171543,-1.507361249731481
2024-12-07 18:07:19.361215200,10.95321533203125,-1.2592537732608615,-1.2146452545970678,-1.5888889016002417
2024-12-07 18:07:19.371189200,10.963189208984376,-1.379367468633503,-0.9315086964517832,-1.6997130828410385
2024-12-07 18:07:19.381162500,10.97316259765625,-1.7166472665071486,-0.4065612777620553,-2.142005014675856
2024-12-07 18:07:19.391136500,10.983136474609376,-1.677193061866611,0.0387912106871604,-2.8155335138097404
2024-12-07 18:07:19.401110500,10.993110595703126,-1.0710668047457932,0.406091906684637,-3.177068193626404
2024-12-07 18:07:19.411084300,11.003084228515624,-0.1524088220387697,0.7882721919059753,-3.1157249593913554
2024-12-07 18:07:19.421058300,11.013058349609375,0.7554168010085821,1.2067010175943371,-2.7444275949731467
2024-12-07 18:07:19.431032300,11.0230322265625,1.544472106116265,1.7215186719357969,-1.9664974949918683
2024-12-07 18:07:19.441006300,11.03300634765625,1.9867142074599864,2.210004199668765,-1.0558039152927696
2024-12-07 18:07:19.450980400,11.04298046875,2.0662220439389345,2.518223176622391,-0.2193508991941809
2024-12-07 18:07:19.460954400,11.052954345703125,2.477775723160803,2.6208003385216,-0.0244335995107889
2024-12-07 18:07:19.470928400,11.062928466796874,4.629918977752328,2.603739898127317,-0.8832347871482372
2024-12-07 18:07:19.480902400,11.07290234375,0.6430541581541299,2.594698513537645,2.1314491338700057
2024-12-07 18:07:19.490876400,11.08287646484375,-2.099476663286984,1.6911480835914612,2.857633995175361
2024-12-07 18:07:19.500850400,11.092850341796876,-1.5347536990478634,0.6959954747468232,1.7360538316361604
2024-12-07 18:07:19.510824400,11.102824462890624,-0.2174456500947475,0.2504898415625095,0.6792905697919428
2024-12-07 18:07:19.520798500,11.112798583984375,1.2281292978093028,0.0132411743670701,-0.0741029086954891
2024-12-07 18:07:19.530772500,11.1227724609375,2.136806276988983,-0.1192944879442453,-0.6635121320322156
2024-12-07 18:07:19.540746500,11.13274658203125,2.505697749309242,-0.1749053160071373,-0.8537230075903236
2024-12-07 18:07:19.550719500,11.142719482421874,2.353093112437427,-0.3131067489951848,-1.1796288862735032
2024-12-07 18:07:19.560693500,11.152693603515624,2.1210592572808262,-0.4954010062098503,-1.3766836363770067
2024-12-07 18:07:19.570667500,11.16266748046875,1.7829291261881588,-0.7814549131065607,-1.0867682317465543
2024-12-07 18:07:19.580641500,11.1726416015625,1.1673942586004733,-1.0722148057371377,-0.786886875027418
2024-12-07 18:07:19.590615600,11.182615478515626,0.530849628470838,-1.3169950374811887,-0.7463236862316727
2024-12-07 18:07:19.600589600,11.192589599609375,0.3802183374986052,-1.5237684869140389,-1.004373587784916
2024-12-07 18:07:19.610563600,11.2025634765625,0.5540890497609973,-1.5879472368359564,-1.3131271100066602
2024-12-07 18:07:19.620537600,11.21253759765625,0.6823275994002819,-1.6901339381128548,-1.6101163985460996
2024-12-07 18:07:19.630511600,11.22251171875,0.7325143565878272,-1.7573405114233491,-1.8129583537489176
2024-12-07 18:07:19.640485600,11.232485595703125,0.7035051197245716,-1.846748979669809,-1.9035466794297096
2024-12-07 18:07:19.650459600,11.242459716796876,0.7636161818161606,-1.9946751033365728,-2.137133609247208
2024-12-07 18:07:19.660433400,11.252433349609374,0.8311392737299204,-2.18272807020843,-2.7201547389820218
2024-12-07 18:07:19.670407400,11.262407470703126,0.7982435508221387,-2.4410253706514835,-3.363829951643944
2024-12-07 18:07:19.680381400,11.27238134765625,0.7191609540179371,-2.754910118281841,-3.729592186027765
2024-12-07 18:07:19.690355500,11.28235546875,0.5207477750428021,-3.0288118150919674,-3.8451302440479393
2024-12-07 18:07:19.700329500,11.29232958984375,0.0906400558680295,-2.868513701108098,-3.6593010907053936
2024-12-07 18:07:19.710303500,11.302303466796875,-0.4261807549893855,-2.456647302675247,-3.0841105084657667
2024-12-07 18:07:19.720276500,11.3122763671875,-0.6173221893958747,-2.1256173589766023,-2.1344002387605605
2024-12-07 18:07:19.730250200,11.322250244140625,-0.521981554621458,-1.9611726467072963,-0.9738992468051612
2024-12-07 18:07:19.740224300,11.332224365234374,-0.6497929648898542,-1.5635808573424814,0.3013468992270529
2024-12-07 18:07:19.750198300,11.3421982421875,-0.8193136652491986,-1.08793259935081,1.5818854525789618
2024-12-07 18:07:19.760172300,11.35217236328125,-0.8911813622385263,-0.6411813500195741,2.6254189382329582
2024-12-07 18:07:19.770146300,11.362146240234376,-1.149556842484325,-0.195322081092,3.46294382134676
2024-12-07 18:07:19.780120300,11.372120361328124,-1.4003751853488384,0.1880705025285482,4.0628023963749405
2024-12-07 18:07:19.790094300,11.38209423828125,-1.6269775169759988,0.4818909517735242,4.453580414071679
2024-12-07 18:07:19.800068400,11.392068359375,-1.8831734612256288,0.7380377961844206,4.466864258536696
2024-12-07 18:07:19.810042400,11.40204248046875,-2.0865116755127904,1.0525327846676111,3.9527673196852207
