time,seconds_elapsed,z,y,x
2024-12-07 18:29:19.595055900,0.022055908203125,0.2068050136148929,-0.3275689895898103,-0.0470700864717364
2024-12-07 18:29:19.605030000,0.03202978515625,-0.0061170215755701,-0.3960346230506896,-0.0403919238820672
2024-12-07 18:29:19.615004000,0.04200390625,-0.0018888824865221,-0.5410428134441375,-0.1057525770649313
2024-12-07 18:29:19.624978000,0.05197802734375,0.1338940911829471,-0.5018833539664745,0.0331090733975172
2024-12-07 18:29:19.634951700,0.06195166015625,-0.0630251959726214,-0.4025181398510932,0.1511822028532624
2024-12-07 18:29:19.644924700,0.071924560546875,-0.0661439125150442,-0.2725269013255834,0.2189446564808487
2024-12-07 18:29:19.654898700,0.081898681640625,-0.0364487392142415,-0.3283662774473428,0.1538183965757489
2024-12-07 18:29:19.664872700,0.091872802734375,0.0284302679315209,-0.3806821556180715,0.0185550628662109
2024-12-07 18:29:19.674846700,0.1018466796875,0.0567442160069942,-0.3406698787033557,-0.0684153645783662
2024-12-07 18:29:19.684820700,0.11182080078125,0.0513765514940023,-0.2201344507873058,-0.0993684289857745
2024-12-07 18:29:19.694794800,0.121794677734375,0.0147667764991521,-0.2901286089897155,-0.1319292208507657
2024-12-07 18:29:19.704768800,0.131768798828125,-0.0535787377133965,-0.2034539496213197,-0.0821536748126149
2024-12-07 18:29:19.714741800,0.14174169921875,-0.1172287875860929,-0.110011111292243,-0.0462795206159353
2024-12-07 18:29:19.724715800,0.1517158203125,-0.1517895210966467,-0.1137649108678102,0.0173754976928234
2024-12-07 18:29:19.734689800,0.161689697265625,-0.2225835975050926,-0.0362304202884435,0.0130725398018956
2024-12-07 18:29:19.744663800,0.171663818359375,-0.2246042896777391,-0.0803162302523851,-0.0371715005308389
2024-12-07 18:29:19.754637800,0.181637939453125,-0.2041629746735095,-0.2146265010207891,-0.0531356701210141
2024-12-07 18:29:19.764611800,0.19161181640625,-0.2180889164343476,-0.16835399466753,0.0289832256391644
2024-12-07 18:29:19.774584800,0.201584716796875,-0.2535410458266735,-0.2332061138063669,0.0501268436938524
2024-12-07 18:29:19.784558800,0.211558837890625,-0.2145364846497774,-0.3676683602660894,0.0237462017685174
2024-12-07 18:29:19.794532900,0.221532958984375,-0.1112917987525463,-0.1629161875277757,0.1011748938858509
2024-12-07 18:29:19.804507000,0.2315068359375,-0.0726841279387474,-0.3611000877916813,0.2006616885542869
2024-12-07 18:29:19.814481000,0.24148095703125,-0.1986582397773861,-0.5263479331374168,0.4628711940050125
2024-12-07 18:29:19.824455000,0.251454833984375,-0.5379977466598153,-0.4734580544710159,0.586796264359355
2024-12-07 18:29:19.834427600,0.261427734375,0.199104229979217,-1.0413158096045254,0.5584957602873444
2024-12-07 18:29:19.844401700,0.271401611328125,0.1048433532655239,-2.715326295912265,-0.5044295313179493
2024-12-07 18:29:19.854375700,0.281375732421875,-0.132394792535901,-4.468786166509986,-1.491490019121766
2024-12-07 18:29:19.864349700,0.291349609375,-0.1120320957258343,-3.914165494090319,-1.5032012074425816
2024-12-07 18:29:19.874323700,0.30132373046875,-0.0540733893625438,-3.218138455161452,-1.807282353939116
2024-12-07 18:29:19.884297700,0.311297607421875,-0.0431570046812295,-2.660380069237948,-2.311341006118059
2024-12-07 18:29:19.894271500,0.321271484375,-0.0855137988954782,-1.9438830737322568,-2.348030568350852
2024-12-07 18:29:19.904244700,0.33124462890625,0.6936104793064296,-1.6040128209739923,-1.740445782984793
2024-12-07 18:29:19.914218800,0.34121875,0.5127653979867697,-0.5116548063963652,-1.4099144364580511
2024-12-07 18:29:19.924192800,0.35119287109375,-0.3464749117203056,0.002064531314373,-0.5107048121951521
2024-12-07 18:29:19.934166800,0.361166748046875,0.1739523991964757,0.556942977887392,0.6768591048613191
2024-12-07 18:29:19.944140800,0.371140869140625,0.408811102515459,1.0151631312161684,2.115073022478074
2024-12-07 18:29:19.954114600,0.381114501953125,0.3689804657779634,2.689427884545922,1.963529146705568
2024-12-07 18:29:19.964087800,0.391087890625,-0.0157335757046937,3.3777187762647864,1.8850563523627817
2024-12-07 18:29:19.974061800,0.401061767578125,-0.2261836678236722,3.5627614554047584,1.719343373723328
2024-12-07 18:29:19.984035800,0.411035888671875,-0.2852145334631204,3.741120711258054,1.5376599418833852
2024-12-07 18:29:19.994009900,0.421009765625,-0.0910607654981315,3.373047861844301,1.230478783544898
2024-12-07 18:29:20.003983600,0.430983642578125,1.3793074090093371,3.130380092209577,0.2664191590350121
2024-12-07 18:29:20.013957600,0.44095751953125,0.4852696344263851,3.156314743933081,-0.826534264152497
2024-12-07 18:29:20.023931000,0.450930908203125,-0.4828063130527734,2.473379826289415,-1.274045245809853
2024-12-07 18:29:20.033905000,0.46090478515625,-0.5128555604882538,1.941400024744868,-1.4131839596480131
2024-12-07 18:29:20.043879000,0.47087890625,-0.4060270247548818,1.7181752067267897,-1.2360901936858892
2024-12-07 18:29:20.053852700,0.480852783203125,-0.2291169447965919,0.5567676213204861,-0.8786704749073833
2024-12-07 18:29:20.063826700,0.49082666015625,-0.4945462890766561,-0.4249357233643531,-0.6134693864252418
2024-12-07 18:29:20.073800700,0.50080078125,-0.6070907182388007,-0.3250543764203786,-0.3380431103963405
2024-12-07 18:29:20.083773700,0.510773681640625,-0.6242101953439414,-0.2359890225231647,0.0190155930500477
2024-12-07 18:29:20.093747700,0.520747802734375,-0.3665745736800134,-0.300541866454482,0.1244808045409619
2024-12-07 18:29:20.103721700,0.5307216796875,-0.269016701247543,-0.1095166057735681,0.0097226448521018
2024-12-07 18:29:20.113695700,0.54069580078125,-0.2059942817538976,0.1385556532531976,-0.0375359499290585
2024-12-07 18:29:20.123669500,0.55066943359375,-0.2198299148827791,0.021494038927555,-0.022950667476654
2024-12-07 18:29:20.133643500,0.5606435546875,-0.3175489692263305,0.0439274045318365,-0.1736784045606851
2024-12-07 18:29:20.143617500,0.570617431640625,-0.4676256950557231,0.3545189558357,-0.0274168531052768
2024-12-07 18:29:20.153590800,0.5805908203125,-0.4958620478503405,0.3265940070778131,0.0669819707743823
2024-12-07 18:29:20.163564800,0.590564697265625,-0.6459066249758004,0.7204758360087871,0.3650501405917107
2024-12-07 18:29:20.173539300,0.600539306640625,-0.4967592889510094,1.0024310754150152,0.7542515566214919
2024-12-07 18:29:20.183513300,0.610513427734375,-0.0638718759298324,0.6753343795120715,0.8196129404567182
2024-12-07 18:29:20.193487400,0.6204873046875,0.2216052539922297,0.2930728457480669,0.8011718593589962
2024-12-07 18:29:20.203461400,0.63046142578125,0.2728860900267958,-0.055711365827918,0.8216799559891224
2024-12-07 18:29:20.213434400,0.640434326171875,0.34965587984398,-0.6644049892187118,0.7508525618329643
2024-12-07 18:29:20.223408400,0.650408447265625,0.3592962532401084,-1.2072925537467003,0.6225673965729772
2024-12-07 18:29:20.233382400,0.66038232421875,0.1273684888064861,-1.098770219707489,0.8622364227831363
2024-12-07 18:29:20.243356400,0.6703564453125,0.0249143687650561,-1.064392733809352,0.9365402608782052
2024-12-07 18:29:20.253330400,0.680330322265625,-0.0950917745798826,-1.098801783889532,1.062269311914593
2024-12-07 18:29:20.263304400,0.690304443359375,-0.0438683678209781,-0.9449480237394572,0.9929762877188624
2024-12-07 18:29:20.273277400,0.70027734375,0.4611579603463411,-0.5847773257523775,0.7346321524593978
2024-12-07 18:29:20.283251500,0.71025146484375,0.5336415972769261,-0.5515653765022754,0.8101192089896648
2024-12-07 18:29:20.293225500,0.7202255859375,0.5074785436250269,-0.1483914030909538,0.7569150767423212
2024-12-07 18:29:20.303199500,0.730199462890625,0.4798914485193788,0.1302811613827943,0.5906107811462133
2024-12-07 18:29:20.313173500,0.740173583984375,0.3583662789136171,0.12605565264225,0.2904743536874651
2024-12-07 18:29:20.323147500,0.7501474609375,-0.1109445927500724,0.1798556318908929,0.0202736302871257
2024-12-07 18:29:20.333120300,0.760120361328125,-0.3409785062611102,0.0966711527258157,-0.0272751065470278
2024-12-07 18:29:20.343094300,0.77009423828125,-0.3661538640499114,0.0478022001385688,-0.2862726276813074
2024-12-07 18:29:20.353068300,0.780068359375,-0.3894201733469963,0.0908855550616979,-0.4930518858004361
2024-12-07 18:29:20.363042300,0.790042236328125,-0.2695826645672321,0.1776356177538633,-0.4967100064491853
2024-12-07 18:29:20.373016300,0.800016357421875,-0.28909458976686,0.5003805481880903,-0.6174981304846704
2024-12-07 18:29:20.382990300,0.809990234375,-0.2960311110317707,0.9422820194005964,-0.7676522323992103
2024-12-07 18:29:20.392963300,0.81996337890625,-0.2323883676826953,1.2184732884526253,-0.97999084167853
2024-12-07 18:29:20.402937300,0.829937255859375,-0.3486087088786065,1.4465332715421917,-1.1126529799137264
2024-12-07 18:29:20.412911400,0.839911376953125,-0.4878647654861211,1.5932032576680182,-1.0370796333394945
2024-12-07 18:29:20.422885400,0.849885498046875,-0.7128831889227032,0.1790969224780798,-0.922360928878188
2024-12-07 18:29:20.432859400,0.859859375,-0.8893575078122318,-2.774928823959827,-1.0710410857826471
2024-12-07 18:29:20.442833400,0.86983349609375,-0.4913604986473918,-1.742952505108714,-0.572912956163846
2024-12-07 18:29:20.452807400,0.879807373046875,0.1465060277357697,2.299117484360933,-0.1082125009050592
2024-12-07 18:29:20.462780400,0.889780517578125,0.4108382244288921,3.2769337584793568,-0.2670214357770979
2024-12-07 18:29:20.472754400,0.89975439453125,0.1727601206719875,2.675502235046029,-0.1383931927004829
2024-12-07 18:29:20.482728400,0.909728515625,-0.0638730449736118,1.8419167372077705,-0.1567357087945565
2024-12-07 18:29:20.492702500,0.919702392578125,-0.2622059983193874,1.0943915662318466,-0.4579012601053342
2024-12-07 18:29:20.502676500,0.929676513671875,-0.3825058639138937,0.4373199886411428,-0.7316554016709327
2024-12-07 18:29:20.512650500,0.939650390625,-0.4448500918850302,-0.732995710363984,-0.3753254508905112
2024-12-07 18:29:20.522623500,0.94962353515625,-0.6130120711117982,-1.3763579115539788,-0.1665763905357569
2024-12-07 18:29:20.532597500,0.959597412109375,-0.3225260269865393,-1.5222954917520284,-0.5019593418121338
2024-12-07 18:29:20.542571500,0.969571533203125,0.1022407695516944,-1.6446230637818573,-0.6118649469032883
2024-12-07 18:29:20.552545500,0.979545654296875,0.3838309750378131,-1.6454676979124545,-0.5093114581406116
2024-12-07 18:29:20.562519600,0.98951953125,0.4349646576866507,-1.3565244993150234,-0.2813863534770905
2024-12-07 18:29:20.572493600,0.99949365234375,0.2905336826592684,-1.0084060581713914,0.0607915917016565
2024-12-07 18:29:20.582466300,1.00946630859375,0.0908668503612279,-0.858902309924364,0.4681044184833764
2024-12-07 18:29:20.592440300,1.0194404296875,0.0360153162330389,-0.8856044388890266,0.9218946265406908
2024-12-07 18:29:20.602414300,1.029414306640625,-0.0467260953396558,-0.6246902339458466,0.3656538055732846
2024-12-07 18:29:20.612388400,1.039388427734375,0.0413248208180069,-0.6623930648744106,0.4877286449510604
2024-12-07 18:29:20.622362400,1.0493623046875,0.4564914298400283,-0.9743810389727352,0.7559959160707891
2024-12-07 18:29:20.632336400,1.05933642578125,0.2398796002209186,-0.7997656458228826,0.6752906865008175
2024-12-07 18:29:20.642309400,1.069309326171875,0.0517404163703322,-0.8594009070962667,0.4897140466146171
2024-12-07 18:29:20.652283400,1.079283447265625,-0.0051402854979038,-0.9521569322049616,0.4548164092998951
2024-12-07 18:29:20.662257400,1.08925732421875,-0.1333906717054545,-1.0932090784490107,0.5840075834888965
2024-12-07 18:29:20.672231400,1.0992314453125,-0.242756616961956,-1.1555845783412455,0.5992532295461743
2024-12-07 18:29:20.682205400,1.109205322265625,-0.4259048606574535,-1.1746277169853447,0.5174500486716628
2024-12-07 18:29:20.692179500,1.119179443359375,-0.5918994327172636,-1.2244178760707378,0.3936194516677409
2024-12-07 18:29:20.702152400,1.12915234375,-0.8446661331705748,-1.2657026571393013,0.3572815524168312
2024-12-07 18:29:20.712126500,1.13912646484375,-1.0529675228230655,-1.3385422679007053,0.4670123854629695
2024-12-07 18:29:20.722100500,1.1491005859375,-1.0773936696797608,-1.3394365863919258,0.6465503297068178
2024-12-07 18:29:20.732074500,1.159074462890625,-1.0674199726760387,-1.3186018881559372,0.7478789528496563
2024-12-07 18:29:20.742048500,1.169048583984375,-0.993932419399917,-1.266081427323818,0.8022949451047927
2024-12-07 18:29:20.752022500,1.1790224609375,-1.0722463699191809,-1.1132441507399082,0.9184046655330806
2024-12-07 18:29:20.761995500,1.18899560546875,-1.0368608760222793,-1.0397849467754363,1.1052960412796586
2024-12-07 18:29:20.771969500,1.198969482421875,-0.9036436611875892,-0.8970107990443706,0.9635401306804268
2024-12-07 18:29:20.781943600,1.208943603515625,-0.8724684784621,-0.6615963615387678,0.5787683676611631
2024-12-07 18:29:20.791917600,1.21891748046875,-0.7869929657503962,-0.4796101473599672,0.5860424503173679
2024-12-07 18:29:20.801891600,1.2288916015625,-0.4321497463963925,-0.5054881004601717,0.5918990673910826
2024-12-07 18:29:20.811865600,1.238865478515625,-0.5843741517789661,-0.3791390178292989,0.0895345788441598
2024-12-07 18:29:20.821839600,1.248839599609375,-0.7294758656747639,-0.0835199947297573,-0.0794135823242366
2024-12-07 18:29:20.831812400,1.258812255859375,-0.9341830302275717,0.3937807066440582,-0.358087242776528
2024-12-07 18:29:20.841786400,1.268786376953125,-1.2787234667539595,0.8633511060267687,-0.6802254394892603
2024-12-07 18:29:20.851760400,1.278760498046875,-1.5489159337826073,1.210330314007401,-0.769449783340469
2024-12-07 18:29:20.861734400,1.288734375,-1.7712058090381324,1.506060980787873,-0.7561107015568762
2024-12-07 18:29:20.871708400,1.29870849609375,-1.7789063004128634,1.904475192451477,-0.6746846103664487
2024-12-07 18:29:20.881682400,1.308682373046875,-1.5670317284487187,2.230284186631441,-0.5901699055109173
2024-12-07 18:29:20.891655400,1.318655517578125,-1.3226375734128055,2.3249568590164182,-0.4986305627156048
2024-12-07 18:29:20.901629400,1.32862939453125,-1.366950616261363,2.590470666709542,-0.3939111280906945
2024-12-07 18:29:20.911603500,1.338603515625,-1.6249632545441388,2.7814725465148684,-0.1292176238045096
2024-12-07 18:29:20.921577500,1.348577392578125,-1.733988715799898,2.6488562201827763,0.2199883203148841
2024-12-07 18:29:20.931551500,1.358551513671875,-1.0581173068016767,1.1169868443995714,0.5091426043797284
2024-12-07 18:29:20.941525500,1.368525390625,-0.2608374864451587,-0.6971645185261964,0.6612540509071201
2024-12-07 18:29:20.951498500,1.37849853515625,0.2580933023035526,-1.8290771293789148,0.5243603395167737
2024-12-07 18:29:20.961472500,1.388472412109375,0.6980413013607263,-2.351839605244994,0.2447501288667321
2024-12-07 18:29:20.971446500,1.398446533203125,1.0576115492366254,-2.225668217268586,-0.1925049778446555
2024-12-07 18:29:20.981420500,1.408420654296875,1.356862352967262,-1.5575959377139803,-0.6005031565420329
2024-12-07 18:29:20.991394600,1.41839453125,1.411962308898568,-0.7581722371965647,-0.7288358142055571
2024-12-07 18:29:21.001368600,1.42836865234375,1.164230680003017,-0.2494797877371311,-0.5605217131569982
2024-12-07 18:29:21.011341600,1.438341552734375,0.8193493210844696,0.0936579423844814,-0.1462693694356829
2024-12-07 18:29:21.021315600,1.448315673828125,0.7456956174612045,-0.1361450849801302,0.1302329748595133
2024-12-07 18:29:21.031289600,1.45828955078125,0.5423784459620714,-0.2249906586468219,0.376956340027973
2024-12-07 18:29:21.041263400,1.468263427734375,-0.0092347882699221,0.2375105330020189,0.7182432546511291
2024-12-07 18:29:21.051237400,1.4782373046875,-0.1588490111541003,0.5827618942767381,0.8956856148552149
2024-12-07 18:29:21.061211400,1.48821142578125,-0.2414841128081083,0.8558376616567372,0.9435741050377487
2024-12-07 18:29:21.071184400,1.498184326171875,-0.3080898706812411,1.0010463430583476,0.9398770771507172
2024-12-07 18:29:21.081158400,1.508158447265625,-0.0887660786896944,0.3826818050026893,0.6758877756111323
2024-12-07 18:29:21.091132400,1.51813232421875,0.1941729110568761,-0.2166729121565818,0.5218634081345052
2024-12-07 18:29:21.101106400,1.5281064453125,0.3464168979227542,-0.4238011663764714,0.4310113169509917
2024-12-07 18:29:21.111080400,1.53808056640625,0.3400011856615543,-0.404877854719758,0.4357177410762757
2024-12-07 18:29:21.121054500,1.548054443359375,0.3484826713461428,-0.2856055786073208,0.3876118818160146
2024-12-07 18:29:21.131027500,1.55802734375,0.2940700400918722,-0.1738216124236583,0.1684320283398032
2024-12-07 18:29:21.141001500,1.56800146484375,0.2693371653735637,-0.1347942548930644,-0.0157014635333791
2024-12-07 18:29:21.150975500,1.5779755859375,0.331852512127906,-0.1312234106689691,-0.1108045266922563
2024-12-07 18:29:21.160949500,1.587949462890625,0.4745481877952814,-0.0737771838724613,-0.1380554486460983
2024-12-07 18:29:21.170924000,1.597924072265625,0.6551965044338256,0.0434235466629266,-0.1095185785349458
2024-12-07 18:29:21.180898000,1.60789794921875,0.7199334727603942,0.0946533831626176,-0.1307553912984207
2024-12-07 18:29:21.190871000,1.61787109375,0.6698692459739745,0.11811083111763,-0.0906490794247016
2024-12-07 18:29:21.200845000,1.627844970703125,0.7277572982538492,0.0725233844190836,0.0374913801349699
2024-12-07 18:29:21.210819000,1.637819091796875,0.979234981809929,-0.2602788296490907,-0.0551046321064233
2024-12-07 18:29:21.220793000,1.64779296875,1.177384395282343,-0.1949731215238571,-0.0277621959442272
2024-12-07 18:29:21.230767000,1.65776708984375,1.1596510971277951,0.1032154598027467,0.1499925912098959
2024-12-07 18:29:21.240741000,1.6677412109375,1.166285493640974,0.3233616010278463,0.2604042095944285
2024-12-07 18:29:21.250713900,1.6777138671875,1.0603467463541776,0.7487129194557667,0.4473568140089511
2024-12-07 18:29:21.260688000,1.68768798828125,1.1094699659634382,0.7318336808472872,0.395012696124427
2024-12-07 18:29:21.270662000,1.697661865234375,1.2273299641251565,0.6465215420037508,0.1999660709729418
2024-12-07 18:29:21.280636000,1.707635986328125,1.2898235374391078,0.5285843138873577,-0.0052657750410959
2024-12-07 18:29:21.290610000,1.71760986328125,1.0473368965249508,0.36630583974123,-0.2022373038405552
2024-12-07 18:29:21.300584000,1.727583984375,0.5905167461872101,0.1672434030771255,-0.3864611408783123
2024-12-07 18:29:21.310557000,1.737556884765625,0.2418359949856996,0.0015466449201107,-0.5927373083135112
2024-12-07 18:29:21.320531000,1.747531005859375,0.1129611202042549,-0.1443330676108598,-0.7223581426240503
2024-12-07 18:29:21.330505000,1.7575048828125,0.0750852707963436,-0.2212052948892116,-0.7682376310717314
2024-12-07 18:29:21.340479000,1.76747900390625,0.0519289612123742,-0.2167711118340492,-0.7380629306256771
2024-12-07 18:29:21.350453000,1.777452880859375,0.0328297084668651,-0.2080798558562994,-0.6376046605765819
2024-12-07 18:29:21.360427000,1.787427001953125,0.0872235254228115,-0.2477618779033422,-0.4131448939360678
2024-12-07 18:29:21.370400000,1.79739990234375,0.1705214018344879,-0.2873801870644092,-0.1688963213833048
2024-12-07 18:29:21.380374000,1.8073740234375,0.2440408115535974,-0.230695592290163,0.093075904712826
2024-12-07 18:29:21.390348000,1.81734814453125,0.4641950630199163,-0.1260574062079191,0.3054377487372607
2024-12-07 18:29:21.400322000,1.827322021484375,0.6671236005276441,-0.0179530053198337,0.4601263157436624
2024-12-07 18:29:21.410296000,1.837296142578125,0.7405524093538522,0.0540548307925462,0.6153218093588948
2024-12-07 18:29:21.420270000,1.84727001953125,0.7019476611495018,-0.1149701950043439,0.6233958102211355
2024-12-07 18:29:21.430243000,1.8572431640625,0.7726976061552763,-0.2830845356971025,0.5013305423893034
2024-12-07 18:29:21.440217000,1.867217041015625,0.7831500265866518,0.2041816793739795,0.7420604758292436
2024-12-07 18:29:21.450191000,1.877191162109375,0.5521469392498954,0.542974073767662,0.8870489386089145
2024-12-07 18:29:21.460165000,1.8871650390625,0.2678939808279276,0.3847685481488704,0.4791452697945758
2024-12-07 18:29:21.470139100,1.89713916015625,0.129375115921162,0.3156874131381511,0.1796761471381411
2024-12-07 18:29:21.480113200,1.907113037109375,0.0629494638552889,0.252490075469017,-0.0083468629868701
2024-12-07 18:29:21.490086000,1.9170859375,-0.0330318799754604,0.1040460654079914,-0.2100400134807452
2024-12-07 18:29:21.500060000,1.927059814453125,-0.2803261403670534,-0.0259182851105928,-0.3520535155702382
2024-12-07 18:29:21.510034000,1.937033935546875,-0.4586468543082475,-0.1356470723301172,-0.5115780878983438
2024-12-07 18:29:21.520008000,1.947008056640625,-0.5317167666941881,-0.2061737299740314,-0.6149991532757878
2024-12-07 18:29:21.529982000,1.95698193359375,-0.5511386755228043,-0.1769505580991506,-0.6379504052743316
2024-12-07 18:29:21.539956000,1.9669560546875,-0.5571019678413868,-0.059075873824954,-0.5541118826473131
2024-12-07 18:29:21.549929000,1.976928955078125,-0.5146440513402223,0.0406003059357404,-0.3030286417689174
2024-12-07 18:29:21.559903000,1.986903076171875,-0.4536269803196192,0.0613631079792976,-0.0125109603963792
2024-12-07 18:29:21.569877000,1.996876953125,-0.4168044393569231,0.0234714764803647,0.3209205280186608
2024-12-07 18:29:21.579851000,2.00685107421875,-0.2824959404204972,-0.0665729515820741,0.6037896308667957
2024-12-07 18:29:21.589825000,2.016824951171875,-0.1567267035041935,-0.1393237150162458,0.7537175228100269
2024-12-07 18:29:21.599799000,2.026799072265625,-0.0469441128713544,-0.1427367383301258,0.7923466017380356
2024-12-07 18:29:21.609772000,2.03677197265625,0.0564765049815177,-0.0480085363656282,0.7345518537648021
2024-12-07 18:29:21.619746000,2.04674609375,0.0948380920797586,0.0475298129379749,0.6130624861247838
2024-12-07 18:29:21.629720000,2.056719970703125,0.0516489386945962,0.0534872600376606,0.4694904294816777
2024-12-07 18:29:21.639694000,2.066694091796875,-0.0779126762419939,-0.0751788673639297,0.3223557119209319
2024-12-07 18:29:21.649668000,2.076668212890625,-0.1658633468955755,-0.2247586034566163,0.2483041680864989
2024-12-07 18:29:21.659641900,2.086641845703125,-0.316944719722867,0.0170931736201047,0.3692302758205681
2024-12-07 18:29:21.669615000,2.096614990234375,-0.4622042545288801,-0.180739428988099,0.3607860534064471
2024-12-07 18:29:21.679589000,2.106589111328125,-0.5393009382128715,-0.1760539015203714,0.3976619685241952
2024-12-07 18:29:21.689563100,2.116563232421875,-0.5244119966387748,-0.1093383265972137,0.5726633287843317
2024-12-07 18:29:21.699537000,2.126536865234375,-0.4547533540010452,-0.0573427664220333,0.7534171516239643
2024-12-07 18:29:21.709511000,2.136510986328125,-0.4124000669181347,-0.0845756412625312,0.80647990263924
2024-12-07 18:29:21.719485000,2.14648486328125,-0.3778758660256862,0.0845996066600084,1.0064325661413371
2024-12-07 18:29:21.729458000,2.1564580078125,-0.3443827617466449,-0.0454307948321104,1.1204513056397438
2024-12-07 18:29:21.739432000,2.166431884765625,-0.358433498930931,-0.1037169795840978,1.1795264488123356
2024-12-07 18:29:21.749406000,2.176406005859375,-0.3965571856200695,-0.0524023874104023,1.2441544038064778
2024-12-07 18:29:21.759380000,2.1863798828125,-0.4789373626649379,0.0360714303344488,1.2795315682664512
2024-12-07 18:29:21.769354000,2.19635400390625,-0.5127765039026737,0.0087695819109678,1.2357874113470315
2024-12-07 18:29:21.779327700,2.20632763671875,-0.471857633537054,0.4886258129864931,1.438653185816854
2024-12-07 18:29:21.789301000,2.216301025390625,-0.4762392096221446,0.721606301343441,1.5748833187319338
2024-12-07 18:29:21.799275000,2.22627490234375,-0.5102478622078895,0.6762859811484814,1.8288902285046875
2024-12-07 18:29:21.809249000,2.2362490234375,-0.8289221822023392,1.1808394311070445,2.140890769823641
2024-12-07 18:29:21.819223000,2.24622314453125,-0.9252139802217484,0.708215489372611,2.0206068324506283
2024-12-07 18:29:21.829197000,2.256197021484375,-0.712130032467842,0.1671335129618644,1.8296683732703327
2024-12-07 18:29:21.839170800,2.2661708984375,-0.548020835763216,0.032723288950324,1.693436779050529
2024-12-07 18:29:21.849144000,2.27614404296875,-0.5161912807822228,-0.1580062036544084,1.2767119808010756
2024-12-07 18:29:21.859118000,2.2861181640625,-0.6051707099616527,-0.3125087831020355,0.7274918522506952
2024-12-07 18:29:21.869092000,2.296092041015625,-0.616076719379425,-0.3997580274879932,0.2156564103241078
2024-12-07 18:29:21.879066000,2.306066162109375,-0.6294318755149841,-0.465615524277091,-0.2808719742141664
2024-12-07 18:29:21.889040000,2.316039794921875,-0.633889439445734,-0.3889011179089546,-0.762168321095407
2024-12-07 18:29:21.899014000,2.326013916015625,-0.6654127049565315,-0.1199766249895095,-1.2617517275564372
2024-12-07 18:29:21.908987000,2.33598681640625,-0.698472678515315,0.2692500716120004,-1.7064570041432976
2024-12-07 18:29:21.918961000,2.3459609375,-0.6259182413708418,0.7683838346093893,-1.982321379328519
2024-12-07 18:29:21.928935000,2.355934814453125,-0.4029880589177831,1.3055103513926267,-2.1438037346608936
2024-12-07 18:29:21.938909000,2.365908935546875,-0.2772223656654358,1.6775871757507324,-2.1560782559528944
2024-12-07 18:29:21.948883000,2.375883056640625,-0.3992589188594371,1.8368775739967824,-1.988875038755685
2024-12-07 18:29:21.958856700,2.385856689453125,-0.6484739181805401,1.84201026071012,-1.6845920860767365
2024-12-07 18:29:21.968830700,2.395830810546875,-0.8600684310942888,1.7929834872126578,-1.2768226015686988
2024-12-07 18:29:21.978804000,2.405803955078125,-1.0688537318062037,1.8472452387541527,-0.8264384025625884
2024-12-07 18:29:21.988778000,2.415778076171875,-1.3897212509959935,1.907869511064887,-0.4735265896625816
2024-12-07 18:29:21.998752000,2.425751953125,-1.789000701186806,1.8709622144281863,-0.3018729689277708
2024-12-07 18:29:22.008725800,2.435725830078125,-1.981353849470615,1.7592080588608978,-0.1433385766807943
2024-12-07 18:29:22.018699800,2.44569970703125,-1.4625094238311052,1.667475531581044,-0.054316769664362
2024-12-07 18:29:22.028673800,2.455673828125,-0.2464535717837512,1.5374837085336446,-0.2293958348032087
2024-12-07 18:29:22.038647000,2.46564697265625,1.0038048479862511,1.298749186694622,-0.7156747924026101
2024-12-07 18:29:22.048621000,2.47562109375,1.9066563358828423,0.9479986434817314,-1.3180812252826988
2024-12-07 18:29:22.058594800,2.4855947265625,2.4266087227642537,0.5586205557107925,-1.667378062555939
2024-12-07 18:29:22.068568800,2.49556884765625,2.4510589811488983,0.0899479819506406,-1.750349045100808
2024-12-07 18:29:22.078542800,2.50554296875,1.9261843354344368,-0.0708446375519037,-1.4851656384058296
2024-12-07 18:29:22.088516000,2.51551611328125,1.211472762040794,0.0514922868281602,-0.7588212026245892
2024-12-07 18:29:22.098490000,2.525489990234375,0.7418284206390381,0.0181254392772912,-0.0608547200657427
2024-12-07 18:29:22.108464000,2.535464111328125,0.7417717220157385,-0.1239478667080402,0.4492926043771207
2024-12-07 18:29:22.118438000,2.54543798828125,1.218828677761555,-0.3569961596041917,0.7572070454262196
2024-12-07 18:29:22.128412000,2.555411865234375,1.4460177232354878,-0.4149567656636238,0.9525772034436464
2024-12-07 18:29:22.138386000,2.565385986328125,1.429305073365569,-0.3658873220682144,0.8182583109773695
2024-12-07 18:29:22.148360000,2.57535986328125,1.3259233170852065,-0.4022995286643505,0.4859178692020475
2024-12-07 18:29:22.158333000,2.5853330078125,1.2940187971718609,-0.5505097299695014,0.1082657289296388
2024-12-07 18:29:22.168306700,2.595306640625,1.168464664310962,-0.8070166398644447,-0.256786165227741
2024-12-07 18:29:22.178280700,2.60528076171875,0.9750457864917814,-1.17409580206573,-0.7645153226129711
2024-12-07 18:29:22.188254700,2.615254638671875,0.7826455841958523,-1.4793401471227408,-1.251601651072502
2024-12-07 18:29:22.198228500,2.625228515625,0.5908545998394489,-1.615343193283677,-1.4605483528912069
2024-12-07 18:29:22.208202500,2.635202392578125,0.4968459443211555,-1.6707798338234423,-1.488518894356489
2024-12-07 18:29:22.218175700,2.64517578125,0.6118249071538447,-1.6644085452258586,-1.3702891130343078
2024-12-07 18:29:22.228149800,2.655149658203125,0.7962018158614635,-1.6053829402834177,-1.268541095435619
2024-12-07 18:29:22.238123800,2.665123779296875,0.9790379248678684,-1.510820742535591,-1.2747674226045609
2024-12-07 18:29:22.248097500,2.67509765625,1.1834794242218136,-1.449833482131362,-1.2718740392506125
2024-12-07 18:29:22.258071600,2.685071533203125,1.282642686024308,-1.5246043532162905,-1.4045434109441934
2024-12-07 18:29:22.268044500,2.69504443359375,1.0028419943034648,-1.7015075650423763,-1.6344762021683157
2024-12-07 18:29:22.278018600,2.7050185546875,0.5298468811690807,-1.818065906020999,-1.6473558497466143
2024-12-07 18:29:22.287992600,2.71499267578125,0.1396829037174582,-1.757747923180461,-1.4558315535023807
2024-12-07 18:29:22.297966600,2.724966552734375,-0.1218830431327223,-1.589044968944788,-1.191837941113859
2024-12-07 18:29:22.307940600,2.734940673828125,-0.162445647406578,-1.4088660964488982,-0.7947142076522111
2024-12-07 18:29:22.317914400,2.744914306640625,-0.0447580101370811,-1.3308908763647078,-0.4624631977260112
2024-12-07 18:29:22.327887600,2.7548876953125,0.1835878041565418,-1.3315437873154878,-0.3297024944871664
2024-12-07 18:29:22.337861600,2.764861572265625,0.3617214345604181,-1.3589298068910836,-0.1715294098332524
2024-12-07 18:29:22.347835600,2.774835693359375,0.2285848837465047,-1.1820359474152329,0.1319387193314731
2024-12-07 18:29:22.357809700,2.7848095703125,-0.1364512283198535,-0.8954413577705621,0.5928669625751674
2024-12-07 18:29:22.367783400,2.794783447265625,-0.6541822858899832,-0.5498977355509996,1.1415209816753864
2024-12-07 18:29:22.377757400,2.80475732421875,-1.0979315769262612,-0.2929424973666668,1.5915065367527306
2024-12-07 18:29:22.387730700,2.814730712890625,-1.7171056777991354,0.4346913937032222,2.01361975004226
2024-12-07 18:29:22.397704700,2.82470458984375,-2.375359597042203,0.9470657465457916,2.408590104862302
2024-12-07 18:29:22.407678700,2.8346787109375,-2.81505858977437,0.8169839071273803,2.2142336539320646
2024-12-07 18:29:22.417652500,2.844652587890625,-3.75890069809854,1.1774965504199266,2.306636189427972
2024-12-07 18:29:22.427626500,2.85462646484375,-3.937109731826186,0.8407546588152647,2.2842709206238387
2024-12-07 18:29:22.437600500,2.8646005859375,-3.215402600456774,0.3889829509735107,2.009544901818782
2024-12-07 18:29:22.447573800,2.87457373046875,-2.1078722973190245,0.2113514248728752,1.8352210389614103
2024-12-07 18:29:22.457547500,2.884547607421875,-1.100457003750652,0.2315145074576139,1.722077182601392
2024-12-07 18:29:22.467521500,2.894521484375,-0.5678681303970515,0.308455123797059,1.5981632181629537
2024-12-07 18:29:22.477495600,2.90449560546875,-0.6049589669071137,0.2806336354136466,1.6120725010499355
2024-12-07 18:29:22.487469300,2.91446923828125,-0.9995663336336612,0.0445376453846693,1.7005471955776217
2024-12-07 18:29:22.497443300,2.924443359375,-1.4645714709274469,-0.2292833874046802,1.837308512759953
2024-12-07 18:29:22.507416600,2.93441650390625,-1.703170968209952,-0.4805711013466119,1.8541560410559177
2024-12-07 18:29:22.517390600,2.944390625,-1.595157168214768,-0.6332119785755872,1.6402401725225149
2024-12-07 18:29:22.527364600,2.954364501953125,-1.1926344983190298,-0.5853337905913591,1.227509120084345
2024-12-07 18:29:22.537338400,2.96433837890625,-0.7475713482052088,-0.1457014333546161,0.6526107987895607
2024-12-07 18:29:22.547312400,2.9743125,-0.4109159658402204,0.4946323599249124,0.0837482505276799
2024-12-07 18:29:22.557286400,2.984286376953125,-0.2667249370485544,1.0462152720838784,-0.3916958631940185
2024-12-07 18:29:22.567259600,2.994259765625,-0.2702607099592685,1.4062065218508242,-0.6745698248803615
2024-12-07 18:29:22.577233700,3.004233642578125,-0.3317962518960237,1.4743015684336422,-0.8165009459160267
2024-12-07 18:29:22.587207700,3.014207763671875,-0.3897610957391559,1.4036878170281648,-0.8152974153451621
2024-12-07 18:29:22.597181400,3.024181396484375,-0.4621769281305372,1.3048054179936646,-0.5971092763200402
2024-12-07 18:29:22.607155500,3.034155517578125,-0.2750087812691927,1.366827282142639,-0.191686208807677
2024-12-07 18:29:22.617129500,3.04412939453125,0.088064506291598,1.4453841015070676,-0.0340456235952675
2024-12-07 18:29:22.627102700,3.054102783203125,0.359715793826431,1.3469792568564414,-0.0242446528099477
2024-12-07 18:29:22.637076700,3.06407666015625,0.4603437213540077,0.7384224115878343,-0.2055504835091531
2024-12-07 18:29:22.647050500,3.074050537109375,0.2911598517335951,-0.0218792388528585,-0.6301968685381114
2024-12-07 18:29:22.657024500,3.0840244140625,-0.056543140476942,-0.6230483119577169,-1.1528282653704285
2024-12-07 18:29:22.666998500,3.09399853515625,-0.404602691040188,-1.4268056577652692,-2.190494320295751
2024-12-07 18:29:22.676972500,3.10397265625,-0.6448170761734247,-1.7533897279709576,-3.263060131427645
2024-12-07 18:29:22.686945500,3.113945556640625,-0.6795191178508102,-1.6465490634083746,-3.946046779258549
2024-12-07 18:29:22.696919600,3.12391943359375,-0.4988122759580612,-1.4229688560813665,-4.108089691083133
2024-12-07 18:29:22.706893600,3.1338935546875,-0.3825054255224764,-1.1224439407616853,-3.8701545029282567
2024-12-07 18:29:22.716867300,3.143867431640625,-0.3724690385460853,-0.7644418189853429,-3.2059716320276257
2024-12-07 18:29:22.726841300,3.15384130859375,-0.232318225055933,-0.3927677302092313,-2.289619295914471
2024-12-07 18:29:22.736815400,3.1638154296875,0.0912812763810157,-0.008657353708148,-1.2788473853945732
2024-12-07 18:29:22.746788600,3.17378857421875,0.6060398940116166,0.3483358832865953,-0.2208946215048432
2024-12-07 18:29:22.756762600,3.1837626953125,1.1884966678619384,0.4553396294564008,0.6303105580456555
2024-12-07 18:29:22.766736400,3.193736328125,1.6894610072873533,0.2142693581461906,1.0938155929747968
2024-12-07 18:29:22.776710400,3.20371044921875,2.0321248362869024,0.0243909294128417,1.3853256463855503
2024-12-07 18:29:22.786684400,3.213684326171875,2.277510048186779,-0.0807598823666572,1.616081444430351
2024-12-07 18:29:22.796658400,3.223658447265625,2.4319949458472427,-0.0929413185477256,1.744836126898229
2024-12-07 18:29:22.806631700,3.233631591796875,2.4301129314929244,-0.0355465296775102,1.7596040724411606
2024-12-07 18:29:22.816605400,3.24360546875,2.3156834192365405,0.1104892501980066,1.739223401582986
2024-12-07 18:29:22.826579500,3.253579345703125,1.9997072522848844,0.2968237227141857,1.6077748038560151
2024-12-07 18:29:22.836553500,3.263553466796875,1.541705125620961,0.5287427193194627,1.4274752275899052
2024-12-07 18:29:22.846527500,3.273527587890625,1.2696692226827144,0.7284381931900977,1.1693017727222292
2024-12-07 18:29:22.856501500,3.28350146484375,1.1263532231599092,0.7127630696743726,0.613771657307446
2024-12-07 18:29:22.866474800,3.293474853515625,0.9874075476758182,0.638994069108367,-0.0493602432355284
2024-12-07 18:29:22.876448500,3.303448486328125,0.8668348564893007,0.5591255826234817,-0.7149564150001854
2024-12-07 18:29:22.886422500,3.313422607421875,0.7530489758986979,0.4477998816013336,-1.2529267621964215
2024-12-07 18:29:22.896396500,3.323396484375,0.5330938272010535,0.377605816912651,-1.5979520596303045
2024-12-07 18:29:22.906370600,3.33337060546875,0.3054817340094596,0.2598825238078832,-1.770747543876618
2024-12-07 18:29:22.916344600,3.343344482421875,0.0620989479731768,0.1836123540759086,-1.7905246958836911
2024-12-07 18:29:22.926317600,3.353317626953125,-0.0634475861031562,0.1206236907213926,-1.6102651593670247
2024-12-07 18:29:22.936291600,3.36329150390625,-0.0129751438420265,0.0476437947064638,-1.3788573271542788
2024-12-07 18:29:22.946265300,3.373265380859375,0.028760230538249,-0.0547650248885154,-1.13155488345623
2024-12-07 18:29:22.956239400,3.3832392578125,0.236430994137004,-0.1712543922841548,-0.9018664223819972
2024-12-07 18:29:22.966213400,3.39321337890625,0.2872048304975033,0.0604530073970556,-0.5865982575692236
2024-12-07 18:29:22.976187400,3.4031875,0.2278063736546784,-0.0274514860272407,-0.3342079892128706
2024-12-07 18:29:22.986160600,3.41316064453125,0.1669950543392449,-0.2397118424385786,-0.1071410357486456
2024-12-07 18:29:22.996134400,3.423134521484375,0.3197194451332092,-0.4010948290497064,0.1461764304552227
2024-12-07 18:29:23.006108400,3.4331083984375,0.4878361239135265,-0.2079027457237243,0.4213394524380564
2024-12-07 18:29:23.016082400,3.44308251953125,0.5651385593026876,-0.2601613407492637,0.4505442118734121
2024-12-07 18:29:23.026056400,3.453056396484375,0.5965093741981312,-0.3232207312524318,0.2956801787022501
2024-12-07 18:29:23.036030500,3.463030517578125,0.5668927460262552,-0.2542015555620193,0.2195393344383686
2024-12-07 18:29:23.046003500,3.47300341796875,0.4432657453030347,-0.1100730706125497,0.2764563497290015
2024-12-07 18:29:23.055977500,3.4829775390625,0.2912245144676417,0.0359627092629671,0.4072512327875942
2024-12-07 18:29:23.065951500,3.492951416015625,0.2006961753457784,0.0201081375271081,0.3503005344230681
2024-12-07 18:29:23.075925500,3.502925537109375,0.1345919372539967,0.2358580896198749,0.3475607341956347
2024-12-07 18:29:23.085899500,3.5128994140625,0.2109884367793798,0.1406166774362325,0.3347672305308282
2024-12-07 18:29:23.095873500,3.52287353515625,0.2998515826353803,0.0433843836963176,0.3242669523697346
2024-12-07 18:29:23.105846500,3.532846435546875,0.3581114273697137,-0.070099956664443,0.2351231264088302
2024-12-07 18:29:23.115820500,3.542820556640625,0.356885684967041,-0.162240480223298,0.1565799702435731
2024-12-07 18:29:23.125794600,3.552794677734375,0.3455921375364065,-0.1532733299136161,0.1127075838346034
2024-12-07 18:29:23.135768600,3.5627685546875,0.2429910102397203,-0.1595417426586151,-0.0172094204109162
2024-12-07 18:29:23.145742600,3.57274267578125,0.0689350045382976,-0.1447714590281248,-0.1237514673531055
2024-12-07 18:29:23.155716600,3.582716552734375,-0.0479214426040649,-0.1765852319180965,-0.2177870108783245
2024-12-07 18:29:23.165689300,3.592689453125,-0.2071258978660218,0.0268652105718851,-0.3075919310964644
2024-12-07 18:29:23.175663400,3.602663330078125,-0.4280798666089773,-0.0290764568805694,-0.3956108446806669
2024-12-07 18:29:23.185637000,3.61263720703125,-0.5205956532210111,-0.1166530335247516,-0.4571916139986365
2024-12-07 18:29:23.195611100,3.622611083984375,-0.5419207653224468,-0.1686912637978792,-0.5570151663407683
2024-12-07 18:29:23.205585200,3.632585205078125,-0.4920592945665121,-0.2762812854230403,-0.4848063277635723
2024-12-07 18:29:23.215559200,3.64255908203125,-0.4208580986618995,-0.253527017301321,-0.2343294918131083
2024-12-07 18:29:23.225532200,3.6525322265625,-0.3836152864605188,-0.2421165654927492,0.030868089537695
2024-12-07 18:29:23.235506200,3.662506103515625,-0.3221902191609144,-0.2562362762600183,0.2530474901560693
2024-12-07 18:29:23.245480000,3.67247998046875,-0.3035270197451114,-0.2779518489837646,0.4211185762289911
2024-12-07 18:29:23.255454000,3.682453857421875,-0.3005985650777816,-0.2199918274462222,0.5512867422239854
2024-12-07 18:29:23.265428000,3.692427978515625,-0.2904956887364387,0.0786468357354402,0.7471138136960566
2024-12-07 18:29:23.275402000,3.702402099609375,-0.4178162467479706,0.0495171873629093,0.5727896220451221
2024-12-07 18:29:23.285375200,3.712375244140625,-0.5530231740951538,0.0538970098823308,0.3687769790951162
2024-12-07 18:29:23.295349200,3.722349365234375,-0.6351660352528095,-0.0573702389508485,0.2095325388826429
2024-12-07 18:29:23.305323000,3.732322998046875,-0.4989198279857635,0.0106885672748088,0.1827760128496214
2024-12-07 18:29:23.315297000,3.742297119140625,-0.6442974362134933,0.1953898856312036,0.1523081381432712
2024-12-07 18:29:23.325271000,3.75227099609375,-0.850371797466278,-0.0123059393435716,0.1041355703223496
2024-12-07 18:29:23.335245000,3.7622451171875,-1.039708958929777,0.0287000247836112,0.1445405363490804
2024-12-07 18:29:23.345218300,3.77221826171875,-1.0884569154858588,-0.0648328299164772,0.2329340188667178
2024-12-07 18:29:23.355192000,3.782192138671875,-0.8618120598912239,-0.1760679300457239,0.3812888528069481
2024-12-07 18:29:23.365166000,3.792166015625,-0.7053823117733001,0.132961778768897,0.7845513447519391
2024-12-07 18:29:23.375140000,3.80214013671875,-0.5719651904523372,0.1808954963326454,1.1589833539340644
2024-12-07 18:29:23.385114000,3.812114013671875,-0.367029477840662,0.1731178480684757,1.4755541988432406
2024-12-07 18:29:23.395088100,3.822088134765625,-0.2409972060739993,0.1195762274950742,1.680728104124963
2024-12-07 18:29:23.405061000,3.83206103515625,-0.1940413936316967,-0.0476291816592216,1.7323830341689288
2024-12-07 18:29:23.415035100,3.84203515625,-0.2649357520768419,-0.0904395648598671,1.7568449829913677
2024-12-07 18:29:23.425009200,3.852009033203125,-0.3868985093822703,-0.0080482818990945,1.803857932448387
2024-12-07 18:29:23.434983200,3.861983154296875,-0.6012555458119139,-0.0407364995360374,1.6344328014180065
2024-12-07 18:29:23.444957200,3.871957275390625,-0.7303086632370949,-0.2678139013290405,1.4182424120813608
2024-12-07 18:29:23.454931200,3.88193115234375,-0.6102887470951304,-0.2039174754798412,1.233941491219401
2024-12-07 18:29:23.464904200,3.891904296875,-0.7861293346583843,0.8352607375741005,1.6923390469416977
2024-12-07 18:29:23.474878000,3.9018779296875,-1.019386301869154,1.079247188591957,1.742090627582371
2024-12-07 18:29:23.486722300,3.913722412109375,-1.111987428677082,0.595211041483283,1.4528677352607249
2024-12-07 18:29:23.496696300,3.9236962890625,-1.0374749162673949,0.4118406794697046,1.4179112804308531
2024-12-07 18:29:23.506670300,3.93367041015625,-0.9384101464033128,0.4453641788870096,1.5600332478635013
2024-12-07 18:29:23.516644400,3.943644287109375,-0.8458300623834133,0.7033850004762411,1.7445104020752011
2024-12-07 18:29:23.526617000,3.9536171875,-0.8042658798515796,0.8855179296493529,1.6487920200295745
2024-12-07 18:29:23.536591000,3.963591064453125,-0.7139841359019279,1.4606699334442614,1.6023840507283806
2024-12-07 18:29:23.546565000,3.973565185546875,-0.6543138033151626,1.6468530147910116,1.2673062929436565
2024-12-07 18:29:23.556539100,3.9835390625,-0.6874924348175525,1.593918127939105,0.5871246195308863
2024-12-07 18:29:23.566513200,3.99351318359375,-1.017616369587183,1.3204045536637306,-0.1866718877770006
2024-12-07 18:29:23.576487200,4.003487060546875,-1.32120768674016,1.0741600945860146,-0.6752288002457469
2024-12-07 18:29:23.586460200,4.013460205078125,-1.4744845237851143,0.8609943137675523,-0.8533871997646987
2024-12-07 18:29:23.596434200,4.02343408203125,-1.4514356566309927,0.5841004494041204,-0.8811499436981975
2024-12-07 18:29:23.606408200,4.033408203125,-1.312005558630824,0.310607333394885,-0.7799852058801799
2024-12-07 18:29:23.616382200,4.04338232421875,-1.292437519329786,0.1558802975416183,-0.5877937509641051
2024-12-07 18:29:23.626356200,4.053356201171875,-1.5654203477293251,0.1450835937172174,-0.3407981447255239
2024-12-07 18:29:23.636330200,4.063330322265625,-1.7924252688080071,0.3078197485029697,-0.0940441652230918
2024-12-07 18:29:23.646303200,4.07330322265625,-1.736219981983304,0.6199602828145027,0.0573523379679769
2024-12-07 18:29:23.656277200,4.08327734375,-1.8780447200350463,0.9568547346323728,-0.0991266561191529
2024-12-07 18:29:23.666251300,4.093251220703125,-1.9177812487483024,1.154673893237114,-0.9024052784990518
2024-12-07 18:29:23.676225300,4.103225341796875,-1.695861083588004,1.26760761397779,-2.0832775158971546
2024-12-07 18:29:23.686199300,4.11319921875,-0.6547771830432116,1.2160767487049102,-2.8408824745997783
2024-12-07 18:29:23.696173300,4.12317333984375,0.7840702101714908,1.2910720761954784,-2.943696660125255
2024-12-07 18:29:23.706146300,4.133146240234375,1.6384667331092058,1.4006097247570752,-2.962830399662256
2024-12-07 18:29:23.716120300,4.143120361328125,1.7397542935892938,1.787847293367982,-2.298082880616188
2024-12-07 18:29:23.726094300,4.15309423828125,1.5576796704746785,2.186096669858694,-1.426870393564552
2024-12-07 18:29:23.736068400,4.163068359375,1.5086004361376166,2.2325316732972857,-0.9398954165250062
2024-12-07 18:29:23.746042400,4.17304248046875,1.519060455353558,2.1035691932976244,-0.4634669679410755
2024-12-07 18:29:23.756016000,4.18301611328125,1.8638313396349548,1.681013643068075,-0.0023664368703961
2024-12-07 18:29:23.765989000,4.192989013671875,2.279036673232168,1.1208294913023709,0.4096763410426676
2024-12-07 18:29:23.775963100,4.202963134765625,2.5597183855712413,0.3707750941097736,0.7770102086573839
2024-12-07 18:29:23.785937200,4.212937255859375,2.397831687221676,-0.2338999412894248,0.6641657736353576
2024-12-07 18:29:23.795911200,4.2229111328125,1.782841155643761,-0.5987988368421793,0.4641811075598001
2024-12-07 18:29:23.806508000,4.233508056640625,1.3360615570008754,-0.7125783607572317,0.302538447099179
2024-12-07 18:29:23.816482000,4.24348193359375,1.1769114440083503,-0.7124906824737787,0.3429046520181
2024-12-07 18:29:23.826456000,4.2534560546875,1.1783142965435982,-0.7524877618193626,0.2992389671623706
2024-12-07 18:29:23.836430000,4.26343017578125,1.113052135299146,-0.8012620218604802,0.0747943980909884
2024-12-07 18:29:23.846404000,4.273404052734375,1.383511874961853,-0.8039601749032735,-0.0501842729695141
2024-12-07 18:29:23.856378000,4.283378173828125,1.6535171488553284,-0.8623772925585508,-0.0904531549938023
2024-12-07 18:29:23.866351000,4.29335107421875,1.566379548150301,-0.7635019077867269,-0.1650223660267889
2024-12-07 18:29:23.876325000,4.3033251953125,1.191454640884697,-0.4877379242360591,-0.2820100383333861
2024-12-07 18:29:23.886299100,4.313299072265625,0.9298571298524736,-0.3058341276437044,-0.5292718577601015
2024-12-07 18:29:23.896273200,4.323273193359375,0.8579349261969328,-0.2215408104538917,-0.7608902639836073
2024-12-07 18:29:23.906247200,4.3332470703125,0.8507575819134712,-0.3990016561627387,-1.074755576261133
2024-12-07 18:29:23.916221200,4.34322119140625,0.6942214508116245,-0.7819003187865018,-1.5777961374387144
2024-12-07 18:29:23.926194200,4.353194091796875,0.5585071584641933,-1.3239502634465694,-2.143532516504079
2024-12-07 18:29:23.936168200,4.363168212890625,0.6305057883568108,-1.802058189550042,-2.626187584517896
2024-12-07 18:29:23.946142200,4.37314208984375,0.9438616898074744,-2.154656990978121,-2.8576731581419703
2024-12-07 18:29:23.956116200,4.3831162109375,1.1207787840284409,-2.5114573357492684,-2.977006224530935
2024-12-07 18:29:23.966090200,4.39309033203125,1.001147026953846,-2.805170817488432,-3.055131666740775
2024-12-07 18:29:23.976064300,4.403064208984375,0.7294944242447614,-3.0001462770998475,-3.120286860479414
2024-12-07 18:29:23.986037200,4.413037353515625,0.4295329880267381,-3.0741929255634544,-3.220939776317775
2024-12-07 18:29:23.996011300,4.42301123046875,0.0450479329943656,-2.854887911337614,-3.0540596535950897
2024-12-07 18:29:24.005985300,4.4329853515625,-0.2015285345166921,-2.545274265155196,-2.452971536771953
2024-12-07 18:29:24.015959300,4.442959228515625,-0.3619368308767676,-2.302601819345355,-1.855728843330592
2024-12-07 18:29:24.025933300,4.452933349609375,-0.8273480647534132,-1.9989660785287613,-1.3538380367100238
2024-12-07 18:29:24.035907300,4.4629072265625,-1.4574623695746065,-1.611191918823123,-0.6936782838456332
2024-12-07 18:29:24.045880000,4.472880126953125,-1.799557604905963,-1.3105500991255044,-0.0143381758235394
2024-12-07 18:29:24.055854000,4.48285400390625,-2.019902483573556,-0.9184078073382376,0.5669055689752102
2024-12-07 18:29:24.065828000,4.492828125,-2.137118119417131,-0.3823860369265079,1.255623600064963
2024-12-07 18:29:24.075802000,4.502802001953125,-2.217662020945549,0.2836912694185972,2.1674467683158816
2024-12-07 18:29:24.085776100,4.512776123046875,-2.283739151834697,1.0081862779408692,3.156986944106221
2024-12-07 18:29:24.095750100,4.522750244140625,-2.326647880843282,1.7069436186164617,4.204171938005089
2024-12-07 18:29:24.105723100,4.53272314453125,-2.291512708445638,2.230023489868641,4.936785955575108
2024-12-07 18:29:24.115697200,4.542697265625,-2.1522743336252868,2.5287825645595787,5.126781873208284
2024-12-07 18:29:24.125671200,4.552671142578125,-1.9286480951994656,2.392169277545809,4.746814880122244
2024-12-07 18:29:24.135645200,4.562645263671875,-1.8559573913894591,1.8405261596322056,3.83775270101726
2024-12-07 18:29:24.145619200,4.572619140625,-1.676217056441307,1.1415706660360097,2.942485530769825
2024-12-07 18:29:24.155593200,4.58259326171875,-1.367045601068437,0.4330155694454908,2.3649410788804293
2024-12-07 18:29:24.165566200,4.592566162109375,-1.2392146093167364,-0.4766612344264984,2.0778858859866856
2024-12-07 18:29:24.175540000,4.6025400390625,-1.218150632369518,-1.3934656982213258,1.8144471310019488
2024-12-07 18:29:24.185514000,4.612513916015625,-1.302136929436773,-1.8660533995985984,1.5064583095423876
2024-12-07 18:29:24.195488000,4.622488037109375,-1.406078657687455,-1.85390878829658,1.015834016215056
2024-12-07 18:29:24.205462000,4.6324619140625,-1.4004694395035504,-1.485658244228363,0.30901275767982
2024-12-07 18:29:24.215436000,4.64243603515625,-1.135087149235606,-0.8931190523028373,-0.5703752909123897
2024-12-07 18:29:24.225409000,4.652408935546875,-0.4057756803423166,-0.0496983891487121,-1.5129220987290144
2024-12-07 18:29:24.235383000,4.662383056640625,0.8821521064780652,1.1528864252984523,-2.300178976112604
2024-12-07 18:29:24.245357000,4.672357177734375,2.0291786998324093,2.698063026422262,-2.6923218524217605
2024-12-07 18:29:24.255331000,4.6823310546875,2.430676995116472,4.024703844127059,-2.49156401001662
2024-12-07 18:29:24.265305000,4.69230517578125,2.038609522131085,4.369976248189807,-2.188681133393944
2024-12-07 18:29:24.275279000,4.702279052734375,0.8117332931227982,4.549817851555347,-1.566423241161555
2024-12-07 18:29:24.285252000,4.712252197265625,-1.083613567107916,4.239061465078592,-0.3082442575253546
2024-12-07 18:29:24.295226000,4.72222607421875,-2.8672786063551903,2.964069001546502,0.9377689258903265
2024-12-07 18:29:24.305200000,4.7322001953125,-3.430332176077365,1.398992937210202,1.3793056554436682
2024-12-07 18:29:24.315174100,4.742174072265625,-2.437866614359617,-0.4302525344729423,0.5047923732809723
2024-12-07 18:29:24.325148200,4.752148193359375,-0.527429298633337,-2.1569676060080525,-1.5340920202687385
2024-12-07 18:29:24.335122200,4.7621220703125,1.3501504342384636,-3.2192601526677604,-3.539131573492289
2024-12-07 18:29:24.345095200,4.77209521484375,2.438839258784056,-3.5130630662560463,-4.584631390783191
2024-12-07 18:29:24.355069200,4.782069091796875,2.6729402756035325,-3.307824571305513,-4.72928360734582
2024-12-07 18:29:24.365043000,4.79204296875,2.3790227957248686,-2.839677482724189,-4.4034231752395625
2024-12-07 18:29:24.375017000,4.802016845703125,1.9209816522248089,-2.257299034807086,-3.8391426940709352
2024-12-07 18:29:24.384991000,4.811990966796875,1.3635096820272503,-1.375831841853261,-2.994317717076838
2024-12-07 18:29:24.394965000,4.821965087890625,0.8961234948158263,-0.3137409552454948,-1.896643475912512
2024-12-07 18:29:24.404938000,4.83193798828125,0.797353323984146,0.7648492307424545,-0.8184266532815992
2024-12-07 18:29:24.414912000,4.841912109375,0.901137523585558,1.5957675551980732,0.1114008120849728
2024-12-07 18:29:24.424886000,4.851885986328125,1.022411202648282,2.019761029276252,0.8960265372473746
2024-12-07 18:29:24.434860000,4.861860107421875,1.0512953518271446,1.6901929748237132,1.3756656915061174
2024-12-07 18:29:24.444834000,4.871833984375,1.0130484040845185,0.9439408925235272,1.6832617142558095
2024-12-07 18:29:24.454808000,4.88180810546875,0.9277426219165325,-0.0285638311833143,1.6974226338163017
2024-12-07 18:29:24.464782000,4.891781982421875,0.8378669745497405,-0.6495078643381595,1.6052885399982333
2024-12-07 18:29:24.474755000,4.901755126953125,0.8115517990760505,-0.6709966425687074,1.4595137491464614
2024-12-07 18:29:24.484729000,4.91172900390625,1.0274632253408431,-0.2337806988239288,1.0351936003971844
2024-12-07 18:29:24.494703000,4.921703125,1.2092092010229825,0.338769013518095,0.5754494523715228
2024-12-07 18:29:24.504677000,4.931677001953125,1.2395365347474814,0.7641706008285284,0.216081376004219
2024-12-07 18:29:24.514651100,4.941651123046875,1.256544806563109,0.9075672643721104,-0.020426592359133
2024-12-07 18:29:24.524625200,4.951625244140625,1.1493518944967538,0.8023468944877385,-0.1264160469198599
2024-12-07 18:29:24.534598100,4.96159814453125,0.9211334329098464,0.5252145451933146,-0.1434354246513918
2024-12-07 18:29:24.544572200,4.971572265625,0.6813034439843147,0.2038940946042537,-0.117622536144033
2024-12-07 18:29:24.554546200,4.981546142578125,0.4783750526070594,0.0187941323190927,-0.0868626562211662
2024-12-07 18:29:24.564520200,4.991520263671875,0.3920288945406675,-0.0538186839491128,0.0039542540511116
2024-12-07 18:29:24.574494200,5.001494140625,0.4062356990694999,-0.0378495459228754,0.1094904118863865
2024-12-07 18:29:24.584468200,5.01146826171875,0.6411234823524952,-0.0397650241553783,0.1625510805424302
2024-12-07 18:29:24.594441000,5.02144091796875,1.0282253688197582,-0.1080985556691885,0.1827403570143506
2024-12-07 18:29:24.604415000,5.0314150390625,1.1518799516696483,-0.1425485222816467,0.1545005701536312
2024-12-07 18:29:24.614389000,5.041388916015625,1.177850186163187,-0.2619131528526544,0.2100757789138704
2024-12-07 18:29:24.624363000,5.051363037109375,1.306294779768586,-0.4889437928944826,0.1590427070952952
2024-12-07 18:29:24.634337000,5.0613369140625,1.3676976352363823,-0.6125602356910705,0.0171381818056106
2024-12-07 18:29:24.644311000,5.07131103515625,1.3373439980268478,-0.6384393578350543,-0.068290861415863
2024-12-07 18:29:24.654284000,5.081283935546875,1.2124871997803448,-0.501781647157669,-0.1637370754566043
2024-12-07 18:29:24.664258000,5.091258056640625,1.049907112339139,-0.3560930732846259,-0.2418330723762512
2024-12-07 18:29:24.674232000,5.101232177734375,1.0095599043816328,-0.1568535264879465,-0.1576147566514089
2024-12-07 18:29:24.684206000,5.1112060546875,1.0075327824681997,0.0170645320475101,-0.1056016608195379
2024-12-07 18:29:24.694180000,5.12118017578125,0.6807979786802083,-0.0193961898654699,-0.2458079308239742
2024-12-07 18:29:24.704154000,5.131154052734375,0.4270797861883416,-0.0895545987188816,-0.3288879997665062
2024-12-07 18:29:24.714127000,5.141127197265625,0.1193517710894346,-0.0563531708627939,-0.3249658578867092
2024-12-07 18:29:24.724101000,5.15110107421875,-0.1387082134664058,-0.0094476273030042,-0.2924302735282108
2024-12-07 18:29:24.734075100,5.1610751953125,-0.3362082231193781,0.0640939942479133,-0.2195745518822222
2024-12-07 18:29:24.744049200,5.171049072265625,-0.6313356633096933,-0.0097416418135166,-0.2533203522806987
2024-12-07 18:29:24.754023200,5.181023193359375,-0.8483569505125284,-0.1018406643182039,-0.233287946870923
2024-12-07 18:29:24.763997200,5.1909970703125,-0.9785381586521864,-0.0018634557843208,-0.1518717925526201
2024-12-07 18:29:24.773970200,5.20097021484375,-1.1632914994567631,-0.0361070861697196,-0.1640550918972119
2024-12-07 18:29:24.783944200,5.210944091796875,-1.2798054167717694,-0.0437368503957986,-0.1435418441679328
2024-12-07 18:29:24.793918200,5.220918212890625,-1.4308727610737084,0.0026011224091053,-0.0478966369563713
2024-12-07 18:29:24.803892200,5.230892333984375,-1.5218845728635788,0.036617373779416,0.0235276271143928
2024-12-07 18:29:24.813866200,5.2408662109375,-1.4333318446636198,0.2031914992928505,0.249708153132908
2024-12-07 18:29:24.823840300,5.25084033203125,-1.2719593794465065,0.1146779340595006,0.3435198613069951
2024-12-07 18:29:24.833813000,5.26081298828125,-1.0414368056356906,-0.1132914481371641,0.449009220858477
2024-12-07 18:29:24.843787000,5.270787109375,-0.8071557560741901,-0.2675684021353721,0.6777824302513152
2024-12-07 18:29:24.853761000,5.280760986328125,-0.7023638407349586,-0.3106932581126689,0.8930858076203614
2024-12-07 18:29:24.863735000,5.290735107421875,-0.6051870765745639,-0.2504378191143274,1.0458749342136084
2024-12-07 18:29:24.873709000,5.300708984375,-0.4805892215251922,-0.2056201877444982,1.2373049763031303
2024-12-07 18:29:24.883683000,5.31068310546875,-0.2819184145271778,-0.2965560116887092,1.3856008100651205
2024-12-07 18:29:24.893656000,5.320656005859375,0.0101098906040191,-0.1866916153907775,1.5998633000791072
2024-12-07 18:29:24.903630000,5.330630126953125,0.2175929313446395,-0.1052817446827888,1.6030540589444338
2024-12-07 18:29:24.913604000,5.34060400390625,0.5009469498991966,-0.0895715498536825,1.2531539950810373
2024-12-07 18:29:24.923578000,5.350578125,0.6968740111470222,-0.0135223293960094,0.8264850181832909
2024-12-07 18:29:24.933552000,5.36055224609375,0.5214601610958576,0.0426893871694803,0.5128707580573857
2024-12-07 18:29:24.943526100,5.370526123046875,0.1058078326498158,0.0857727420926094,0.2517243517935276
2024-12-07 18:29:24.953500200,5.380500244140625,-0.2978465994885191,0.0820259567797184,0.0312183505803579
2024-12-07 18:29:24.963473200,5.39047314453125,-0.6472352432310581,0.1512853709667921,0.125879254895728
2024-12-07 18:29:24.973447200,5.400447265625,-0.9640496145725248,0.2179705507516861,0.2358068891556002
2024-12-07 18:29:24.983421200,5.410421142578125,-1.1616238585054874,0.0928501331329345,0.2434623540785163
2024-12-07 18:29:24.993395200,5.420395263671875,-1.371676475739479,0.0577086771249771,0.2285246049266308
2024-12-07 18:29:25.003369200,5.430369140625,-1.4672352833092213,-0.1145715510755777,0.3351828986596316
2024-12-07 18:29:25.013343000,5.440343017578125,-1.4326840482793748,-0.1423299110949039,0.5170659812575206
2024-12-07 18:29:25.023316200,5.450316162109375,-1.3266729664087296,-0.137775316530466,0.7806629590112716
2024-12-07 18:29:25.033290200,5.460290283203125,-1.1773369759440422,0.0643926849335432,1.21007619311586
2024-12-07 18:29:25.043264300,5.47026416015625,-0.998563294070959,0.3947662105500698,1.5602964288443326
2024-12-07 18:29:25.053238300,5.48023828125,-0.8129496101099998,0.6319114173710346,1.834385172659159
2024-12-07 18:29:25.063212000,5.4902119140625,-0.4226748292276635,0.5513526105344295,2.11316470463872
2024-12-07 18:29:25.073186000,5.50018603515625,-0.0328512992441654,0.8663076177448034,2.7124580469995734
2024-12-07 18:29:25.083159000,5.510158935546875,-0.0411970662524923,0.8619260416597128,3.0107004043400285
2024-12-07 18:29:25.093133000,5.520133056640625,-0.1330336384287103,0.6702408557653426,2.9742826447859403
2024-12-07 18:29:25.103107000,5.530107177734375,-0.2963409076333045,0.8732002998679875,2.941137038770318
2024-12-07 18:29:25.113081000,5.5400810546875,-0.4588707261919975,1.179368189510703,2.5957258107587693
2024-12-07 18:29:25.123055000,5.55005517578125,-0.4908814829587936,1.4131617478162048,1.8525003828033804
2024-12-07 18:29:25.133028900,5.56002880859375,-0.7864601740479469,1.6291858406752346,0.7497865400366485
2024-12-07 18:29:25.143002000,5.570002197265625,-1.5161200179874896,1.7183365347683428,-0.3422230994947254
2024-12-07 18:29:25.152976100,5.57997607421875,-2.185889749109745,1.795286503458023,-1.211571253979206
2024-12-07 18:29:25.162950100,5.5899501953125,-2.419215105381608,1.6233879680514334,-1.6962136964179575
2024-12-07 18:29:25.172924000,5.599923828125,-2.161763023591041,1.2043372110724448,-1.858573419106752
2024-12-07 18:29:25.182898000,5.60989794921875,-1.694583318737149,0.6608434973448515,-1.8702026282325384
2024-12-07 18:29:25.192872000,5.619871826171875,-1.1110802507042885,0.2081453223079442,-1.6842193072415887
2024-12-07 18:29:25.202845000,5.629844970703125,-0.4593226346779614,-0.1056944171369075,-1.29555872009024
2024-12-07 18:29:25.212819000,5.63981884765625,-0.1263426528900861,-0.3313900091826915,-0.7622258234363049
2024-12-07 18:29:25.222793000,5.64979296875,-0.5015297182232141,-0.3396130631268024,-0.1782541149783879
2024-12-07 18:29:25.232767000,5.65976708984375,-1.1582195299547164,-0.0948854383528232,0.1580998732872307
2024-12-07 18:29:25.242741000,5.669740966796875,-1.166810905754566,0.2098994724988937,-0.1292693539917468
2024-12-07 18:29:25.252714800,5.67971484375,-0.5122339214585722,0.5420031829088926,-0.944899800683558
2024-12-07 18:29:25.262688000,5.68968798828125,0.373015128121525,0.7900847942858934,-1.665655622677505
2024-12-07 18:29:25.272662000,5.699662109375,1.070365524608642,1.0542875193804502,-2.0224846090212463
2024-12-07 18:29:25.282636000,5.709635986328125,1.6255467535205184,1.437540986791253,-2.05196263244003
2024-12-07 18:29:25.292610000,5.719610107421875,1.8455553859710687,1.832887043055892,-1.811625936101377
2024-12-07 18:29:25.302583800,5.729583740234375,1.6953192317962646,2.24597041606307,-1.3711290709897874
2024-12-07 18:29:25.312557800,5.739557861328125,1.226826983039081,2.482564418742061,-0.8561608291964977
2024-12-07 18:29:25.322531000,5.749531005859375,0.7030079838573933,2.462673138836026,-0.4226005584150552
2024-12-07 18:29:25.332505000,5.759505126953125,0.5583277102440596,2.0853192508578298,-0.1472713860850781
2024-12-07 18:29:25.342479000,5.76947900390625,1.074954167573154,1.4263485616475342,0.0968283891141414
2024-12-07 18:29:25.352453000,5.779453125,1.777531358797848,0.6170224757969379,0.1510604761697352
2024-12-07 18:29:25.362427000,5.789427001953125,2.124296485636384,-0.0736082570463418,0.0411161465033888
2024-12-07 18:29:25.372401000,5.79940087890625,1.8624832860268647,-0.3036597062140703,0.1894784696303308
2024-12-07 18:29:25.382374000,5.809373779296875,1.4514885558620094,-0.4958966807723045,0.2095909910716116
2024-12-07 18:29:25.392348000,5.819347900390625,1.420608556690812,-0.7118027002096176,0.0278692730478942
2024-12-07 18:29:25.402322000,5.829322021484375,1.3342438400544223,-0.7321352941423654,0.0133270990848541
2024-12-07 18:29:25.412296000,5.8392958984375,1.201256926844269,-0.7173609188586473,0.0106665015734732
2024-12-07 18:29:25.422269700,5.849269775390625,1.125131864671409,-0.7165449263006448,-0.1642445135220885
2024-12-07 18:29:25.432243700,5.85924365234375,1.0078953321702775,-0.7828209407627582,-0.4950285196356475
2024-12-07 18:29:25.442217000,5.869217041015625,0.8964533112920821,-0.856875188010931,-0.76317442939803
2024-12-07 18:29:25.452191000,5.87919091796875,0.7763011836051941,-0.8659154035568237,-0.9798512870773672
2024-12-07 18:29:25.462165000,5.8891650390625,0.7772258972346783,-0.8134785293549299,-1.1303601207137106
2024-12-07 18:29:25.472139000,5.899138916015625,0.8930155919283628,-0.7127654077619314,-1.121037434964627
2024-12-07 18:29:25.482112800,5.90911279296875,0.9431906586781144,-0.7176333060592412,-1.1346579640381038
2024-12-07 18:29:25.492086800,5.919086669921875,1.0126225068226455,-0.8216255954533815,-1.208031389415264
2024-12-07 18:29:25.502060000,5.92906005859375,1.1310843433350324,-1.0373124191820622,-1.4065544585056602
2024-12-07 18:29:25.512034000,5.939033935546875,1.323591513136774,-1.4009873258978127,-2.0216829372495413
2024-12-07 18:29:25.522008000,5.949008056640625,1.3521728799767792,-1.809663988378644,-2.6454461194783447
2024-12-07 18:29:25.531981800,5.95898193359375,1.1849433592945338,-2.138932183101774,-2.946567831647396
2024-12-07 18:29:25.541955800,5.968955810546875,0.9970730555132032,-2.3517191937357187,-2.9084222253873944
2024-12-07 18:29:25.551929900,5.978929931640625,0.826154763315618,-2.467418872058392,-2.679317409420013
2024-12-07 18:29:25.561903000,5.988903076171875,0.6522673921793699,-2.457764324006438,-2.299428303875774
2024-12-07 18:29:25.571877000,5.998877197265625,0.3474737134993076,-2.3563860165029764,-1.8906319605380293
2024-12-07 18:29:25.581851000,6.008850830078125,-0.0006336217284202,-2.0364812779307364,-1.4345048339657485
2024-12-07 18:29:25.591825000,6.018824951171875,-0.2706424027532338,-1.7116683090507985,-0.9424008234746754
2024-12-07 18:29:25.601799000,6.028798828125,-0.5429936552509665,-1.5013187546968458,-0.3648823828093707
2024-12-07 18:29:25.611773000,6.03877294921875,-0.8786942211091517,-1.3165110533565283,0.2102398103691637
2024-12-07 18:29:25.621746000,6.048745849609375,-1.1564034935086964,-1.145816048520803,0.7008981520965695
2024-12-07 18:29:25.631720000,6.058719970703125,-1.2873949951179324,-0.9316939898908138,1.1800130632854997
2024-12-07 18:29:25.641694000,6.06869384765625,-1.37536714695096,-0.6349094301432371,1.6011382884509862
2024-12-07 18:29:25.651667700,6.078667724609375,-1.5063782300435005,-0.2775952906310558,1.9978733148559928
2024-12-07 18:29:25.661641700,6.088641845703125,-1.6474316914618017,-0.0519388615518808,2.379403465605527
2024-12-07 18:29:25.671615700,6.09861572265625,-1.81478147752285,0.045330841588974,2.6759856346488
2024-12-07 18:29:25.681589800,6.10858984375,-1.8167670983821151,0.0628162293970584,2.7489018177777527
2024-12-07 18:29:25.691563000,6.11856298828125,-1.642280738439411,0.1127262154698371,2.705828984248638
2024-12-07 18:29:25.701536800,6.128536865234375,-1.398541686311364,0.2555669986963272,2.602677237331867
2024-12-07 18:29:25.711510800,6.1385107421875,-1.0389512724302707,0.4520172070354223,2.3943030747041103
2024-12-07 18:29:25.721484800,6.14848486328125,-0.7057977607063949,0.5713742388218641,2.096594239718467
2024-12-07 18:29:25.731458800,6.158458740234375,-0.5495236415416002,0.5356365704864263,1.821393004617095
2024-12-07 18:29:25.741432800,6.168432861328125,-0.8241178506605327,0.3776461489230394,1.7974167934849856
2024-12-07 18:29:25.751406000,6.178406005859375,-1.6285487118154762,0.1971247465997934,2.142379254815727
2024-12-07 18:29:25.761379800,6.1883798828125,-2.564126265141368,-0.1029863272219896,2.7330361401259897
2024-12-07 18:29:25.771353900,6.198353759765625,-3.014884996548295,-0.539480970954895,3.157488463887572
2024-12-07 18:29:25.781328000,6.208327880859375,-2.64368320145905,-0.9281453574985266,3.058281070682406
2024-12-07 18:29:25.791302000,6.218302001953125,-1.829950258951634,-0.8703641996592283,2.451166679307073
2024-12-07 18:29:25.801276000,6.22827587890625,-0.9042277446858584,-0.4993026898235082,1.4992003012381494
2024-12-07 18:29:25.811249000,6.238248779296875,0.06000190262869,0.0093272157937288,0.4237422757960856
2024-12-07 18:29:25.821223000,6.248222900390625,1.0535049907006322,0.8751046721845864,-0.7606766212329268
2024-12-07 18:29:25.831197000,6.258197021484375,1.9995618524648249,2.2768805181115863,-1.9793352031245823
2024-12-07 18:29:25.841171000,6.2681708984375,2.6565987971335647,3.713562257725,-2.9553841753095385
2024-12-07 18:29:25.851145000,6.27814501953125,2.452889411446452,4.784565349584818,-3.504712586539984
2024-12-07 18:29:25.861119000,6.288118896484375,1.3680261365383863,5.911438797226547,-3.627737493184209
2024-12-07 18:29:25.871092000,6.298092041015625,-0.7868323683612048,6.819811532762646,-2.885688123270869
2024-12-07 18:29:25.881065700,6.308065673828125,-3.511457384625077,5.693784472817182,-0.6926976022452116
2024-12-07 18:29:25.891039700,6.318039794921875,-4.973067229267954,2.720101839751005,1.1235114238627255
2024-12-07 18:29:25.901013800,6.328013671875,-4.210861206510663,-0.1274292790830135,1.187775367850065
2024-12-07 18:29:25.910987800,6.33798779296875,-2.047626502931863,-2.269732399922609,0.0010766893208026
2024-12-07 18:29:25.920961800,6.3479619140625,0.3855536341119557,-3.621415888947248,-1.7864776124499735
2024-12-07 18:29:25.930934800,6.357934814453125,2.2139517682507632,-4.179352554047108,-3.303388342423737
2024-12-07 18:29:25.940908800,6.36790869140625,2.958119737753272,-4.23002008048892,-4.280797497045993
2024-12-07 18:29:25.950882800,6.3778828125,3.0341812331706284,-3.789677529156208,-4.541862800897658
2024-12-07 18:29:25.960856800,6.38785693359375,2.766725059238076,-3.095141605567932,-4.479279211212695
2024-12-07 18:29:25.970830800,6.397830810546875,2.315775335303694,-2.104873261633516,-4.149835659922659
2024-12-07 18:29:25.980804900,6.407804931640625,1.7895879995554684,-1.0049234767526387,-3.1514941919088364
2024-12-07 18:29:25.990777900,6.41777783203125,1.2477677719980478,-0.0495627800703048,-1.8284437999114391
2024-12-07 18:29:26.000751900,6.427751953125,0.9751455936044454,0.8252531383007764,-0.5708681159306317
2024-12-07 18:29:26.010726000,6.437725830078125,1.0612141768384724,1.46227678411901,0.5561689978402108
2024-12-07 18:29:26.020700000,6.447699951171875,1.3884142600506544,1.61283851698637,1.1494717214841397
2024-12-07 18:29:26.030674000,6.457673828125,1.737124821868539,1.347985219028592,1.2626324559137223
2024-12-07 18:29:26.040648000,6.46764794921875,1.9311486798435449,0.7988081989675759,1.2052451927628367
2024-12-07 18:29:26.050621000,6.477620849609375,1.935935914120078,0.2416372575432062,1.1924052196078
2024-12-07 18:29:26.060595000,6.487594970703125,1.945734839078784,-0.0786246239036321,1.1913978691961615
2024-12-07 18:29:26.070568700,6.497568603515625,1.95092773154676,-0.1893085198909044,1.1001486684538424
2024-12-07 18:29:26.080542700,6.507542724609375,1.766858281353116,-0.0430465300440788,0.6491722757082432
2024-12-07 18:29:26.090516700,6.517516845703125,1.5304020797096192,0.2892681927680969,0.0613110855311155
2024-12-07 18:29:26.100490800,6.52749072265625,1.2740361857205629,0.6052168871909379,-0.5678535173498094
2024-12-07 18:29:26.110463700,6.537463623046875,1.1383582067955285,0.8133557797580957,-1.0684541380293666
2024-12-07 18:29:26.120437800,6.547437744140625,1.0689267970424146,0.8817641300737857,-1.4345929506406188
2024-12-07 18:29:26.130411800,6.557411865234375,0.8815355820149183,0.7593629082858562,-1.596279011851549
2024-12-07 18:29:26.140385800,6.5673857421875,0.466534977209568,0.5405722733229399,-1.6902891286745667
2024-12-07 18:29:26.150359800,6.57735986328125,-0.0287438639253377,0.2971720977604389,-1.689547954918444
2024-12-07 18:29:26.160333800,6.587333740234375,-0.1162497134208679,-0.0061205287069082,-1.5253921425931154
2024-12-07 18:29:26.170306800,6.597306884765625,0.0712292529553175,-0.207737326028943,-1.1943091535329815
2024-12-07 18:29:26.180281300,6.60728125,0.267057530003786,-0.3073421941190958,-0.7967322694763541
2024-12-07 18:29:26.190255400,6.61725537109375,0.6032470484226942,-0.4106389024645089,-0.3897910524860024
2024-12-07 18:29:26.200229400,6.6272294921875,0.8820394398838282,-0.3011813334017992,0.0215280873276293
2024-12-07 18:29:26.210203400,6.637203369140625,1.1013332751285283,-0.2085322757989168,0.416407256732881
2024-12-07 18:29:26.220177400,6.647177490234375,1.245055590429902,-0.2407499533146619,0.7089509640403091
2024-12-07 18:29:26.230150400,6.657150390625,1.3325444887906313,-0.1775724893897771,0.9609856969572604
2024-12-07 18:29:26.240124400,6.66712451171875,1.3544628906100988,-0.223007960397005,1.0854657708458602
2024-12-07 18:29:26.250098400,6.677098388671875,1.0517921954333782,-0.269637025102973,0.8789856052711605
2024-12-07 18:29:26.260072400,6.687072509765625,0.7696008091837168,-0.194678522491455,0.6325958925038576
2024-12-07 18:29:26.270046500,6.69704638671875,0.5207376920402049,-0.0602455021262168,0.3900120748255402
2024-12-07 18:29:26.280020500,6.7070205078125,0.3973743472218513,-0.0575683918714523,0.1358080715781077
2024-12-07 18:29:26.289993500,6.716993408203125,0.163988237206079,-0.0997831472665071,-0.1256821431547403
2024-12-07 18:29:26.299967500,6.726967529296875,-0.05263035094738,-0.1142237605512142,-0.2003246386196464
2024-12-07 18:29:26.309941500,6.73694140625,-0.1307423856863752,-0.1346662445992231,-0.0978660981314256
2024-12-07 18:29:26.319915500,6.74691552734375,-0.2819932333290577,-0.1288870766758918,-0.0102353801472112
2024-12-07 18:29:26.329889500,6.7568896484375,-0.5065559854200109,-0.0741068542182445,0.158343984241411
2024-12-07 18:29:26.339863300,6.76686328125,-0.713057084184885,-0.1256406421005725,0.2252938063118606
2024-12-07 18:29:26.349836300,6.776836181640625,-0.8745283336013555,-0.1094639988034963,0.2677834331255406
2024-12-07 18:29:26.359810300,6.786810302734375,-0.7763800940603017,-0.0885983209073543,0.3136941569617018
2024-12-07 18:29:26.369784300,6.796784423828125,-0.5965630406141281,-0.0397539182394742,0.2971053526671603
2024-12-07 18:29:26.379758300,6.80675830078125,-0.4470522781044244,-4.38391417264e-05,0.2722000439913943
2024-12-07 18:29:26.389732400,6.816732421875,-0.4650765950948,-0.0240004687905311,0.1478931712452322
2024-12-07 18:29:26.399706400,6.826706298828125,-0.6354378379315138,-0.059359366941452,-0.098165300273709
2024-12-07 18:29:26.409679400,6.836679443359375,-0.8809797016978264,-0.1020487541109323,-0.1543234600210562
2024-12-07 18:29:26.419653400,6.8466533203125,-1.0171715484291315,-0.1255149698942899,0.0307717895563691
2024-12-07 18:29:26.429627400,6.85662744140625,-0.9874240604192018,-0.0925058497399091,0.1904110743053257
2024-12-07 18:29:26.439601400,6.866601318359375,-0.8153846552371978,-0.1353431209474802,0.2639721312090754
2024-12-07 18:29:26.449575400,6.876575439453125,-0.5511760849237441,-0.1657230616420507,0.3453190927486866
2024-12-07 18:29:26.459549400,6.886549560546875,-0.2621943078815937,-0.190804895928502,0.4552191448818892
2024-12-07 18:29:26.469522400,6.8965224609375,-0.0209095124712912,-0.2072632787764072,0.523919902272895
2024-12-07 18:29:26.479496400,6.906496337890625,0.067042331792647,-0.1816921996682882,0.5412247458823025
2024-12-07 18:29:26.489470500,6.916470458984375,0.0167021376090589,-0.1026736080110073,0.5326776841482147
2024-12-07 18:29:26.499444500,6.926444580078125,-0.1184393506859429,-0.0141717332154512,0.5171210359130054
2024-12-07 18:29:26.509418500,6.93641845703125,-0.2788215992893092,0.0302332257002592,0.420163029069826
2024-12-07 18:29:26.519392500,6.946392578125,-0.5413397505640983,0.2339566399127244,0.3841029238469898
2024-12-07 18:29:26.529365200,6.956365234375,-0.7840601271688937,-0.0093932667672634,0.2982027377161197
2024-12-07 18:29:26.539339300,6.96633935546875,-0.774678550839424,-0.1791524520576,0.3129957629013806
2024-12-07 18:29:26.549313300,6.976313232421875,-0.7652338461458682,-0.2822422396540641,0.291298091160506
2024-12-07 18:29:26.559287300,6.986287353515625,-0.6435562624573707,-0.2852314845979213,0.4106121240554377
2024-12-07 18:29:26.569261300,6.99626123046875,-0.5483657036781311,-0.1118938562989234,0.4890357454942539
2024-12-07 18:29:26.579235300,7.0062353515625,-0.5595896930038928,0.1486509308099746,0.3683756682852283
2024-12-07 18:29:26.589208300,7.016208251953125,-0.4979997905313968,0.4034317475646734,0.3433061454910784
2024-12-07 18:29:26.599182300,7.026182373046875,-0.4771346606245264,0.6487602608412504,0.3378217592632397
2024-12-07 18:29:26.609156400,7.03615625,-0.4504255173971876,0.5154290642380714,0.4163565494589507
2024-12-07 18:29:26.619130400,7.04613037109375,-0.5098129413893446,0.3248077081829309,0.4236914223916828
2024-12-07 18:29:26.629104400,7.0561044921875,-0.5534861519644036,0.0742635060846805,0.5426103184891864
2024-12-07 18:29:26.639078400,7.066078369140625,-0.6511117924034595,-0.1226999124735593,0.7025537372838705
2024-12-07 18:29:26.649051400,7.076051513671875,-0.7657365349709987,-0.2386392447710037,0.8541028737533837
2024-12-07 18:29:26.659025400,7.086025390625,-0.9079916272640228,-0.3518132040083408,0.9281244608409702
2024-12-07 18:29:26.668999400,7.09599951171875,-0.9836965643286704,-0.5345657263845205,1.172711288904771
2024-12-07 18:29:26.678973400,7.105973388671875,-1.070315694117546,-0.3118044342249632,1.5258124138318
2024-12-07 18:29:26.688947500,7.115947509765625,-1.241056876182556,-0.1839385172903537,1.842599458774924
2024-12-07 18:29:26.698921500,7.12592138671875,-1.1779168216586111,-0.2213707145839929,2.3177039652787146
2024-12-07 18:29:26.708894500,7.13589453125,-0.8781447705328465,-0.0425602078318595,2.892715829950571
2024-12-07 18:29:26.718868500,7.145868408203125,-0.5578162901232019,0.4506248758941888,3.4913831493675707
2024-12-07 18:29:26.728842500,7.155842529296875,-0.3811094411194324,0.936919031062722,3.934414793653786
2024-12-07 18:29:26.738816500,7.16581640625,-0.0417512112702243,1.0433172125548125,3.951241717553138
2024-12-07 18:29:26.748790500,7.17579052734375,0.2816927890777588,1.3594167136251925,3.901240253804624
2024-12-07 18:29:26.758764500,7.1857646484375,0.3128746938049793,1.5304548328101637,3.48704804277271
2024-12-07 18:29:26.768737300,7.1957373046875,0.2677273920893669,1.6340636758446692,2.6660122299060225
2024-12-07 18:29:26.778711300,7.205711181640625,0.0911643720030784,1.8262088804662229,1.7797076799236238
2024-12-07 18:29:26.788685300,7.215685302734375,-0.2430757659137248,2.1139210759639737,0.887281286060065
2024-12-07 18:29:26.798659300,7.225659423828125,-0.6060533380150794,2.2502765888243914,0.0513132952657528
2024-12-07 18:29:26.808633300,7.23563330078125,-0.9481862750083208,2.160338543745876,-0.6316703020915388
2024-12-07 18:29:26.818607400,7.245607421875,-1.11426647952497,1.8278145620971915,-1.1076935308754443
2024-12-07 18:29:26.828580400,7.255580322265625,-0.9880196882247924,1.2646060940742492,-1.4639165141500532
2024-12-07 18:29:26.838554400,7.265554443359375,-0.8235346439450979,0.6249374867051839,-1.7488211048811673
2024-12-07 18:29:26.848528400,7.2755283203125,-0.7041109766632319,0.0187011933386325,-2.019085029710829
2024-12-07 18:29:26.858502400,7.28550244140625,-0.8363391804605722,-0.4983697928875684,-2.289169798581302
2024-12-07 18:29:26.868476400,7.295476318359375,-1.1331833614408968,-0.9333902724146842,-2.506365273307264
2024-12-07 18:29:26.878450400,7.305450439453125,-1.6731459784328937,-1.0506704979270696,-2.534513509427011
2024-12-07 18:29:26.888423400,7.31542333984375,-2.317494268050789,-0.9034078066051006,-2.5038269870013
2024-12-07 18:29:26.898397400,7.3253974609375,-2.8732997663408515,-0.5764309376895428,-2.706629486976564
2024-12-07 18:29:26.908371500,7.335371337890625,-2.583672677132487,-0.022549685460329,-2.882686018845438
2024-12-07 18:29:26.918345500,7.345345458984375,-1.6047580863833426,0.7583195367127656,-2.965291821339726
2024-12-07 18:29:26.928319500,7.355319580078125,-0.3350966086156666,1.5492536413043736,-2.9427848059773445
2024-12-07 18:29:26.938293500,7.36529345703125,1.0261714319646358,2.34337981993556,-2.5456229324623942
2024-12-07 18:29:26.948266500,7.3752666015625,1.9909978761285545,2.855051577466726,-1.9195653556860983
2024-12-07 18:29:26.958240500,7.385240478515625,2.687282689210772,2.8623072476834057,-1.363784261184931
2024-12-07 18:29:26.968214500,7.395214599609375,2.765958751040697,2.452440498635173,-0.9618678866192698
2024-12-07 18:29:26.978188500,7.4051884765625,2.297065812528133,1.8605232380002736,-0.3173462131958454
2024-12-07 18:29:26.988162600,7.41516259765625,1.939958593764901,1.248781917476654,0.4116202416520566
2024-12-07 18:29:26.998136600,7.425136474609375,1.6177758272580802,0.6896019743174314,0.9960404975950716
2024-12-07 18:29:27.008109300,7.435109375,1.3902093267738818,0.221577635332942,1.192562894387543
2024-12-07 18:29:27.018083300,7.445083251953125,1.2793556271776556,-0.1010579895079135,1.1835625724606216
2024-12-07 18:29:27.028057300,7.455057373046875,1.1878000638999044,-0.2689922974586486,1.039420205116272
2024-12-07 18:29:27.038031400,7.46503125,0.9671312139749526,-0.3256687089264393,0.7959701990626752
2024-12-07 18:29:27.048005400,7.47500537109375,0.6612485710144043,-0.2530821961432695,0.5095806304708123
2024-12-07 18:29:27.057979400,7.4849794921875,0.4756427050337195,-0.2960281884223222,0.0723709703363478
2024-12-07 18:29:27.067952400,7.494952392578125,0.4388943983510136,-0.4638263027727604,-0.409544092965126
2024-12-07 18:29:27.077926400,7.504926513671875,0.5114455475598574,-0.5922451774150133,-0.6918123438432813
2024-12-07 18:29:27.087900400,7.514900390625,0.6011347324438393,-0.7651946831792592,-0.921144392695278
2024-12-07 18:29:27.097874400,7.52487451171875,0.7209948914468288,-0.9637222823143003,-1.161974863900244
2024-12-07 18:29:27.107848400,7.534848388671875,0.8395436755903065,-1.027539797708392,-1.4439211893476545
2024-12-07 18:29:27.117822500,7.544822509765625,0.9335814110726116,-1.057241693010926,-1.8773153828471896
2024-12-07 18:29:27.127795500,7.55479541015625,1.103030945891887,-1.1275240205049517,-2.197649598877877
2024-12-07 18:29:27.137769500,7.56476953125,1.157709899932146,-1.2251835997462273,-2.33216313713342
2024-12-07 18:29:27.147743500,7.574743408203125,1.2171078453183173,-1.3357324711769818,-2.367185350675881
2024-12-07 18:29:27.157717500,7.584717529296875,1.208697159847617,-1.415655318197608,-2.284270189971477
2024-12-07 18:29:27.167691500,7.59469140625,1.182251635992527,-1.501937763378024,-2.322783752761036
2024-12-07 18:29:27.177665000,7.6046650390625,1.0979828687220812,-1.633798887428641,-2.3923440495908257
2024-12-07 18:29:27.187638000,7.614637939453125,0.8705290348321199,-1.718077007049322,-2.240920146936178
2024-12-07 18:29:27.197612000,7.624612060546875,0.5961760871231555,-1.739421992895007,-1.9651311750747265
2024-12-07 18:29:27.207586000,7.6345859375,0.4090710686258971,-1.78919344727993,-1.7136659126088023
2024-12-07 18:29:27.217560000,7.64456005859375,0.3996988446466624,-1.7688596843034028,-1.505310600811988
2024-12-07 18:29:27.227534000,7.6545341796875,0.4554430898308754,-1.653128441798687,-1.3344191966213286
2024-12-07 18:29:27.237508000,7.664508056640625,0.3851496564209461,-1.5251508811831471,-1.1075016615651547
2024-12-07 18:29:27.247481000,7.674481201171875,0.2940525044351816,-1.393316060617566,-0.8928991259418427
2024-12-07 18:29:27.257455000,7.684455078125,0.1828150662183761,-1.3317699972867965,-0.70017466012761
2024-12-07 18:29:27.267429000,7.69442919921875,-0.0009545242458581,-1.3387544493466614,-0.4338274703502655
2024-12-07 18:29:27.277403100,7.704403076171875,-0.3689320965915918,-1.311966395664215,-0.1351674721196293
2024-12-07 18:29:27.287377200,7.714377197265625,-0.9879542217731476,-1.1373872428715228,0.278959126330167
2024-12-07 18:29:27.297351200,7.72435107421875,-1.2613438774079084,-1.020227428868413,0.7740526740260422
2024-12-07 18:29:27.307324000,7.734323974609375,-1.4270219308644532,-0.7564993355482816,1.193661357148737
2024-12-07 18:29:27.317298000,7.7442978515625,-1.7297313506163656,-0.3232791834414005,1.7162334250092506
2024-12-07 18:29:27.327272000,7.75427197265625,-2.0122604443877936,0.1094938094198703,2.394305997313559
2024-12-07 18:29:27.337246000,7.764245849609375,-2.378329991155117,0.4958522571086883,2.970180762425065
2024-12-07 18:29:27.347220000,7.774219970703125,-2.6899866874724623,0.6765916860967874,3.561978780594468
2024-12-07 18:29:27.357194000,7.784194091796875,-2.4637504126787184,0.5504647217839956,3.9631741474092
2024-12-07 18:29:27.367167000,7.7941669921875,-1.7515934922039509,0.2641746680438518,4.153587998193502
2024-12-07 18:29:27.377141000,7.80414111328125,-1.026576505634189,0.0824777922004461,3.94268139447868
2024-12-07 18:29:27.387115000,7.814114990234375,-0.5069330385714769,-0.1201730243444442,3.408993619972468
2024-12-07 18:29:27.397089000,7.824089111328125,-0.4287421299099922,-0.3614811960637569,2.864980266284942
2024-12-07 18:29:27.407063000,7.83406298828125,-0.8153321943975984,-0.4999713828653097,2.460748308253288
2024-12-07 18:29:27.417036000,7.8440361328125,-1.217021774470061,-0.5330564908653498,1.8625097356423737
2024-12-07 18:29:27.427010000,7.854010009765625,-1.3174357669860124,-0.3970809172332286,1.016104357589036
2024-12-07 18:29:27.436984000,7.863984130859375,-1.0813045595131814,0.0211094235241413,-0.0383725468836724
2024-12-07 18:29:27.446958000,7.8739580078125,-0.3739027246110141,0.9638339259952308,-1.2292049642167984
2024-12-07 18:29:27.456932000,7.88393212890625,0.5512674164690077,2.4599118574291468,-2.3122503760479387
2024-12-07 18:29:27.466906000,7.893906005859375,1.0502375133372843,3.99780823841691,-2.9654315220713614
2024-12-07 18:29:27.476880100,7.903880126953125,0.7544669529378414,5.013467044195533,-3.441391330230236
2024-12-07 18:29:27.487476200,7.914476318359375,-0.212630212637037,5.638835908055305,-3.692966921202838
2024-12-07 18:29:27.497450200,7.9244501953125,-1.8316057710736988,5.590601161718368,-3.0221885975599285
2024-12-07 18:29:27.507424000,7.934424072265625,-3.101675391250849,3.521310670119524,-1.5757194772951304
2024-12-07 18:29:27.517398000,7.94439794921875,-2.747823374891281,0.8150824574202299,-0.1490006210304796
2024-12-07 18:29:27.527372000,7.9543720703125,-0.9285422478616238,-1.032222987088561,0.3263751036301255
2024-12-07 18:29:27.537345000,7.964344970703125,1.145703235796094,-2.5920290020674464,0.0051820788130164
2024-12-07 18:29:27.547319000,7.974319091796875,2.545040456399321,-3.67708341563344,-0.5393923428233712
2024-12-07 18:29:27.557293000,7.98429296875,3.1125702947527167,-4.087624702942371,-1.0547510452389717
2024-12-07 18:29:27.567266800,7.994266845703125,3.3359277992397547,-3.9249323872983455,-1.5253182005740702
2024-12-07 18:29:27.577240800,8.00424072265625,3.540686986240744,-3.1646114476352927,-1.788613893826306
2024-12-07 18:29:27.587214800,8.01421484375,3.5592356193661687,-2.121799846515059,-1.673254553373903
2024-12-07 18:29:27.597188000,8.02418798828125,3.295638458949328,-0.9825123229801654,-1.225738384084776
2024-12-07 18:29:27.607162000,8.034162109375,2.852782463490963,0.124158879110217,-0.5263019020386039
2024-12-07 18:29:27.617136000,8.04413623046875,2.2337195679076016,0.9647130469173192,0.1615104123830795
2024-12-07 18:29:27.627110000,8.05410986328125,1.5905039355814456,1.3654928186684847,0.6359564549781381
2024-12-07 18:29:27.637084000,8.064083984375,1.0190572160452604,1.4109464098542928,0.6069033789731562
2024-12-07 18:29:27.647058000,8.074057861328125,0.5862684410929679,1.369652860957384,0.1431927384693175
2024-12-07 18:29:27.657032000,8.084031982421875,0.3937292687177658,1.1219587875932455,-0.6596433277748525
2024-12-07 18:29:27.667005200,8.094005126953125,0.3464198205322027,0.6853109991252422,-1.3674550586521623
2024-12-07 18:29:27.676979000,8.10397900390625,0.3723533762771636,0.4014396969646215,-1.7743229181453584
2024-12-07 18:29:27.686953000,8.113952880859374,0.4165081598240882,0.2661532746404409,-1.9254443307220936
2024-12-07 18:29:27.696927000,8.123927001953126,0.2632991273183375,0.2393617138266563,-1.94856290211156
2024-12-07 18:29:27.706901000,8.13390087890625,-0.0057949500143527,0.3904454247415065,-1.632895362717658
2024-12-07 18:29:27.716874200,8.143874267578125,-0.1448369254797697,0.5313976177424192,-1.097665034944564
2024-12-07 18:29:27.726848000,8.153847900390625,0.1425946995109319,0.4881950203537941,-0.4449551962273195
2024-12-07 18:29:27.736822000,8.163822021484375,0.531625581279397,0.4129039247870445,0.0028283187611028
2024-12-07 18:29:27.746796000,8.173796142578125,0.7599993795584887,0.3623188159316778,0.2120420374855399
2024-12-07 18:29:27.756770000,8.18377001953125,0.7312678636580705,0.3815139302670955,0.394168792646192
2024-12-07 18:29:27.766744000,8.193744140625,0.8542314685691148,0.3106219464421272,0.6260831496089696
2024-12-07 18:29:27.776717000,8.203717041015626,1.2425514986544848,0.2072778918236494,0.7394844878613949
2024-12-07 18:29:27.786691000,8.213691162109376,1.6620920849770306,-0.0942541547119617,0.6206932732641697
2024-12-07 18:29:27.796664800,8.223664794921875,1.886469434031099,-0.4210258564442395,0.2827207073533907
2024-12-07 18:29:27.807262000,8.234261962890624,1.9213661214977504,-0.7057189963817596,0.0192701158003881
2024-12-07 18:29:27.817236000,8.244236083984376,1.7567858001500367,-0.8257032201558351,-0.0263144448213279
2024-12-07 18:29:27.827210000,8.2542099609375,1.4263281033813953,-0.7490496040642262,0.1071456023259088
2024-12-07 18:29:27.837184000,8.26418408203125,1.104066645615175,-0.4948492175459861,0.216131973680295
2024-12-07 18:29:27.847157000,8.274156982421875,0.787260457580164,-0.1310001233071088,0.1783375554781407
2024-12-07 18:29:27.857131000,8.284131103515625,0.3730822750736027,0.085262454482913,-0.1125764682682231
2024-12-07 18:29:27.867105000,8.29410498046875,0.0321335794288665,0.1609445951938629,-0.5164977894481271
2024-12-07 18:29:27.877079000,8.3040791015625,0.0531272676188498,0.2333604275852441,-0.7288439975120127
2024-12-07 18:29:27.887053000,8.314052978515624,0.1467459739714861,0.1422176828920841,-0.8246248503345995
2024-12-07 18:29:27.897027000,8.324027099609374,-0.0220867075910791,-0.0080517890304327,-0.9778256264686584
2024-12-07 18:29:27.907000000,8.334,-0.4427046042889356,-0.1119815345823764,-1.086527116467059
2024-12-07 18:29:27.916974000,8.34397412109375,-0.9088187257379292,-0.11867021856606,-1.0831745911687611
2024-12-07 18:29:27.926948000,8.353947998046875,-1.203531155386567,-0.1200637187510728,-0.828891640933603
2024-12-07 18:29:27.936922000,8.363922119140625,-1.0698965919226406,-0.0547270309656858,-0.4299898649487644
2024-12-07 18:29:27.946896100,8.373896240234375,-0.8924971210122108,0.1576858856588602,-0.1635236153690144
2024-12-07 18:29:27.956870100,8.3838701171875,-0.8611229085832833,0.2582499541699886,0.1416074055066332
2024-12-07 18:29:27.966844200,8.39384423828125,-0.6347042629599571,0.3171650844752788,0.5601036338753997
2024-12-07 18:29:27.976817200,8.403817138671876,-0.4314093398252502,0.2739046194195747,0.8423791912771761
2024-12-07 18:29:27.986791200,8.413791259765626,-0.2792196404298767,0.1148772560238838,0.9251227217417208
2024-12-07 18:29:27.996765200,8.42376513671875,-0.2850257328927517,-0.0514998856127262,0.9307198841616512
2024-12-07 18:29:28.006739200,8.4337392578125,-0.4451163050731643,-0.1583271061718464,0.8367443271953612
2024-12-07 18:29:28.016713200,8.443713134765625,-0.6410398957222699,-0.2266431020289659,0.7268674367420375
2024-12-07 18:29:28.026686000,8.45368603515625,-0.7206716508418322,-0.2502922731637954,0.6494516041062772
2024-12-07 18:29:28.036660000,8.463659912109375,-0.6944944225341081,-0.1968231333047151,0.5919854305002838
2024-12-07 18:29:28.046634000,8.473634033203124,-0.5572773244082927,-0.1063794767916202,0.5371255669351667
2024-12-07 18:29:28.056608000,8.48360791015625,-0.4481669978806749,-0.1075719014465808,0.497865058235824
2024-12-07 18:29:28.066582000,8.49358203125,-0.4709545472174882,-0.1149760402232408,0.5052264538493008
2024-12-07 18:29:28.076556000,8.50355615234375,-0.4829202948212623,-0.1017296051591634,0.6289590703714638
2024-12-07 18:29:28.086529000,8.513529052734375,-0.4101741344969719,-0.0494552280426025,0.8264980968605726
2024-12-07 18:29:28.096503000,8.5235029296875,-0.1855634698773734,0.0203612355053424,1.0338783530801534
2024-12-07 18:29:28.106477000,8.53347705078125,0.0555652901544235,0.0126537298679351,1.1635497120015323
2024-12-07 18:29:28.116451000,8.543451171875,0.2060211697608232,-0.0566729043364524,1.177442262949422
2024-12-07 18:29:28.126425000,8.553425048828124,0.2482943956111557,-0.0858072288841009,1.0665611638896166
2024-12-07 18:29:28.136399000,8.563399169921874,0.1440069409290328,-0.1049824694752693,0.9051334613539278
2024-12-07 18:29:28.146372000,8.5733720703125,-0.0643815790176391,-0.1587117215752601,0.720163555189222
2024-12-07 18:29:28.156346000,8.58334619140625,-0.2837596584796905,-0.151772277700901,0.6052790657069533
2024-12-07 18:29:28.166320000,8.593320068359375,-0.4111275627642869,-0.1309872638255357,0.5276852461557835
2024-12-07 18:29:28.176294100,8.603294189453125,-0.4691431138813495,-0.1343430039942264,0.432613637581095
2024-12-07 18:29:28.186268200,8.61326806640625,-0.5824737249851226,-0.1513812325567007,0.3168929164703935
2024-12-07 18:29:28.196242200,8.6232421875,-0.5791244145572185,-0.1236158582746982,0.3852918048379942
2024-12-07 18:29:28.206215200,8.633215087890624,-0.5801520040392876,-0.1160036297053098,0.4854292454348877
2024-12-07 18:29:28.216189200,8.643189208984374,-0.5565390732616186,-0.1033428855746984,0.6615099984295666
2024-12-07 18:29:28.226163200,8.6531630859375,-0.7102981408655643,0.0727297206461429,0.7421257230851799
2024-12-07 18:29:28.236137200,8.66313720703125,-0.7510171047449111,0.0630593905031681,1.050796170133352
2024-12-07 18:29:28.246111200,8.673111328125,-0.7400017897337675,0.0486632008820772,1.356956607121974
2024-12-07 18:29:28.256085200,8.683085205078125,-0.7354974640518427,-0.0202244573831558,1.6681895250692962
2024-12-07 18:29:28.266059300,8.693059326171875,-0.6812836433053017,0.1169020398497581,2.0176447677746414
2024-12-07 18:29:28.276032000,8.703031982421875,-0.6305401290178299,0.1906587654560804,2.231814172677696
2024-12-07 18:29:28.286006000,8.713006103515625,-0.3786339909166097,0.230783270573616,2.481343352514505
2024-12-07 18:29:28.295980000,8.72297998046875,-0.1579506740748882,0.2819382882714271,2.652648013681173
2024-12-07 18:29:28.305954000,8.7329541015625,0.0137175597071647,0.3180535577476024,2.7957860262885688
2024-12-07 18:29:28.315928000,8.742927978515626,-0.072528060594201,0.1839975540012121,2.672023453019559
2024-12-07 18:29:28.325902000,8.752902099609376,-0.3301882321774959,0.1350923610568046,2.510393213649094
2024-12-07 18:29:28.335875000,8.762875,-0.797635063534975,-0.0077361472100019,2.146242798376083
2024-12-07 18:29:28.345849000,8.77284912109375,-1.2189981891095638,0.0125192898333072,1.8168974467635155
2024-12-07 18:29:28.355823000,8.782822998046875,-1.682667840015888,0.0882803409993648,1.2671389735527336
2024-12-07 18:29:28.365797000,8.792797119140625,-1.935854665577412,0.1467968273758888,0.7200462124198674
2024-12-07 18:29:28.375771100,8.802771240234375,-1.9710078120231629,0.3335299438208341,0.4883029742402955
2024-12-07 18:29:28.385745200,8.8127451171875,-1.9493980377614497,0.5900660798102617,0.162883015910536
2024-12-07 18:29:28.395718100,8.82271826171875,-1.8820564398944373,0.9008288960278034,-0.2821588356869295
2024-12-07 18:29:28.405692200,8.832692138671876,-1.672231786197424,1.2326111193984746,-0.7168406943768263
2024-12-07 18:29:28.415666200,8.842666259765625,-1.2408897029221058,1.461821441566944,-1.034486840367317
2024-12-07 18:29:28.425640200,8.85264013671875,-0.7651005751550197,1.5990414623022078,-1.2008242345154283
2024-12-07 18:29:28.435614200,8.8626142578125,-0.4827788405239582,1.576038187855482,-1.2300152576863763
2024-12-07 18:29:28.445588200,8.872588134765625,-0.4536989495772868,1.3906933108985424,-1.2327695248305797
2024-12-07 18:29:28.455561200,8.882561279296874,-0.5919347962915897,1.1441074910372495,-1.161620862830803
2024-12-07 18:29:28.465535200,8.89253515625,-0.9441266974192112,0.951183118736744,-0.9354996657840908
2024-12-07 18:29:28.475509200,8.90250927734375,-1.347394267398119,0.8639403040915727,-0.8114125367358327
2024-12-07 18:29:28.485483300,8.912483154296876,-1.5686515847355127,0.9523901564389466,-0.8266980764120817
2024-12-07 18:29:28.495457300,8.922457275390625,-1.5398011916957794,1.2501444380015134,-0.6635344169292599
2024-12-07 18:29:28.505431300,8.932431396484375,-0.9340623264573514,1.4798089336782694,-0.9135166742958128
2024-12-07 18:29:28.515404000,8.942404052734375,0.1067414419718086,1.419043791592121,-1.5233476311534642
2024-12-07 18:29:28.525378000,8.9523779296875,0.8071656929463148,1.423807060471177,-1.7786121397718786
2024-12-07 18:29:28.535352000,8.96235205078125,1.2336784563690424,1.5763818867266175,-1.645738916069269
2024-12-07 18:29:28.545326000,8.972326171875,1.7206969802893697,1.5609353112697602,-1.6279543991841374
2024-12-07 18:29:28.555300000,8.982300048828124,1.879165102367103,1.4384072482317685,-1.4583762695491314
2024-12-07 18:29:28.565274000,8.992274169921876,1.6794414253152905,1.438557470357418,-0.8726134398907422
2024-12-07 18:29:28.575247000,9.0022470703125,1.283573244872689,1.2707394822627305,-0.3585309679560363
2024-12-07 18:29:28.585221000,9.01222119140625,1.1626871038228273,0.8695487916231155,-0.0309532105378806
2024-12-07 18:29:28.595195100,9.022195068359377,1.3342963008940218,0.3685919048517942,0.0429240727081894
2024-12-07 18:29:28.605169200,9.032169189453125,1.3511919061154127,0.0054477440118789,0.1115709079548716
2024-12-07 18:29:28.615143200,9.04214306640625,1.205144435802102,-0.2753881359755992,0.1239521044917404
2024-12-07 18:29:28.625117200,9.0521171875,0.9553051671028135,-0.5246002126872539,-0.0538828352265059
2024-12-07 18:29:28.635090200,9.062090087890626,0.7751528903529048,-0.7182844634443522,-0.5336847057662903
2024-12-07 18:29:28.645064200,9.072064208984376,0.7990110280632973,-0.8126981926321983,-1.081800380206108
2024-12-07 18:29:28.655038200,9.0820380859375,0.8140858475983143,-0.801331579965353,-1.4858445605807005
2024-12-07 18:29:28.665012200,9.09201220703125,0.8450377429619431,-0.8281710715740919,-1.805705752272159
2024-12-07 18:29:28.674986200,9.101986328125,0.8010717599853873,-0.9260440013051032,-2.0054665464639663
2024-12-07 18:29:28.684960000,9.1119599609375,0.6939101929053664,-0.9733779994100332,-2.026163735925406
2024-12-07 18:29:28.694934000,9.12193408203125,0.5787345384567976,-0.9673071550637484,-1.9647154338806867
2024-12-07 18:29:28.704907300,9.1319072265625,0.55100204353109,-1.0155600215792655,-1.8913414239816368
2024-12-07 18:29:28.714881300,9.14188134765625,0.5844103921361268,-1.0905097563624382,-1.6974319861665368
2024-12-07 18:29:28.724855300,9.151855224609376,0.6862403889298438,-1.2143512400865557,-1.5162984432943163
2024-12-07 18:29:28.734829300,9.161829345703126,0.7823476241625845,-1.3592343427956104,-1.3006865844979882
2024-12-07 18:29:28.744803000,9.171802978515624,0.9049854311853648,-1.576282518005371,-1.2638261957429349
2024-12-07 18:29:28.754777000,9.181777099609375,0.966822878678143,-1.9958534994661807,-1.5397975384339688
2024-12-07 18:29:28.764750000,9.19175,0.8690671455860137,-2.4120021052628755,-2.004317960950732
2024-12-07 18:29:28.774724000,9.20172412109375,0.7450954596109688,-2.711221783202886,-2.08658401009664
2024-12-07 18:29:28.784698000,9.211697998046876,0.6306561566129326,-2.8074937074780464,-1.944393653602898
2024-12-07 18:29:28.794672000,9.221672119140624,0.4221931466579437,-2.7002871322125195,-1.666389343779534
2024-12-07 18:29:28.804646000,9.23164599609375,0.1870296151734888,-2.410362521362305,-1.2038728084310888
2024-12-07 18:29:28.814620000,9.241619873046876,-0.0631616818338632,-1.9605565606355664,-0.592772562289983
2024-12-07 18:29:28.824593200,9.25159326171875,-0.282485839151591,-1.4359306289851663,-0.014313772034645
2024-12-07 18:29:28.834567200,9.261567138671875,-0.4991957223176956,-0.9375210886090992,0.4635715973593294
2024-12-07 18:29:28.844541200,9.271541259765623,-0.6523511249400675,-0.4743552955716848,1.009271735090017
2024-12-07 18:29:28.854515200,9.28151513671875,-0.8022792360790073,-0.093048870575428,1.7823378822967408
2024-12-07 18:29:28.864489000,9.291489013671876,-1.189035158652812,0.2834837641477584,2.555088972204924
2024-12-07 18:29:28.874463000,9.301462890625,-1.7632443286396562,0.5690028335154056,3.3323078551769254
2024-12-07 18:29:28.884436200,9.311436279296874,-2.4981483568429947,0.7040548625618219,4.198029197466373
2024-12-07 18:29:28.894410200,9.32141015625,-3.2389456808686257,0.7669704606801271,4.76624643356204
2024-12-07 18:29:28.904384300,9.33138427734375,-3.5825890224248167,0.8348878126084804,4.801516484385728
2024-12-07 18:29:28.914358000,9.34135791015625,-3.2847184210062026,0.9370078783899544,4.513375834342837
2024-12-07 18:29:28.924332000,9.35133203125,-2.547286189499497,1.0750631809055804,4.011837932813167
2024-12-07 18:29:28.934306000,9.36130615234375,-1.7269823441691696,1.1266992601186037,3.228319657436013
2024-12-07 18:29:28.944279300,9.371279296875,-1.2512715423353016,1.0200655163049697,2.2467161198638377
2024-12-07 18:29:28.954253300,9.38125341796875,-1.040360116314888,0.7495674904584885,1.495490633065253
2024-12-07 18:29:28.964227000,9.39122705078125,-0.9352600118093192,0.2257394311875104,1.03058822549358
2024-12-07 18:29:28.974201000,9.401201171875,-0.7196702187143266,-0.5247171170651912,0.7181739888072013
2024-12-07 18:29:28.984174800,9.4111748046875,-0.3339624900192022,-1.223207331237197,0.3529856087885797
2024-12-07 18:29:28.994148900,9.42114892578125,0.2349156942032277,-1.6132997047573328,-0.2241916172236204
2024-12-07 18:29:29.004122000,9.4311220703125,0.7106457852594554,-1.689298071810603,-1.0895103700615465
2024-12-07 18:29:29.014096100,9.44109619140625,0.9839671979635952,-1.206867606332898,-2.053846108099073
2024-12-07 18:29:29.024070100,9.451070068359376,0.9871266849078236,-0.0587614010483026,-2.8749560091152784
2024-12-07 18:29:29.034044000,9.4610439453125,0.7645230675280094,1.4756985757499932,-3.647237143424153
2024-12-07 18:29:29.044018000,9.471017822265624,0.3659012044630944,3.0387165385127064,-4.322003367659449
2024-12-07 18:29:29.053992000,9.480991943359374,-0.4735946864627301,4.288425507706403,-4.259704147873818
2024-12-07 18:29:29.063965200,9.490965087890626,-1.6565652843795715,4.863818334519863,-3.285914937314391
2024-12-07 18:29:29.073939200,9.500939208984375,-2.575046010823548,4.473561710348725,-1.6594501921661198
2024-12-07 18:29:29.083913000,9.510912841796875,-2.4924767409473656,2.8667922841429707,-0.1806646832514554
2024-12-07 18:29:29.093887000,9.520886962890623,-1.26476786050722,0.8670493760228156,0.4756462852302938
2024-12-07 18:29:29.103861000,9.530861083984377,0.3003298311389982,-0.8431488604754209,0.2865221819955855
2024-12-07 18:29:29.113835000,9.5408349609375,1.4828823497742414,-2.235925991910696,-0.3953047744061798
2024-12-07 18:29:29.123808300,9.550808349609374,2.202229620144516,-3.2414597095161675,-1.1731106634858994
2024-12-07 18:29:29.133782300,9.5607822265625,2.589081258177757,-3.5418864251583813,-1.6108435437768698
2024-12-07 18:29:29.143756000,9.570756103515626,2.761526321551204,-3.003103957861662,-1.6335311764031648
2024-12-07 18:29:29.153730000,9.58072998046875,2.740461906212568,-1.9329642048329112,-1.1766245168257503
2024-12-07 18:29:29.163704000,9.5907041015625,2.601052851000428,-0.7455342894196509,-0.2933607958439737
2024-12-07 18:29:29.173678000,9.600677978515623,2.5450381183117625,0.2673193958103657,0.6673245299272239
2024-12-07 18:29:29.183651800,9.61065185546875,2.517167530089617,0.8562918351650237,1.1952341594234108
2024-12-07 18:29:29.193625900,9.6206259765625,2.370890196543187,0.9776029236286878,1.3184845453865826
2024-12-07 18:29:29.203600000,9.630599853515625,2.017136525991559,0.8606453541994095,1.2204063023418188
2024-12-07 18:29:29.213574000,9.640573974609374,1.577135773833841,0.580097058981657,0.7551780238166451
2024-12-07 18:29:29.223548000,9.6505478515625,1.0153728284440935,0.2705634922981262,0.0476359401935711
2024-12-07 18:29:29.233522000,9.66052197265625,0.4756844983488321,0.1110433769494295,-0.8819229008320718
2024-12-07 18:29:29.243494700,9.67049462890625,0.1057499467164278,0.191379480946064,-1.8229264977946875
2024-12-07 18:29:29.253468700,9.68046875,-0.1148819321990013,0.3808113349556922,-2.519238783405721
2024-12-07 18:29:29.263442700,9.690442626953123,-0.2232289096713066,0.5270937830686568,-2.858513408358395
2024-12-07 18:29:29.273416700,9.700416748046877,-0.2989005289882421,0.5534551357716322,-2.902036323742568
2024-12-07 18:29:29.283390700,9.710390625,-0.2371510520398616,0.39823476344347,-2.5795342621535062
2024-12-07 18:29:29.293364700,9.72036474609375,-0.0044118981581181,0.2112929726839065,-1.8841398220397527
2024-12-07 18:29:29.303337700,9.730337646484376,0.4364988815166056,0.075236150509119,-0.995140918406844
2024-12-07 18:29:29.313311700,9.740311767578126,1.0301602824050933,-0.0292161576122045,-0.1730154471399262
2024-12-07 18:29:29.323285800,9.75028564453125,1.51919635669291,0.0509217934638261,0.495196788874641
2024-12-07 18:29:29.333259800,9.760259765625,1.5904162572979923,0.2830950570911169,0.9317097719818354
2024-12-07 18:29:29.343233800,9.77023388671875,1.5475462528645991,0.4855412909746169,1.0862918464064597
2024-12-07 18:29:29.353207800,9.780207763671877,1.45400068481341,0.5893786820679903,0.960177741575241
2024-12-07 18:29:29.363180800,9.790180908203125,1.289362349668145,0.4665969365298748,0.678539970620349
2024-12-07 18:29:29.373154800,9.80015478515625,1.1486790367364883,0.2195867537766695,0.4207004969473928
2024-12-07 18:29:29.383128800,9.81012890625,0.9663556264925748,-0.0068447513282299,0.1585571886006742
2024-12-07 18:29:29.393102800,9.820102783203126,0.7517571094572544,-0.2303027935802936,-0.0793119120480492
2024-12-07 18:29:29.403076900,9.830076904296876,0.6473725328098983,-0.4454308143824338,-0.3717676853436976
2024-12-07 18:29:29.413051000,9.84005078125,0.3701064741332083,-0.5695289032161236,-0.6139700294237583
2024-12-07 18:29:29.423025000,9.85002490234375,0.2271907990396022,-0.5783119291305542,-0.6837371739372611
2024-12-07 18:29:29.432998000,9.859997802734377,0.2211865901887416,-0.496507506147027,-0.7027746865581721
2024-12-07 18:29:29.442972000,9.869971923828125,0.270136791318655,-0.3856915082126855,-0.5061154385782778
2024-12-07 18:29:29.452946000,9.87994580078125,0.329887787926197,-0.3140355542778968,-0.2678134264050051
2024-12-07 18:29:29.462920000,9.889919921875,0.3102962946843355,-0.2162187386482953,-0.0213427208233624
2024-12-07 18:29:29.472894000,9.89989404296875,0.2471686247179284,-0.08717033393085,0.267242238920927
2024-12-07 18:29:29.482867700,9.90986767578125,0.1940806296635419,-0.040090018326044,0.5206675128808245
2024-12-07 18:29:29.492840700,9.9198408203125,0.1260959846526384,0.0906359642148017,0.7057692652642726
2024-12-07 18:29:29.502814700,9.929814697265623,0.1558248044947162,0.1203127250760793,0.945542336370796
2024-12-07 18:29:29.512788700,9.939788818359377,0.2154080433199182,0.2040028156757354,1.1687360285982489
2024-12-07 18:29:29.522762800,9.9497626953125,0.2838596117228269,0.2633417243510484,1.2256066474638878
2024-12-07 18:29:29.532736800,9.95973681640625,0.2914490804711356,0.2307908693581819,1.206592077327147
2024-12-07 18:29:29.542710800,9.969710693359374,0.1029594757476821,0.1322889940738678,1.1242531821407378
2024-12-07 18:29:29.552683800,9.979683837890626,-0.0725023233647458,-0.0849140794366598,0.9354330302886664
2024-12-07 18:29:29.562657800,9.98965771484375,-0.4036398373574018,-0.1084410854965448,0.5558427615605295
2024-12-07 18:29:29.572631800,9.9996318359375,-0.8630097452431916,-0.1763017388015985,0.3587494330123066
2024-12-07 18:29:29.582605800,10.009605712890624,-1.1521388218015431,-0.1868582041293382,0.2556194230033085
2024-12-07 18:29:29.592579800,10.019579833984375,-1.3407038298487663,-0.2376607551276683,0.0273944951429963
2024-12-07 18:29:29.602553900,10.029553955078123,-1.6141829173326492,-0.2312321833848953,-0.2826925407048314
2024-12-07 18:29:29.612526800,10.03952685546875,-1.6926245858848097,-0.2229161904603242,-0.2653881537531502
2024-12-07 18:29:29.622500900,10.0495009765625,-1.651996222898364,-0.1630447823435068,-0.2489622484027407
2024-12-07 18:29:29.632475000,10.059474853515624,-1.486712137195468,-0.1574602602094411,-0.2623816654135473
2024-12-07 18:29:29.642449000,10.069448974609376,-1.2797604085862635,-0.1692225941956043,-0.2547544584707357
2024-12-07 18:29:29.652423000,10.0794228515625,-1.1201420935600996,-0.182479550653696,-0.2307316682505421
2024-12-07 18:29:29.662397000,10.08939697265625,-0.9730267017543316,-0.1072755488485097,-0.18888592883097
2024-12-07 18:29:29.672369700,10.09936962890625,-0.8861252478927374,-0.0454945077180862,-0.0865022436772473
2024-12-07 18:29:29.682343700,10.10934375,-0.8346949203848838,-0.0528027849048376,-0.0014584825794678
2024-12-07 18:29:29.692317700,10.119317626953125,-0.6702139677584171,-0.0751584090977907,0.1784418195702135
2024-12-07 18:29:29.702291700,10.129291748046874,-0.4575929613411426,-0.0356330389171838,0.3588083966579288
2024-12-07 18:29:29.712265700,10.139265625,-0.2925847699701785,0.0101098906040191,0.4430213786205276
2024-12-07 18:29:29.722239700,10.14923974609375,-0.2147159328699111,-0.0181236857116222,0.4796387523999437
2024-12-07 18:29:29.732212700,10.159212646484375,-0.1779378155708313,-0.1105862808316946,0.5302432966081425
2024-12-07 18:29:29.742186800,10.169186767578124,-0.124821160677541,-0.3161924400508403,0.5963326659243553
2024-12-07 18:29:29.752160800,10.179160888671875,-0.1045639518022537,-0.3347942646682262,0.6408516796737909
2024-12-07 18:29:29.762134800,10.189134765625,-0.2254150215387344,-0.223888250362873,0.7202844050899148
2024-12-07 18:29:29.772108800,10.19910888671875,-0.2005307373846881,-0.2371171497702598,1.0222236441869288
2024-12-07 18:29:29.782082800,10.209082763671876,-0.1219055472254753,-0.274079391464591,1.2319761824958029
2024-12-07 18:29:29.792055800,10.219055908203124,-0.2240612871085293,-0.1346995623469352,1.3223521806001663
2024-12-07 18:29:29.802029800,10.22902978515625,-0.2902408554588444,-0.1324579208999872,1.5514831539221108
2024-12-07 18:29:29.812003800,10.23900390625,-0.3130442051529884,-0.0819745188534259,1.8462734711125488
2024-12-07 18:29:29.821977900,10.248977783203124,-0.3189455381512642,0.3044014644920825,2.06063942150101
2024-12-07 18:29:29.831952000,10.258951904296875,-0.357663062547706,0.4502075272649526,2.1772537304505706
2024-12-07 18:29:29.841926000,10.26892578125,-0.3013631197094917,0.5583107591092586,2.3709504022978245
2024-12-07 18:29:29.851899000,10.27889892578125,-0.3032113779246806,0.5809469538092613,2.3870026885628697
2024-12-07 18:29:29.861873000,10.288872802734376,-0.352972895437479,0.5722574513971805,2.3558280903592705
2024-12-07 18:29:29.871847000,10.298846923828124,-0.5229939465343952,0.3751718677639961,2.183736808859557
2024-12-07 18:29:29.881821000,10.308821044921874,-0.6419979270994662,0.1215314532160758,1.8958638698421413
2024-12-07 18:29:29.891795000,10.318794921875,-0.739409669059515,0.3743365859836339,1.7682424291878938
2024-12-07 18:29:29.901769000,10.32876904296875,-0.956399392080307,0.420333198004961,1.6158818302050233
2024-12-07 18:29:29.911741700,10.33874169921875,-1.009246016126871,0.4184416851699352,1.6212129620999096
2024-12-07 18:29:29.921715700,10.3487158203125,-0.956665934062004,0.511153286615014,1.5626752868048843
2024-12-07 18:29:29.931689700,10.358689697265625,-0.9379717549860476,0.6852291660606861,1.4299126838698983
2024-12-07 18:29:29.941663700,10.368663818359376,-0.7409001998782158,1.0545669208437205,1.4222621691167354
2024-12-07 18:29:29.951637800,10.3786376953125,-0.570911882007122,1.5364005894720554,1.2576109744898971
2024-12-07 18:29:29.961611800,10.38861181640625,-0.5929366668105125,1.8908289444148536,0.7864414693474769
2024-12-07 18:29:29.971584800,10.398584716796876,-0.8611147252768278,1.9752567016392943,0.1434361370374448
2024-12-07 18:29:29.981558800,10.408558837890626,-1.248587856209278,1.8444366110742088,-0.5794244204171002
2024-12-07 18:29:29.991532800,10.41853271484375,-1.431314075100422,1.635033982181549,-0.8425110009633004
2024-12-07 18:29:30.001506800,10.4285068359375,-1.3052122452288866,1.263047758716345,-0.9156174459673464
2024-12-07 18:29:30.011480800,10.438480712890623,-1.0543524013102057,0.6526537611484527,-1.0535151467684656
2024-12-07 18:29:30.021454800,10.448454833984377,-0.8557447226762771,0.1121697506308555,-1.0729035186536608
2024-12-07 18:29:30.031427800,10.458427734375,-0.8036568080425261,-0.325348390930891,-0.9452625695813448
2024-12-07 18:29:30.041401900,10.46840185546875,-0.8489449064683169,-0.5859352636158466,-0.7510697117149829
2024-12-07 18:29:30.051375900,10.4783759765625,-0.6412216820299625,-0.5908329725295305,-0.597762844857946
2024-12-07 18:29:30.061350000,10.488349853515626,-0.3288771495789289,-0.3190250331282615,-0.5971318169454112
2024-12-07 18:29:30.071324000,10.498323974609375,-0.3035112376540899,0.1592787078082561,-0.9145780199170112
2024-12-07 18:29:30.081298000,10.5082978515625,-0.2991302460908889,0.6020768355995416,-1.4473796592384576
2024-12-07 18:29:30.091271000,10.51827099609375,-0.1869716013759374,0.8623667711645364,-2.019874572653323
2024-12-07 18:29:30.101245000,10.528244873046877,0.054362873828411,1.0189245295763014,-2.454946636237204
2024-12-07 18:29:30.111219000,10.538218994140625,0.6065403908796608,1.2163275085955858,-2.9802263556212183
2024-12-07 18:29:30.121193000,10.54819287109375,1.1349060935802755,1.6624001280128955,-2.8945462602481244
2024-12-07 18:29:30.131167000,10.5581669921875,1.246180210545659,2.1811603825002908,-2.497860479812324
2024-12-07 18:29:30.141141000,10.56814111328125,1.3647750257879494,2.434445992261171,-2.125799875936657
2024-12-07 18:29:30.151113700,10.57811376953125,1.5218927561700344,2.440372459700704,-1.665562099175155
2024-12-07 18:29:30.161087700,10.588087646484375,1.4492545131996273,2.3201234475106,-1.234361762458086
2024-12-07 18:29:30.171061800,10.598061767578123,1.6719357258602976,1.9890724610239263,-0.7226547874830663
2024-12-07 18:29:30.181036000,10.6080361328125,1.9700491961240767,1.4412906947135924,-0.2448077042728662
2024-12-07 18:29:30.191010000,10.618010009765625,2.2778896951541303,0.8056517812520265,0.0275613761425018
2024-12-07 18:29:30.200984000,10.627984130859376,2.331305643521249,0.234186941537261,0.1008954924225807
2024-12-07 18:29:30.210956800,10.637956787109376,2.014815535698086,-0.1398643977642059,0.0412606695406138
2024-12-07 18:29:30.220930800,10.647930908203126,1.6786311318457126,-0.4098457062602043,0.0933690424405038
2024-12-07 18:29:30.230904800,10.65790478515625,1.361549634000659,-0.3923305078357458,0.1402760473050177
2024-12-07 18:29:30.240878800,10.66787890625,1.2693442285120486,-0.2953092264980078,-0.0177320560455322
2024-12-07 18:29:30.250852900,10.677852783203123,1.3257261870779096,-0.2527636317133903,-0.3111092915676534
2024-12-07 18:29:30.260827000,10.687826904296877,1.3838674104012547,-0.2978109801858663,-0.8628378958076238
2024-12-07 18:29:30.270800000,10.6977998046875,1.3179321722008288,-0.2407470307052135,-1.1463619919657706
2024-12-07 18:29:30.280774000,10.70777392578125,1.32412167449072,-0.1988882491409778,-1.2967930841907858
2024-12-07 18:29:30.290748000,10.717747802734374,1.033752096351981,-0.1863011547684669,-1.342842449312657
2024-12-07 18:29:30.300722000,10.727721923828126,0.3675274904906749,-0.2668763282179832,-1.344743022236973
2024-12-07 18:29:30.310696000,10.737696044921876,-0.0464586765751242,-0.3742705350100994,-1.4869171582482754
2024-12-07 18:29:30.320670000,10.747669921875,-0.0889909734867513,-0.596893295481801,-1.664405184224993
2024-12-07 18:29:30.330643000,10.757642822265623,0.0917486016318201,-0.8742389952659606,-1.8653361912399529
2024-12-07 18:29:30.340617000,10.767616943359377,0.3775580322481691,-1.157900454068184,-1.9217076284117995
2024-12-07 18:29:30.350591000,10.777591064453125,0.6556273701317608,-1.502733882191777,-1.965989837730676
2024-12-07 18:29:30.360565000,10.78756494140625,0.8185850587137043,-1.9920628750115632,-2.338535010252893
2024-12-07 18:29:30.370539000,10.7975390625,0.8383458441078663,-2.418957331228256,-2.856444493129849
2024-12-07 18:29:30.380513000,10.807512939453124,0.6921338308826088,-2.763235463556647,-3.0213018778532743
2024-12-07 18:29:30.390486000,10.817486083984376,0.5771564754851162,-3.010437954011559,-2.775097750785947
2024-12-07 18:29:30.400460000,10.8274599609375,0.466783837404102,-3.229347831439972,-2.429312721025944
2024-12-07 18:29:30.410434000,10.83743408203125,0.0206552500158548,-3.105992085406184,-1.9725887976042928
2024-12-07 18:29:30.420408000,10.847407958984377,-0.4656026647955179,-2.767047715321183,-1.3045431137956678
2024-12-07 18:29:30.430382000,10.857382080078125,-0.6701882487952708,-2.474883216589689,-0.551106380688399
2024-12-07 18:29:30.440356000,10.867356201171877,-0.7599602896571159,-2.1590268766254184,0.036772272080183
2024-12-07 18:29:30.450328800,10.877328857421874,-1.0693822126597166,-1.6204109980672596,0.549903434639424
2024-12-07 18:29:30.460302800,10.887302734375,-1.3585732485383748,-1.122384904050827,1.1193401295274494
2024-12-07 18:29:30.470276900,10.89727685546875,-1.3118975682117044,-0.7856547028839588,1.6067926609508691
2024-12-07 18:29:30.480251000,10.9072509765625,-1.3541338047862053,-0.3599041560053825,2.14281808462441
2024-12-07 18:29:30.490225000,10.917224853515624,-1.4232314525403085,0.1648047777533531,2.748136386363208
2024-12-07 18:29:30.500199000,10.927198974609375,-1.3203275429047645,0.5694301190167665,3.395647816187143
2024-12-07 18:29:30.510172000,10.937171875,-1.481409354612231,0.9906599736005068,3.794117849691212
2024-12-07 18:29:30.520146000,10.94714599609375,-1.6713386367499827,1.2644967884808778,3.992105058339238
2024-12-07 18:29:30.530120000,10.957119873046874,-1.732692246248573,1.283929803225398,3.8015333866447207
2024-12-07 18:29:30.540094000,10.967093994140624,-1.6051869793199005,0.973559201195836,3.316040610986948
2024-12-07 18:29:30.550068000,10.97706787109375,-1.4929133299231527,0.5143447761327028,2.850467172285914
2024-12-07 18:29:30.560042000,10.9870419921875,-1.7344266688257457,0.0615437252432107,2.4218765796758235
2024-12-07 18:29:30.570015000,10.997014892578123,-2.230010484256596,-0.3138292180508375,2.23009041762501
2024-12-07 18:29:30.579989000,11.006989013671877,-2.756620429331064,-0.662660775899887,2.172888667108864
2024-12-07 18:29:30.589963000,11.016962890625,-3.2408272568315266,-0.7867822456091642,1.8126342363610863
2024-12-07 18:29:30.599937000,11.02693701171875,-3.276413533997536,-0.7088175469189882,1.092770394770801
2024-12-07 18:29:30.609911000,11.0369111328125,-2.573586751925945,-0.586975128057599,0.1233303193315863
2024-12-07 18:29:30.619885000,11.046885009765624,-1.302131376478821,-0.199697227436304,-0.9222674053758382
2024-12-07 18:29:30.629858000,11.056858154296876,0.1671736988417804,0.8068190714657306,-1.8339727924659848
2024-12-07 18:29:30.639832000,11.06683203125,1.3269634737879037,2.385506897047162,-2.359241405934095
2024-12-07 18:29:30.649806000,11.07680615234375,1.563782079003006,4.043822386094927,-2.5374410873115063
2024-12-07 18:29:30.659780000,11.086780029296875,0.9890671514511108,5.214042808032035,-2.3420463793747124
2024-12-07 18:29:30.669754000,11.096754150390623,-0.4966285021781921,5.738013490644097,-1.1687275530308483
2024-12-07 18:29:30.679726800,11.106726806640625,-2.3664595206193626,4.651059380936623,0.7762015956882387
2024-12-07 18:29:30.689700900,11.116700927734374,-3.0056489661693573,2.5267314772486684,2.1545938626140355
2024-12-07 18:29:30.699675000,11.1266748046875,-1.929394383522123,0.5024795662939548,2.4205840556472538
2024-12-07 18:29:30.709649000,11.13664892578125,0.2216803650550544,-1.2227490660756826,1.5401371456518769
2024-12-07 18:29:30.719623000,11.146622802734376,2.185034739715606,-2.619779763302206,0.1885444767158478
2024-12-07 18:29:30.729597000,11.156596923828126,3.1561388028442856,-3.6003631640464064,-1.1168203287262468
2024-12-07 18:29:30.739570000,11.16656982421875,3.1984096723407505,-3.8284249007016418,-1.9219234631195663
2024-12-07 18:29:30.749544000,11.1765439453125,2.9768092406541107,-3.332314284917712,-2.4370797017656267
2024-12-07 18:29:30.759518000,11.18651806640625,2.684344297671318,-2.4922663130670784,-2.650420985281467
2024-12-07 18:29:30.769492000,11.196491943359376,2.311114357755333,-1.3366338039308785,-2.6901205429852006
2024-12-07 18:29:30.779466000,11.206466064453124,1.898210286837816,-0.1434936941772699,-2.4942583636671305
2024-12-07 18:29:30.789440000,11.21643994140625,1.5647826343476772,0.6814233440369367,-2.187906057368219
2024-12-07 18:29:30.799413000,11.2264130859375,1.3197177404433489,1.126756543263793,-1.8211086347177623
2024-12-07 18:29:30.809387000,11.236386962890624,1.201291267505288,1.2468453964561224,-1.4518077048137783
2024-12-07 18:29:30.819361000,11.246361083984375,1.1484544342003762,0.9855337166279554,-0.961166533416882
2024-12-07 18:29:30.829335000,11.2563349609375,0.9751147600747644,0.3893319105416536,-0.4967039785671979
2024-12-07 18:29:30.839309000,11.26630908203125,0.6989578316837549,-0.2764268313735723,-0.3771575616884976
2024-12-07 18:29:30.849283000,11.276282958984376,0.5622569394517689,-0.6554688185691833,-0.3563754704225808
2024-12-07 18:29:30.859256000,11.286256103515624,0.6405348688095808,-0.6649766516268253,-0.1130658226877451
2024-12-07 18:29:30.869230000,11.29622998046875,0.7222546091843396,-0.3604115210056304,0.140230052738823
2024-12-07 18:29:30.879204000,11.3062041015625,0.8074334039717912,0.0627273820698261,0.316056100320071
2024-12-07 18:29:30.889178000,11.31617822265625,0.8964547725968063,0.4103670997858047,0.3310635537073016
2024-12-07 18:29:30.899152000,11.32615185546875,1.0921304894320667,0.591065027719736,0.3074837945468723
2024-12-07 18:29:30.909126000,11.3361259765625,1.3016291260451078,0.6218418587774038,0.267963100541383
2024-12-07 18:29:30.919099000,11.346098876953125,1.2774006937175988,0.5344283637404441,0.1788130640354007
2024-12-07 18:29:30.929073000,11.356072998046876,0.9492086037933826,0.3886544496715068,0.0381513784136623
2024-12-07 18:29:30.939047000,11.366046875,0.6580763707190752,0.1974935799121856,-0.1382380021387711
2024-12-07 18:29:30.949021000,11.37602099609375,0.3975596406608819,0.1081669447302818,-0.3454917093692347
2024-12-07 18:29:30.958995000,11.385994873046876,0.0420733741629868,0.1810971563845873,-0.4315742115307599
2024-12-07 18:29:30.968969000,11.395968994140626,-0.2888349889826029,0.2349398057311773,-0.4061198906701058
2024-12-07 18:29:30.978942000,11.40594189453125,-0.3306698051493614,0.1302151104092598,-0.321115721797198
2024-12-07 18:29:30.988916000,11.415916015625,-0.1614197384249419,0.0149637603759765,-0.2511704077051952
