time,seconds_elapsed,z,y,x
2024-12-07 18:18:20.179643100,0.01664306640625,-0.0112859486460685,-0.0220826524704694,-0.022098434561491
2024-12-07 18:18:20.189617200,0.0266171875,0.0635819530725479,-0.3792810566484927,-0.6517161880373954
2024-12-07 18:18:20.199591200,0.036591064453125,0.0738153239257633,-0.1798544628471136,-0.2624655260384083
2024-12-07 18:18:20.209565200,0.046565185546875,-0.0895408624544739,0.2157522901803255,0.3310673530995845
2024-12-07 18:18:20.219539200,0.056539306640625,-0.0035550621330738,0.1006429789662361,0.3871200797110796
2024-12-07 18:18:20.229512200,0.06651220703125,-0.042572482791543,0.0386743063092231,0.4263070117175578
2024-12-07 18:18:20.239486200,0.076486328125,-0.1221609832912683,0.106637250944972,0.2881394809991121
2024-12-07 18:18:20.249460200,0.086460205078125,-0.1627484297454357,0.2884954548299312,0.2550385909080505
2024-12-07 18:18:20.259434200,0.096434326171875,-0.0688483491681516,0.0376560691773891,-0.4282523005664348
2024-12-07 18:18:20.269408300,0.106408203125,0.0985749405205249,-0.3107505412578583,-0.9479963053941726
2024-12-07 18:18:20.279382300,0.11638232421875,-0.0111626145273447,-0.0506786323577165,-0.370668126603961
2024-12-07 18:18:20.289356300,0.126356201171875,-0.0865957489132881,-0.0203887080341577,-0.0161848266035318
2024-12-07 18:18:20.299330300,0.136330322265625,-0.1142109010696411,0.0022129998743534,0.3479892618060112
2024-12-07 18:18:20.309304300,0.14630419921875,-0.028509324517101,0.1235872167021036,0.5048059634149075
2024-12-07 18:18:20.319278300,0.1562783203125,0.0071038406558334,0.2510451373577118,0.5383201104819775
2024-12-07 18:18:20.329251300,0.166251220703125,0.0242735866434872,0.1492120718240737,0.255367676731944
2024-12-07 18:18:20.339225300,0.176225341796875,0.1667541582554578,-0.243549228644371,-0.542358572217822
2024-12-07 18:18:20.349199400,0.186199462890625,0.1310423550136387,-0.2084486891686916,-0.5687339534461497
2024-12-07 18:18:20.359173400,0.19617333984375,-0.0642332565881311,0.0544610735058784,-0.0719628279268741
2024-12-07 18:18:20.369147400,0.2061474609375,-0.1530716698616743,0.0192073892951011,0.0452606989622116
2024-12-07 18:18:20.379121400,0.216121337890625,-0.0202272338621318,-0.0221662391006946,-0.0146259067237377
2024-12-07 18:18:20.389095400,0.226095458984375,-0.1265840604305267,-0.0183060565412044,0.1985392895728349
2024-12-07 18:18:20.399069200,0.236069091796875,-0.1732113715708255,-0.0321615634143352,0.3232172241210937
2024-12-07 18:18:20.409043200,0.246043212890625,-0.0289570682846009,0.022020108628273,0.2466927873671054
2024-12-07 18:18:20.419017200,0.256017333984375,-0.0377231430642306,-0.0381377152144908,0.0145633628815412
2024-12-07 18:18:20.428991000,0.265990966796875,-0.0579560760147869,-0.0378442852258682,-0.1403290926665067
2024-12-07 18:18:20.438964200,0.275964111328125,-0.0314681743226945,-0.0111596919178962,-0.2819318585306405
2024-12-07 18:18:20.448938200,0.285938232421875,0.0410277375675737,-0.398061160442233,-0.5076707051962613
2024-12-07 18:18:20.458912300,0.295912353515625,-0.041555999225378,-1.155969778266549,-0.9580828151226044
2024-12-07 18:18:20.468886000,0.305885986328125,-0.1107746430106461,-2.583512518134713,-1.6929197694391012
2024-12-07 18:18:20.478860000,0.315860107421875,-0.0089010993361473,-3.6920232106119393,-2.1512778699338435
2024-12-07 18:18:20.488834000,0.325833984375,-0.1122680964387953,-2.521601128622889,-1.5586241117179394
2024-12-07 18:18:20.498808000,0.33580810546875,-0.1858418666936457,-1.7480694097310303,-1.380145613399148
2024-12-07 18:18:20.508782000,0.345781982421875,0.0177805713623762,-1.0344079299122095,-1.0863187344133851
2024-12-07 18:18:20.518756000,0.355756103515625,0.2561129421412945,-0.4473685044467449,-0.6936947965890169
2024-12-07 18:18:20.528730000,0.365730224609375,0.7955946437485516,-0.3093471042007207,0.0980459482103586
2024-12-07 18:18:20.538703000,0.375703125,0.1775660596489906,-1.170241464725137,1.3853385058671237
2024-12-07 18:18:20.548677000,0.385677001953125,-0.2230780299585312,-0.0785866299808025,0.5887929911345243
2024-12-07 18:18:20.558651100,0.395651123046875,-0.403704719287157,0.5203869789063931,0.1068617073506116
2024-12-07 18:18:20.568626200,0.405626220703125,-0.425282929366827,0.4628834689646959,0.0629880788326263
2024-12-07 18:18:20.578600200,0.41560009765625,-0.1579055928241461,0.4231844957828521,-0.000839081172645
2024-12-07 18:18:20.588574200,0.42557421875,0.1737492047745734,0.5104781638324261,-0.0970581062167882
2024-12-07 18:18:20.598548200,0.43554833984375,0.462444054634124,0.652839639109373,-0.0878963101178407
2024-12-07 18:18:20.608522200,0.445522216796875,0.3498684996813535,0.599399725344777,0.1433785433650016
2024-12-07 18:18:20.618496300,0.455496337890625,0.0042290158718824,0.3330915524035692,0.3895297712013125
2024-12-07 18:18:20.628470300,0.46547021484375,-0.2955412086229771,0.1241033495306968,0.3593488602101802
2024-12-07 18:18:20.638444300,0.4754443359375,-0.4012198436688631,-0.1616506976366043,0.3750874043509364
2024-12-07 18:18:20.648417000,0.4854169921875,-0.3482277467370033,-0.3563169451683759,0.5482900080934167
2024-12-07 18:18:20.658391000,0.49539111328125,-0.2802315574187785,-0.5179834248960018,0.6433271298766136
2024-12-07 18:18:20.668365000,0.505364990234375,-0.1915572486657649,-0.522047021073103,0.7287360070928931
2024-12-07 18:18:20.678339000,0.515339111328125,-0.1681727928817272,-0.3490367250323295,0.7859206603437662
2024-12-07 18:18:20.688313000,0.52531298828125,-0.141361285258457,-0.2305962235689163,0.7257561144992709
2024-12-07 18:18:20.698287000,0.535287109375,-0.0841588040899485,-0.1424298643380403,0.6173886787608266
2024-12-07 18:18:20.708261000,0.54526123046875,0.0365425549775362,0.1212117197424173,0.5682306800991297
2024-12-07 18:18:20.718235100,0.555235107421875,0.1625240464050322,0.2262672544538974,0.396621483027935
2024-12-07 18:18:20.728209000,0.565208984375,0.2709007614284753,0.370250193452835,0.3153679719254374
2024-12-07 18:18:20.738183000,0.575182861328125,0.2350380054086446,0.5346224250078201,0.2537596570134163
2024-12-07 18:18:20.748157000,0.585156982421875,0.1517711451897397,0.7749754879593849,0.1790904927372932
2024-12-07 18:18:20.758130200,0.595130126953125,0.0324877266287803,1.1264099217832089,0.0898573810577392
2024-12-07 18:18:20.768104200,0.605104248046875,-0.088621774848178,1.39912737724483,0.089048402762413
2024-12-07 18:18:20.778078000,0.615077880859375,-0.178490846343711,1.634127973252535,0.1437421159803867
2024-12-07 18:18:20.788052000,0.625052001953125,-0.2547744235465303,1.7523381730914114,0.1801405863121152
2024-12-07 18:18:20.798026000,0.63502587890625,-0.2712800796022638,1.7596207313150167,0.251951146286726
2024-12-07 18:18:20.808000000,0.645,-0.2819984940260648,1.7156120782405138,0.2185828374311327
2024-12-07 18:18:20.817974000,0.65497412109375,-0.3355798255553469,1.609699634438753,0.2562564422652125
2024-12-07 18:18:20.827948000,0.664947998046875,-0.3680149452140555,1.3878227238982914,0.2800447296097874
2024-12-07 18:18:20.837922000,0.674922119140625,-0.3301040244927629,0.6839426333814859,-0.0428583139955997
2024-12-07 18:18:20.847896000,0.68489599609375,-0.1563093366086483,0.0722562579154968,-0.1994298086717724
2024-12-07 18:18:20.857870000,0.6948701171875,0.1297183398682624,-0.1249713645368814,-0.01391279001832
2024-12-07 18:18:20.867843000,0.704843017578125,0.1743371607303619,-0.1516834303736686,0.1190653553634882
2024-12-07 18:18:20.877817000,0.714817138671875,0.0694400314509868,-0.069532970431447,0.2054223270848393
2024-12-07 18:18:20.887791000,0.724791015625,-0.0531721662065014,-0.095896661221981,0.134957336500287
2024-12-07 18:18:20.897765000,0.73476513671875,-0.0209136086910963,-0.1239998891562223,0.0529381017223
2024-12-07 18:18:20.907739100,0.7447392578125,0.0606973740795627,-0.1161100126892328,0.0529705426871776
2024-12-07 18:18:20.917713200,0.754713134765625,0.0434819988518953,-0.0172036482572555,0.1848576779618859
2024-12-07 18:18:20.927687200,0.764687255859375,0.0014262334108352,0.0450718983918428,0.2646566063418984
2024-12-07 18:18:20.937661200,0.7746611328125,0.0494388614296913,0.0654196898937225,0.2898977228432893
2024-12-07 18:18:20.947635200,0.78463525390625,0.0815366754254326,0.0500450106292962,0.1842407151073217
2024-12-07 18:18:20.957609200,0.794609130859375,0.011885668104887,-0.0511380665630102,-0.0171560097232461
2024-12-07 18:18:20.967582000,0.80458203125,-0.0677262498030439,-0.1297925010830163,-0.10838467913419
2024-12-07 18:18:20.977556000,0.814555908203125,-0.0954710927536711,-0.1032926166921854,-0.0714960871979594
2024-12-07 18:18:20.987530000,0.824530029296875,-0.0677518957009539,-0.0332154563814401,0.0520981437668204
2024-12-07 18:18:20.997504000,0.83450390625,0.0031996362915262,-0.0213496620208024,0.1367591252252459
2024-12-07 18:18:21.007478000,0.84447802734375,0.0910422069281339,-0.0842775350987911,0.1195885024547576
2024-12-07 18:18:21.017452000,0.8544521484375,0.1312649117231369,-0.1255506257295608,0.0332382527351379
2024-12-07 18:18:21.027426000,0.864426025390625,0.0530103267082944,-0.0992225907742977,-0.046143911537528
2024-12-07 18:18:21.037400000,0.874400146484375,-0.0282054461997002,-0.070894321912527,-0.0272960032045841
2024-12-07 18:18:21.047374000,0.8843740234375,0.0242716869473457,-0.0526087236374616,0.0418181572929024
2024-12-07 18:18:21.057348000,0.89434814453125,0.1036105235349386,-0.0135468793153762,0.0747112498521804
2024-12-07 18:18:21.067322000,0.904322021484375,0.1004435839366167,-0.0111561847865581,0.1589481606796383
2024-12-07 18:18:21.077295000,0.914295166015625,-0.0193119821807369,-0.0063484922438859,0.1840449002742767
2024-12-07 18:18:21.087269000,0.92426904296875,-0.0834621270626783,-0.0546966358274221,0.1934884359240531
2024-12-07 18:18:21.097243100,0.9342431640625,-0.1787597264129668,-0.1055336736172437,0.1061120580270886
2024-12-07 18:18:21.107217200,0.944217041015625,-0.1089970388788729,-0.0580962151378393,0.1181643148705363
2024-12-07 18:18:21.117191200,0.954191162109375,0.0013765490502119,0.0086877488464117,0.1354021576583385
2024-12-07 18:18:21.127165200,0.964165283203125,0.0778635764032602,0.0569341856211423,0.2038777279913425
2024-12-07 18:18:21.137139200,0.97413916015625,0.0729798229496926,0.0902992796063423,0.2872121370211243
2024-12-07 18:18:21.147113000,0.984113037109375,0.0335000454764813,0.1116156238794326,0.362614876268804
2024-12-07 18:18:21.157087000,0.9940869140625,-0.0254413883138448,0.1138812307238578,0.3186579533815383
2024-12-07 18:18:21.167061000,1.00406103515625,-0.1386719731092452,0.1017933180451393,0.2239543013364076
2024-12-07 18:18:21.177035000,1.014034912109375,-0.3385696915537118,0.0581277793198823,0.0683858462229371
2024-12-07 18:18:21.187008300,1.02400830078125,-0.4690893013348802,-0.0201841253727674,0.0983431775912642
2024-12-07 18:18:21.196982300,1.033982177734375,-0.4758668691784143,-0.0874473973065614,0.2426268531024455
2024-12-07 18:18:21.206956000,1.0439560546875,-0.3782581433415413,-0.1625099448144435,0.3394090649873018
2024-12-07 18:18:21.216930000,1.053929931640625,-0.1710263556819409,-0.2195388229817151,0.453507737854123
2024-12-07 18:18:21.226904000,1.063904052734375,0.0660644175380468,-0.2053495541095733,0.5766042484298348
2024-12-07 18:18:21.236878000,1.073878173828125,0.2355313784161582,-0.1769604949712753,0.6291212021306156
2024-12-07 18:18:21.246852000,1.08385205078125,0.3190209780076518,-0.1297732118606567,0.5977718318819999
2024-12-07 18:18:21.256826000,1.093826171875,0.3049094140142202,-0.1455722540169954,0.4915075059026479
2024-12-07 18:18:21.266800000,1.103800048828125,0.1394820473831146,-0.1812485475540161,0.3890124693289399
2024-12-07 18:18:21.276774100,1.113774169921875,0.0158873049616813,-0.2303764433383941,0.2814034507423639
2024-12-07 18:18:21.286747000,1.123746826171875,-0.0919493849009275,-0.252930220451951,0.3066010203629732
2024-12-07 18:18:21.296721000,1.133720947265625,-0.0974561656236648,-0.2737204950243234,0.3301081526786089
2024-12-07 18:18:21.306695000,1.14369482421875,0.0804279104659333,-0.2382733340680599,0.3885167947664856
2024-12-07 18:18:21.316669000,1.1536689453125,0.2113842311639338,-0.2200152083218097,0.4374827779874205
2024-12-07 18:18:21.326643000,1.163642822265625,0.2511171431479975,-0.1516933672457933,0.6185448630586267
2024-12-07 18:18:21.336617000,1.173616943359375,0.2459996174711733,-0.1131149225264787,0.7242702598556876
2024-12-07 18:18:21.346591000,1.183591064453125,0.1682382593333721,-0.1124397997438907,0.6410340505033731
2024-12-07 18:18:21.356565000,1.19356494140625,0.0903005217153578,-0.0696831925570964,0.4068190519154072
2024-12-07 18:18:21.366539000,1.2035390625,-0.0109304862719029,-0.0083411273658275,0.2425964579641819
2024-12-07 18:18:21.376513000,1.213512939453125,-0.1581254461199045,0.0593196194529533,0.1826294805184006
2024-12-07 18:18:21.386487000,1.223487060546875,-0.2584726570099592,0.097569562870264,0.23243571395576
2024-12-07 18:18:21.396460000,1.2334599609375,-0.1246580608040094,-1.7170546782642602,0.0728913409486412
2024-12-07 18:18:21.406434000,1.24343408203125,0.3790156837105751,-1.8937837025672195,0.385444547714293
2024-12-07 18:18:21.416408000,1.253407958984375,0.4804857611507177,0.0189870245426893,0.4484454860284924
2024-12-07 18:18:21.426382000,1.263382080078125,0.0061550154983997,-0.4782949731081723,-0.248739490763843
2024-12-07 18:18:21.436356000,1.273356201171875,-0.5310854465207084,0.2157762555778026,-0.0475280593723058
2024-12-07 18:18:21.446330000,1.283330078125,-0.9531249004542828,0.5132020358383655,0.1213899989187717
2024-12-07 18:18:21.456304000,1.29330419921875,-1.2451754174172878,0.8103238647162914,0.22173984015733
2024-12-07 18:18:21.466278100,1.303278076171875,-1.3614116868346928,1.364572781214118,0.5216425319254399
2024-12-07 18:18:21.476252200,1.313252197265625,-1.2519283988088368,1.6987117968440055,0.5248793218895793
2024-12-07 18:18:21.486226200,1.32322607421875,-1.0822148062258958,1.4098171135634183,0.1849322045028209
2024-12-07 18:18:21.496199200,1.33319921875,-0.9509178188640623,0.4566606489270925,-0.0728968939065933
2024-12-07 18:18:21.506173200,1.343173095703125,-0.94637411101982,0.1077747305423021,-0.0430646502226591
2024-12-07 18:18:21.516147200,1.353147216796875,-1.1123749666899445,-0.1558627618849277,0.0292930222406983
2024-12-07 18:18:21.526121200,1.363121337890625,-1.2389660413831471,-0.6442565196812152,0.0335962723925709
2024-12-07 18:18:21.536095200,1.37309521484375,-1.208908172249794,-0.3332096258252859,0.1337023680031299
2024-12-07 18:18:21.546069200,1.3830693359375,-1.127198441812396,-0.0676718527346849,0.1508297361537814
2024-12-07 18:18:21.556043300,1.393043212890625,-0.8963133182995021,0.0023585458248853,0.1144584460899233
2024-12-07 18:18:21.566016800,1.403016845703125,-0.7285165191233157,0.1540396381109952,0.1103334751144051
2024-12-07 18:18:21.575990800,1.41299072265625,-0.6076087507635355,0.0503787726283073,0.0129255325466394
2024-12-07 18:18:21.585964800,1.42296484375,-0.5747007528960705,0.8298124090403318,0.3321010800614953
2024-12-07 18:18:21.595938600,1.4329384765625,-0.8256582119703292,1.6371534585535523,0.5230038834065198
2024-12-07 18:18:21.605911800,1.442911865234375,-1.0858953944347798,1.8521172287046908,0.5340244591146707
2024-12-07 18:18:21.615885800,1.4528857421875,-1.228686054909229,1.8545809884697195,0.494439175440371
2024-12-07 18:18:21.625859800,1.46285986328125,-1.1831747421868144,1.489746390324831,0.3936532808721065
2024-12-07 18:18:21.635833900,1.472833740234375,-1.0787035832345484,0.7780939122408628,0.1905380616858601
2024-12-07 18:18:21.645807600,1.4828076171875,-0.632890637666732,0.021121113961935,0.0661868748739361
2024-12-07 18:18:21.655781600,1.49278173828125,0.2679220378786325,-0.3274947553098201,0.0571264933228492
2024-12-07 18:18:21.665755600,1.502755615234375,1.0347815855301916,-0.5450584788262843,-0.0813245305120945
2024-12-07 18:18:21.675729700,1.512729736328125,1.1773312768556177,-0.5020885211497544,-0.0761520963102579
2024-12-07 18:18:21.685703700,1.52270361328125,1.0001603540040551,-0.3353425462007522,0.2038195680633187
2024-12-07 18:18:21.695677700,1.532677734375,0.7389468738533556,-0.2089034471988677,0.4227840982884168
2024-12-07 18:18:21.705650700,1.542650634765625,0.497622773912549,-0.0966267290621995,0.5561176329791545
2024-12-07 18:18:21.715624700,1.552624755859375,0.3157803521186113,0.0052758945763111,0.5884834867939353
2024-12-07 18:18:21.725598700,1.5625986328125,0.2386428980328142,0.1212538053184747,0.3923036198288202
2024-12-07 18:18:21.735572700,1.57257275390625,0.2791144630223512,0.050536009016633,-0.067915890623629
2024-12-07 18:18:21.745546500,1.58254638671875,0.4439730167895555,-0.0946697497755289,-0.4371773653000593
2024-12-07 18:18:21.755520500,1.5925205078125,0.4190501724570989,-0.2740641938954591,-0.5613660550266504
2024-12-07 18:18:21.765494500,1.60249462890625,0.3251951000653207,-0.47003743237257,-0.6785474963396787
2024-12-07 18:18:21.775468500,1.612468505859375,0.2941654632903635,-0.5962801320195198,-0.8502353116050362
2024-12-07 18:18:21.785442600,1.622442626953125,0.325132117831707,-0.5697440072715282,-0.8906251896604895
2024-12-07 18:18:21.795416600,1.63241650390625,0.3363946856021881,-0.5255658428490162,-0.8583750711798668
2024-12-07 18:18:21.805390600,1.642390625,0.2107873612493276,-0.8298048102557659,-0.8208546110808849
2024-12-07 18:18:21.815363600,1.652363525390625,0.0998605964168906,-2.776924966213107,-1.265636606165767
2024-12-07 18:18:21.825337600,1.662337646484375,0.3790466633707284,-2.676255099239945,-1.2503563271865248
2024-12-07 18:18:21.835311600,1.6723115234375,0.6211132522419095,-0.9918518137335776,-0.5685886997565627
2024-12-07 18:18:21.845285600,1.68228564453125,0.4919665017165243,-0.6939309434324502,-0.3302151201844215
2024-12-07 18:18:21.855259600,1.692259765625,0.1525827173009514,-0.7412199333518743,-0.2697068754687905
2024-12-07 18:18:21.865233700,1.702233642578125,-0.1282090312838554,-0.8708797479659318,-0.2212611167296767
2024-12-07 18:18:21.875207700,1.712207763671875,-0.3273714211910963,-0.8900023815870285,-0.2413160627648234
2024-12-07 18:18:21.885181700,1.722181640625,-0.4284732498407363,-1.104790210649371,-0.3592725801035761
2024-12-07 18:18:21.895155700,1.73215576171875,-0.3901085940025746,-1.357502404436469,-0.5048956875249743
2024-12-07 18:18:21.905129700,1.742129638671875,-0.4085483599260449,-1.3027420557230711,-0.3311027166739106
2024-12-07 18:18:21.915103700,1.752103759765625,-0.5422549657128751,-1.3507511766105889,-0.2231619819149375
2024-12-07 18:18:21.925076700,1.76207666015625,-0.7582441333889961,-1.4376239888995883,-0.0719675041019916
2024-12-07 18:18:21.935050800,1.77205078125,-0.971934814864397,-1.4661439809411765,0.0668839172273874
2024-12-07 18:18:21.945024800,1.782024658203125,-1.1948206101864576,-1.2751274880886077,0.2245528517514467
2024-12-07 18:18:21.954998800,1.791998779296875,-1.379882578548789,-1.09322953671515,0.4860007251799106
2024-12-07 18:18:21.964972800,1.801972900390625,-1.343274995511025,-0.9232160844027996,0.8023872264981269
2024-12-07 18:18:21.974946800,1.81194677734375,-1.1627676217131315,-0.8003992675513029,1.1504451696261764
2024-12-07 18:18:21.984920800,1.8219208984375,-1.0637577969066798,-0.6962398048967122,1.3634636509284377
2024-12-07 18:18:21.994894800,1.831894775390625,-0.8986104893259703,-0.5168921225279569,1.4917689821936189
2024-12-07 18:18:22.004868900,1.841868896484375,-0.7167056698203086,-0.4754904370814561,1.3944998635746535
2024-12-07 18:18:22.014842600,1.851842529296875,-0.5727946270138025,-0.6205518189668655,1.0431972394369542
2024-12-07 18:18:22.024815900,1.86181591796875,-0.6073755265295505,-0.631933044680953,0.6493411294691265
2024-12-07 18:18:22.034790000,1.871789794921875,-0.9184697666585444,-0.6112047294288874,0.3038112435139715
2024-12-07 18:18:22.044764000,1.881763916015625,-1.2451315782755612,-0.4887175829231738,0.0701908498182892
2024-12-07 18:18:22.054738000,1.891738037109375,-1.4443841306842862,-0.44267771628201,-0.1413482065811753
2024-12-07 18:18:22.064712000,1.9017119140625,-1.6068664568394422,-0.4667290384769439,-0.3012883009076118
2024-12-07 18:18:22.074685700,1.911685791015625,-1.6080816778481006,-0.0495516741544008,-0.3286111921191215
2024-12-07 18:18:22.084659700,1.92165966796875,-1.5344712288446722,0.3180073805183172,-0.4157135753802954
2024-12-07 18:18:22.094633500,1.931633544921875,-1.490498085474968,0.8349643849760293,-0.4317966951750218
2024-12-07 18:18:22.104607500,1.941607421875,-1.3912738872654735,1.633075249329209,-0.319612623757869
2024-12-07 18:18:22.114581500,1.95158154296875,-1.3396193956129252,3.068226126113534,0.0130246090069413
2024-12-07 18:18:22.124555500,1.961555419921875,-1.1220159246079624,3.223482154276967,-0.0158849668741226
2024-12-07 18:18:22.134528500,1.971528564453125,-0.742688252338767,1.84354053901732,-0.7668202385544777
2024-12-07 18:18:22.144502500,1.98150244140625,-0.1748527090370654,0.4630635017067194,-1.5297073754437267
2024-12-07 18:18:22.154476500,1.9914765625,0.6722931121200323,1.0142395866304634,-0.832754892233014
2024-12-07 18:18:22.164450600,2.001450439453125,0.9060913466006516,1.818169950917363,0.3172735132858157
2024-12-07 18:18:22.174424600,2.011424560546875,0.7120289101809263,1.413303202113509,0.7543877502217888
2024-12-07 18:18:22.184398600,2.021398681640625,0.4786870411656796,0.6968629052311182,0.8631738497637211
2024-12-07 18:18:22.194372600,2.03137255859375,0.2552729841858148,0.228651519241929,0.6317299963895231
2024-12-07 18:18:22.204346600,2.0413466796875,0.0281086347617208,-1.2363117274820803,-0.3830224351339042
2024-12-07 18:18:22.214320600,2.051320556640625,0.5329582911878824,-2.0293618013143537,-1.168408184883371
2024-12-07 18:18:22.224294700,2.061294677734375,1.065686865273118,-1.014294531688094,-1.0119899810727686
2024-12-07 18:18:22.234268700,2.0712685546875,1.1207692855477331,0.503695371824503,-0.6234335849482566
2024-12-07 18:18:22.244241700,2.08124169921875,1.139464633667469,1.0120295093655585,-0.6828128986991941
2024-12-07 18:18:22.254215700,2.091215576171875,1.152198004642874,1.2190075414597987,-0.4279071403905749
2024-12-07 18:18:22.264189700,2.101189697265625,1.0668284365236758,1.1972896306484937,0.1576128204226493
2024-12-07 18:18:22.274163700,2.111163818359375,0.8236386888414621,1.0242466013818978,0.6535611583169549
2024-12-07 18:18:22.284137700,2.1211376953125,0.5282739327639341,0.918392609769106,0.8844294037602841
2024-12-07 18:18:22.294111700,2.13111181640625,0.2926204258054494,1.15499830288589,0.9175514097046108
2024-12-07 18:18:22.304085800,2.141085693359375,0.3236620452791452,0.9535451716929674,0.5811649804741144
2024-12-07 18:18:22.314059800,2.151059814453125,0.593406768540293,0.1704594425141811,-0.0054924599364399
2024-12-07 18:18:22.324033800,2.16103369140625,1.109271009325236,-0.4385860630542039,-0.4288350688904523
2024-12-07 18:18:22.334007800,2.1710078125,1.3578203843444585,-1.3184990123033522,-0.7205581074647605
2024-12-07 18:18:22.343980800,2.180980712890625,1.2962626305758953,-2.1865432445824147,-0.699543230356276
2024-12-07 18:18:22.353954800,2.190954833984375,1.1577088039536028,-2.464603230115771,-0.4035949753023684
2024-12-07 18:18:22.363928800,2.2009287109375,1.0804734424512832,-2.0074732101112605,0.102967768651992
2024-12-07 18:18:22.373902800,2.21090283203125,1.1835276472777128,-0.821786923494935,0.9560755669534206
2024-12-07 18:18:22.383876900,2.220876953125,1.2464952678442,0.3004799071341753,1.4262772499769925
2024-12-07 18:18:22.393851000,2.230850830078125,0.8670143047094344,0.5084370133936404,1.0489531726151704
2024-12-07 18:18:22.403825000,2.240824951171875,0.3607048779290169,0.1574573375999927,0.5871127829626203
2024-12-07 18:18:22.413799000,2.250798828125,0.0592173646548762,-0.047328152886033,0.4882476273238658
2024-12-07 18:18:22.423773000,2.26077294921875,0.0854419027030467,0.0937491277992725,0.5733166050612926
2024-12-07 18:18:22.433746700,2.27074658203125,0.2710124781746417,0.3128250094443559,0.6408480264119804
2024-12-07 18:18:22.443720700,2.280720703125,0.5459762877909466,0.4769996726006269,0.6965186218380928
2024-12-07 18:18:22.453693700,2.290693603515625,0.799326669883728,0.6324228740245104,0.9307856428742408
2024-12-07 18:18:22.463667700,2.300667724609375,0.7214110710322856,0.6362976696312427,0.9962848277449609
2024-12-07 18:18:22.473641700,2.310641845703125,0.4921516490250825,0.4072638730734586,0.7420954010121524
2024-12-07 18:18:22.483615700,2.32061572265625,0.393773692381382,0.0664057783216238,0.3584554185017943
2024-12-07 18:18:22.493589800,2.33058984375,0.3309551248967647,-0.1699164216786622,-0.040914486451447
2024-12-07 18:18:22.503563500,2.3405634765625,0.3560281913548708,-0.3604816636323928,-0.4386081287555396
2024-12-07 18:18:22.513537500,2.35053759765625,0.4721639230072498,-0.5222749846100807,-0.5944019170574844
2024-12-07 18:18:22.523511600,2.360511474609375,0.7015490172207355,-0.4736860180079936,-0.3269058495059609
2024-12-07 18:18:22.533485600,2.370485595703125,0.8540273973643779,-0.2673936300903559,-0.3190393539145588
2024-12-07 18:18:22.543459600,2.38045947265625,0.8909031298190355,-0.0691062694519758,-0.3926021643839776
2024-12-07 18:18:22.553433600,2.39043359375,0.9274947846353052,-0.0258311913490295,-0.0396039883747696
2024-12-07 18:18:22.563406600,2.400406494140625,0.6955915701210499,-0.022648469659686,0.283963948880136
2024-12-07 18:18:22.573380600,2.410380615234375,0.3017974560061469,-0.0037292496562004,0.222868990317732
2024-12-07 18:18:22.583354600,2.420354736328125,0.197744979123678,-0.034347675281763,0.124789285968244
2024-12-07 18:18:22.593328600,2.43032861328125,0.2381207738548517,-0.1150572887659072,0.0725026338919997
2024-12-07 18:18:22.603302700,2.440302734375,0.252646727335453,-0.1733347056895494,-0.0617852789141237
2024-12-07 18:18:22.613276700,2.450276611328125,0.1870353325282223,-0.1476987446516752,-0.1797264525532722
2024-12-07 18:18:22.623250700,2.460250732421875,-0.0469844540148973,-0.0929664529889821,-0.2460673489451408
2024-12-07 18:18:22.633224700,2.470224609375,-0.5495639735519886,-0.1166074408173561,-0.6065626027114689
2024-12-07 18:18:22.643198700,2.48019873046875,-0.8864695312857628,-0.0210667534261941,-0.6025549745053053
2024-12-07 18:18:22.653172700,2.4901728515625,-1.0767536182105542,0.0640764585912227,-0.6073655896574258
2024-12-07 18:18:22.663146500,2.500146484375,-1.175992575597763,0.2265337964355945,-0.3129476129107177
2024-12-07 18:18:22.673119500,2.510119384765625,-1.2449345943987369,0.2811509372860193,0.0521734009601175
2024-12-07 18:18:22.683093500,2.520093505859375,-1.314924076426029,0.2431535073250532,0.2923569525636732
2024-12-07 18:18:22.693067500,2.530067626953125,-1.3233984747827052,0.2129044995337724,0.4543292833700776
2024-12-07 18:18:22.703041500,2.54004150390625,-1.2783259918689729,0.1905243254214525,0.4246380555920303
2024-12-07 18:18:22.713015600,2.550015625,-1.39325234773159,0.150539521035552,0.1635701213918626
2024-12-07 18:18:22.722989600,2.559989501953125,-1.6640169155597686,0.0287660757571458,-0.1743690171733498
2024-12-07 18:18:22.732963600,2.569963623046875,-1.9193138651430608,-0.083335870334506,-0.404054409507662
2024-12-07 18:18:22.742937600,2.5799375,-2.180748294568062,-0.2573433607190847,-0.6071405487298965
2024-12-07 18:18:22.752911600,2.58991162109375,-2.223333052319288,-0.3302121975749731,-0.3863967338725924
2024-12-07 18:18:22.762885600,2.5998857421875,-2.16696877554059,-0.3442173420518636,-0.0288392871238291
2024-12-07 18:18:22.772859600,2.609859619140625,-1.9340180978000163,-0.2876455600023269,0.499649895825982
2024-12-07 18:18:22.782832600,2.61983251953125,-1.4490484692335128,-0.2390437339186668,0.9704993752337993
2024-12-07 18:18:22.792806700,2.629806640625,-0.953752676963806,-0.3231640326291322,1.2952686511024831
2024-12-07 18:18:22.802780700,2.63978076171875,-0.6519266159176826,-0.3718646429121494,1.43449226674512
2024-12-07 18:18:22.812754700,2.649754638671875,-0.5391852759439498,-0.4092945021182298,1.5455983336672183
2024-12-07 18:18:22.822728700,2.659728759765625,-0.4785433949112891,-0.4234019379258155,1.6525754840910434
2024-12-07 18:18:22.832702700,2.66970263671875,-0.5985071969518437,-0.2546604052454233,1.6826947280228135
2024-12-07 18:18:22.842676700,2.6796767578125,-0.7507365342378616,-0.0040963294029235,1.7440294866904615
2024-12-07 18:18:22.852650800,2.689650634765625,-0.8728571855187416,0.3807049519717693,1.7310358573436735
2024-12-07 18:18:22.862624800,2.699624755859375,-1.114813007491827,0.510105238866806,1.4423944181717931
2024-12-07 18:18:22.872598500,2.7095986328125,-1.398060624796152,0.6583125175625085,1.3907685680918396
2024-12-07 18:18:22.882572500,2.719572509765625,-1.7760124786674976,0.7125374442249536,1.4076834625355898
2024-12-07 18:18:22.892545800,2.7295458984375,-1.844960342687368,0.6162900698691606,1.5364851990155874
2024-12-07 18:18:22.902519800,2.739519775390625,-1.563199749070406,0.3371680080622434,1.5693252462133764
2024-12-07 18:18:22.912493800,2.749493896484375,-1.0627613332152366,-0.0019102175354957,1.4803405563369392
2024-12-07 18:18:22.922467600,2.759467529296875,-0.3849731308102607,-0.1216512802034616,1.5758232299305497
2024-12-07 18:18:22.932441600,2.769441650390625,0.1709790824741125,0.1243161154985427,1.8200423206605016
2024-12-07 18:18:22.942415600,2.77941552734375,0.5779185458987951,0.7194564298331737,1.909203682278097
2024-12-07 18:18:22.952389600,2.7893896484375,0.8447194707930088,1.4841285504430533,1.7423073390729724
2024-12-07 18:18:22.962363600,2.79936376953125,0.9721983611714096,2.275146826186776,1.2774614839941263
2024-12-07 18:18:22.972337700,2.809337646484375,0.6263455268722027,2.7519197042942047,0.4076831213988363
2024-12-07 18:18:22.982311700,2.819311767578125,-0.1569721113663166,2.909469396352768,-0.6528700342476368
2024-12-07 18:18:22.992285700,2.82928564453125,-1.118967789083719,2.808012762916088,-1.5387543129913508
2024-12-07 18:18:23.002258400,2.839258544921875,-1.887016692650318,2.702532865312695,-2.4511637566976248
2024-12-07 18:18:23.012232400,2.849232421875,-2.506351537042856,2.3002660698741675,-3.0539263826042413
2024-12-07 18:18:23.022206500,2.85920654296875,-2.87509249497652,1.78193894610703,-3.097590752285719
2024-12-07 18:18:23.032180500,2.869180419921875,-2.5810516809791326,1.3026777583152056,-2.757203782176972
2024-12-07 18:18:23.042154500,2.879154541015625,-1.7580745247863232,0.9174152891695498,-2.1829433203943074
2024-12-07 18:18:23.052128500,2.88912841796875,-0.8669083601169287,0.5821551605552434,-1.709806022310257
2024-12-07 18:18:23.062102500,2.8991025390625,0.0073626377224922,0.3065262015610933,-1.5180881031900644
2024-12-07 18:18:23.072076500,2.90907666015625,0.7826105128824711,0.1256762979358434,-1.757246111138165
2024-12-07 18:18:23.082050600,2.919050537109375,1.6873254565633833,0.0054325464427471,-1.901983667896688
2024-12-07 18:18:23.092024600,2.929024658203125,2.717937939715385,0.0260509715795516,-1.775256399603188
2024-12-07 18:18:23.101998600,2.93899853515625,3.678510233566165,0.0697714553624391,-1.401293030846119
2024-12-07 18:18:23.111971600,2.9489716796875,3.594397533640265,0.217901577168703,-0.9475158284008502
2024-12-07 18:18:23.121945600,2.958945556640625,2.7635879302561284,0.3950327525317669,-0.5478028090983629
2024-12-07 18:18:23.131919600,2.968919677734375,1.56399411431849,0.7509077991515397,0.067958852982521
2024-12-07 18:18:23.141893600,2.9788935546875,0.370503875952959,1.1667799260944127,0.5238868037208915
2024-12-07 18:18:23.151867600,2.98886767578125,-0.1324599667266011,1.38062667491436,0.8703194837346673
2024-12-07 18:18:23.161841700,2.998841552734375,-0.2707142989456653,1.6469026991516351,1.0866937052056194
2024-12-07 18:18:23.171815700,3.008815673828125,0.1683656851053238,1.488466871908307,0.6854670664697885
2024-12-07 18:18:23.181789700,3.018789794921875,1.0262760613828896,0.8573018889904022,0.2018123198941349
2024-12-07 18:18:23.191763700,3.028763671875,1.875373016607761,0.178488435190916,-0.31271482706815
2024-12-07 18:18:23.201737700,3.03873779296875,2.6780840682327747,-0.4947510178685188,-0.640718993204832
2024-12-07 18:18:23.211711700,3.048711669921875,2.969261309492588,-1.0291004711538552,-0.8246525420591234
2024-12-07 18:18:23.221684700,3.058684814453125,2.804071624074876,-1.3249907124102114,-0.8813555492728948
2024-12-07 18:18:23.231658800,3.06865869140625,2.1626415599912403,-1.466703952911496,-0.9075821696802974
2024-12-07 18:18:23.241632800,3.0786328125,1.4936524578526615,-1.4617407775461673,-0.8035700065419077
2024-12-07 18:18:23.251606800,3.088606689453125,1.107045296099782,-1.344081781849265,-0.6826335966095328
2024-12-07 18:18:23.261580800,3.098580810546875,0.7378586402252316,-1.1462181995809078,-0.5457265873461962
2024-12-07 18:18:23.271554800,3.108554931640625,0.6157458799898624,-0.9251946909993888,-0.3148959704995155
2024-12-07 18:18:23.281528800,3.11852880859375,0.7135410683095454,-0.958087491297722,-0.3346674234181642
2024-12-07 18:18:23.291502600,3.128502685546875,0.790190008226037,-1.103345272538066,-0.2651692320391535
2024-12-07 18:18:23.301476600,3.1384765625,0.9308337197996676,-1.5207763193607329,-0.3577224280521273
2024-12-07 18:18:23.311450600,3.14845068359375,0.9685472182527184,-2.183815865445137,-1.1544859694495797
2024-12-07 18:18:23.321424600,3.158424560546875,0.7343015322655438,-2.630339151239395,-2.064655525274574
2024-12-07 18:18:23.331397600,3.168397705078125,0.2914334079779684,-3.014471155050397,-2.6038135478854176
2024-12-07 18:18:23.341371600,3.17837158203125,-0.1875822806201875,-3.23479791353941,-2.862792985373736
2024-12-07 18:18:23.351345700,3.188345703125,-0.7632320048041641,-3.136982851475477,-2.45984025349766
2024-12-07 18:18:23.361319400,3.1983193359375,-1.353706811545789,-2.802795905050635,-1.6153291647583246
2024-12-07 18:18:23.371293400,3.20829345703125,-1.7848960423469542,-2.219558209955692,-0.4779162029236555
2024-12-07 18:18:23.381267500,3.218267333984375,-1.74845256382972,-1.6133669247746467,0.7500128961384296
2024-12-07 18:18:23.391241500,3.228241455078125,-1.5190401432178913,-1.0735293954670428,1.767329990518093
2024-12-07 18:18:23.401215500,3.238215576171875,-1.2921655705206097,-0.6105763683974742,2.394491290752589
2024-12-07 18:18:23.411189500,3.248189453125,-1.2085147890180348,-0.2910784570604562,2.658458453525603
2024-12-07 18:18:23.421163500,3.25816357421875,-1.450120482379198,0.0329547596186399,2.8810049338907
2024-12-07 18:18:23.431137500,3.268137451171875,-1.9898501673981543,0.3164244952410459,2.965503418263793
2024-12-07 18:18:23.441110500,3.278110595703125,-2.603615979486704,0.5368406855791806,2.560436762973666
2024-12-07 18:18:23.451084500,3.28808447265625,-2.967390254923701,0.6213689805686473,1.965044811965525
2024-12-07 18:18:23.461058600,3.29805859375,-2.8054151476383207,0.4860591773688792,1.277693246923387
2024-12-07 18:18:23.471032600,3.308032470703125,-2.2606769868075847,0.1086176111072301,0.6420873589485884
2024-12-07 18:18:23.481006600,3.318006591796875,-1.6045166788429022,-0.3524228603392839,0.3139318016424774
2024-12-07 18:18:23.490980600,3.327980712890625,-1.2219492940001189,-0.6881336553305387,0.5517351801112294
2024-12-07 18:18:23.500954600,3.33795458984375,-1.2798602156989276,-0.7576432448863982,1.3397981131806969
2024-12-07 18:18:23.510928600,3.3479287109375,-1.568733856191486,-0.6973644250124692,2.129530733028054
2024-12-07 18:18:23.520902700,3.357902587890625,-1.8280698520325125,-0.6517594426572323,2.5512954251408577
2024-12-07 18:18:23.530876700,3.367876708984375,-1.90338798173666,-0.5166285031557083,2.5328634041324256
2024-12-07 18:18:23.540850700,3.3778505859375,-1.82820487658903,-0.3340501683026552,2.153175520248711
2024-12-07 18:18:23.550824700,3.38782470703125,-1.41633672459051,0.1638321333289146,1.4959034516498446
2024-12-07 18:18:23.560797700,3.397797607421875,-0.4676104974865913,1.2540063741266727,0.7859411186099052
2024-12-07 18:18:23.570771200,3.407771240234375,0.6298388488806784,2.998209171557426,0.2059744080096483
2024-12-07 18:18:23.580745200,3.4177451171875,1.2120021927423774,5.0927358112216,-0.2173734616413712
2024-12-07 18:18:23.590719200,3.42771923828125,0.9441489823162555,6.724789316287636,-0.6537082386374473
2024-12-07 18:18:23.600693200,3.437693359375,-0.2086031490780413,7.266900051224232,-0.9324453927800058
2024-12-07 18:18:23.610667300,3.447667236328125,-2.265013700837642,5.948605037060379,-0.7635688355430961
2024-12-07 18:18:23.620641300,3.457641357421875,-3.3415818794786927,2.36113525685668,-0.1783954962104559
2024-12-07 18:18:23.630615300,3.467615234375,-2.343325897791237,-0.6848427970916032,-0.2030018219396472
2024-12-07 18:18:23.640589300,3.47758935546875,-0.3507470360815525,-2.5984318548470733,-1.0136150249913334
2024-12-07 18:18:23.650563300,3.487563232421875,1.8608517393022777,-3.651210723230242,-2.2753639760687947
2024-12-07 18:18:23.660536300,3.497536376953125,3.4173645579546688,-3.844146785968542,-3.448758059605956
2024-12-07 18:18:23.670510300,3.50751025390625,4.085476584997773,-3.4511107602119444,-4.2739559605881565
2024-12-07 18:18:23.680484400,3.517484375,3.9309319199740886,-2.711969386699796,-4.493953340992332
2024-12-07 18:18:23.690458400,3.527458251953125,3.425635542693734,-1.7123358330488203,-4.225259149697423
2024-12-07 18:18:23.700432400,3.537432373046875,2.909859272453189,-0.4720768292456865,-3.36130014090538
2024-12-07 18:18:23.710406400,3.547406494140625,2.4845973858743906,0.5476940880268811,-2.1188024182647465
2024-12-07 18:18:23.720380400,3.55738037109375,2.2930494164936244,1.1829606610447168,-1.0627496427774428
2024-12-07 18:18:23.730354400,3.5673544921875,2.1183933990724384,1.4351619827002289,-0.3583005202010274
2024-12-07 18:18:23.740328200,3.577328125,1.997643305492401,1.325540747508407,0.1975982093304395
2024-12-07 18:18:23.750302200,3.58730224609375,1.8160085350997743,1.0171101736307144,0.7589622185304761
2024-12-07 18:18:23.760276200,3.597276123046875,1.613725382823497,0.4867985975593328,0.8893786967307329
2024-12-07 18:18:23.770250200,3.607250244140625,1.3181005145050584,-0.0224736976146698,0.4888122754693031
2024-12-07 18:18:23.780223500,3.617223388671875,0.8998369623810052,-0.2814882064163684,-0.0609786387063562
2024-12-07 18:18:23.790197200,3.627197265625,0.5465098466783762,-0.1473492005616426,-0.6032701370373368
2024-12-07 18:18:23.800171300,3.637171142578125,0.3186059309333562,0.1585112305670976,-1.2159620362840593
2024-12-07 18:18:23.810145300,3.647145263671875,0.3835673556655645,0.4742278697997331,-1.6975915606424212
2024-12-07 18:18:23.820119300,3.657119384765625,0.533845010894537,0.6577917085587978,-1.9256272860735657
2024-12-07 18:18:23.830093300,3.66709326171875,0.574326658886671,0.6282207461595535,-1.865104720571637
2024-12-07 18:18:23.840067300,3.6770673828125,0.509669258602336,0.5149824895143509,-1.501482420825958
2024-12-07 18:18:23.850041300,3.687041259765625,0.2584416773498058,0.4215788141518831,-0.8600280990839004
2024-12-07 18:18:23.860015400,3.697015380859375,-0.090384108345583,0.3991010248839855,-0.0884530672177672
2024-12-07 18:18:23.869989400,3.7069892578125,-0.0946901349764317,0.2734089448571205,0.7216109775185584
2024-12-07 18:18:23.879963400,3.71696337890625,0.192821569513157,-0.0388864877551794,1.2704095196560024
2024-12-07 18:18:23.889936100,3.72693603515625,0.4576707027524709,-0.415825365191698,1.5907500192970037
2024-12-07 18:18:23.899910100,3.73691015625,0.7532406260132789,-0.4988537770122289,2.081511529137939
2024-12-07 18:18:23.909884200,3.74688427734375,1.1115203956872224,-0.5277081155747175,2.28300981464684
2024-12-07 18:18:23.919858200,3.756858154296875,1.5016817427903413,-0.5538660546600819,2.080264159425348
2024-12-07 18:18:23.929832200,3.766832275390625,1.6107980971999465,-0.5493605599343776,1.7582571878768505
2024-12-07 18:18:23.939806200,3.77680615234375,1.406533269587159,-0.5027881938517094,1.3655579928591846
2024-12-07 18:18:23.949780200,3.7867802734375,1.0297452718634157,-0.3966343425095081,0.9391502972461284
2024-12-07 18:18:23.959754200,3.796754150390625,0.5134831908673048,-0.1923468646734953,0.5307837236277759
2024-12-07 18:18:23.969728300,3.806728271484375,0.1006177714597433,-0.0106412210017442,0.2480873104654252
2024-12-07 18:18:23.979702300,3.816702392578125,0.0162385295521467,0.0453992306500673,0.0337042628116905
2024-12-07 18:18:23.989676300,3.82667626953125,-0.1161456685245037,-0.0007885200291872,-0.223620685467869
2024-12-07 18:18:23.999649300,3.836649169921875,-0.1033469406953081,-0.0719903004556894,-0.3654135670766234
2024-12-07 18:18:24.009623300,3.846623291015625,-0.1780459155878052,-0.085713705381751,-0.5300048482097685
2024-12-07 18:18:24.019597300,3.856597412109375,-0.3388759810239076,0.0608574965447187,-0.6073471772179008
2024-12-07 18:18:24.029571300,3.8665712890625,-0.4173210836421698,0.1510246742039918,-0.7162298690021037
2024-12-07 18:18:24.039545300,3.87654541015625,-0.5218225281348452,0.1427495978116989,-0.695183719972521
2024-12-07 18:18:24.049519400,3.886519287109375,-0.7506494404762983,0.1961497640877962,-0.5604620919242501
2024-12-07 18:18:24.059493400,3.896493408203125,-1.0157540828466414,0.1597790585458278,-0.4782214694805443
2024-12-07 18:18:24.069467400,3.90646728515625,-1.116965801611543,0.0164203889250755,-0.2584920923627913
2024-12-07 18:18:24.079441400,3.91644140625,-1.0321113434076308,-0.0602110153347253,0.1144867954015731
2024-12-07 18:18:24.090038300,3.927038330078125,-0.9961030414372682,-0.213147660639882,0.1844499739438295
2024-12-07 18:18:24.100012300,3.93701220703125,-1.044153663378954,-0.2823901236921549,0.109436526274681
2024-12-07 18:18:24.109986300,3.946986328125,-1.1870710189729927,-0.2795674674868583,0.0542620438024401
2024-12-07 18:18:24.119959300,3.956959228515625,-1.248364568847418,-0.3127870155215263,0.0662296911023557
2024-12-07 18:18:24.129933300,3.966933349609375,-1.1691560075759888,-0.3584831832915544,0.2000150612138211
2024-12-07 18:18:24.139907300,3.9769072265625,-0.8876490964591502,-0.2879758148699998,0.5851612105034292
2024-12-07 18:18:24.149881300,3.98688134765625,-0.6190612881481647,-0.1891355014115572,0.8473224928982556
2024-12-07 18:18:24.159855400,3.99685546875,-0.3635515725970268,-0.1678495522767305,1.161001196562499
2024-12-07 18:18:24.169829400,4.006829345703125,-0.0660661802368704,-0.177889884775877,1.4354085048072038
2024-12-07 18:18:24.179803400,4.016803466796875,0.1356336191934999,-0.3133884885460138,1.5057941465452314
2024-12-07 18:18:24.189777400,4.02677734375,0.2096492971301078,-0.434421344590187,1.4739920640930533
2024-12-07 18:18:24.199751400,4.03675146484375,0.1643780950401909,-0.428600675612688,1.462928672156483
2024-12-07 18:18:24.209725400,4.046725341796875,-0.0360953957319259,-0.3431085040271282,1.4016605489842593
2024-12-07 18:18:24.219699500,4.056699462890625,-0.2063713166390545,-0.2024006411761045,1.2324812094084918
2024-12-07 18:18:24.229673500,4.066673583984375,-0.4020096058070659,-0.044295653322339,0.9824733061440288
2024-12-07 18:18:24.239646500,4.076646484375,-0.544596706533432,0.0301256736725568,0.6449512239471078
2024-12-07 18:18:24.249620500,4.086620361328125,-0.629381606632471,-0.0089811788350343,0.3757107969462871
2024-12-07 18:18:24.259594500,4.096594482421875,-0.7263163787305355,-0.0659954439550638,0.2498269937396049
2024-12-07 18:18:24.269568300,4.106568359375,-0.7289969961166382,-0.1649327880471944,0.3916458865724503
2024-12-07 18:18:24.279542300,4.116542236328125,-0.7380605925381183,-0.1724094075381755,0.3178182876870036
2024-12-07 18:18:24.289516300,4.126516357421875,-0.822659614676237,-0.2136193698048591,0.2372612344160675
2024-12-07 18:18:24.299490300,4.136490234375,-0.7623065605223178,-0.0352443318605422,0.5747228185974061
2024-12-07 18:18:24.309464300,4.14646435546875,-0.5591933871626854,0.1934907740116119,1.0157897386819124
2024-12-07 18:18:24.319438300,4.156438232421875,-0.4398655814707279,0.2590139242798089,1.255555941656232
2024-12-07 18:18:24.329412000,4.166412109375,-0.2576876441121101,0.332303032374382,1.5699258424550293
2024-12-07 18:18:24.339386000,4.17638623046875,0.0118295448703225,0.4022808239638805,1.939567548620701
2024-12-07 18:18:24.349359400,4.186359375,0.1851438014268875,0.5099544322192668,2.2620285475470125
2024-12-07 18:18:24.359333400,4.19633349609375,0.077310034173727,0.6649824968457222,2.537169869154692
2024-12-07 18:18:24.369307400,4.206307373046875,-0.0976934815108776,0.921546105363965,2.87298587808609
2024-12-07 18:18:24.379281400,4.216281494140625,-0.2275871048808097,1.203233049222827,2.896318238356709
2024-12-07 18:18:24.389255200,4.226255126953125,-0.4388280551165342,1.1975754618525505,2.428647388985008
2024-12-07 18:18:24.399852300,4.236852294921875,-0.5992261223435401,1.1360948649734257,1.7598939952984451
2024-12-07 18:18:24.409826300,4.246826416015625,-0.8132084802418946,0.9231623083889484,0.8148200070917606
2024-12-07 18:18:24.419800300,4.25680029296875,-1.084141390374303,0.7337579269081353,-0.0092842534348368
2024-12-07 18:18:24.429774300,4.2667744140625,-1.249186406624317,0.6729968764752149,-0.3265978064700961
2024-12-07 18:18:24.439748400,4.276748291015625,-1.4348603694051505,0.5010661923646926,-0.7191665069758891
2024-12-07 18:18:24.449722400,4.286722412109375,-1.5198469295561312,0.1624444783627986,-1.2258973009735346
2024-12-07 18:18:24.459696400,4.2966962890625,-1.4525830731004477,-0.1931277859181165,-1.6763832067884503
2024-12-07 18:18:24.469670400,4.30667041015625,-1.4123603683054446,-0.3413590300112962,-1.938070149669796
2024-12-07 18:18:24.479644400,4.31664453125,-1.539538302975893,-0.2543973703950643,-2.0445254681766034
2024-12-07 18:18:24.489617400,4.326617431640625,-1.693272820660472,-0.0085538933336734,-2.051797797267138
2024-12-07 18:18:24.499591400,4.33659130859375,-1.8787825327903032,0.4253448886871337,-2.092075154858827
2024-12-07 18:18:24.509565400,4.3465654296875,-2.122590704631805,0.9584884733140469,-2.240136887603998
2024-12-07 18:18:24.519539500,4.35653955078125,-1.8365156088165937,1.5449720184624194,-2.3678221872746943
2024-12-07 18:18:24.529513500,4.366513427734375,-0.5677870279848575,2.039809545570612,-2.4686992672577497
2024-12-07 18:18:24.539487500,4.376487548828125,0.912005392950028,2.239523139619827,-2.333153609475493
2024-12-07 18:18:24.549461200,4.386461181640625,1.9889282302476463,2.3893553891688586,-1.7860116023734212
2024-12-07 18:18:24.559435300,4.396435302734375,2.6621687062203883,2.495485859635472,-1.0327879274949432
2024-12-07 18:18:24.569409300,4.4064091796875,2.5738211452037096,2.518090490153432,-0.3606315934970974
2024-12-07 18:18:24.579383300,4.41638330078125,1.9779731209911404,2.613759187838435,0.2578177002325654
2024-12-07 18:18:24.589357300,4.426357421875,1.2905484907127915,2.5560166084438563,0.7855074033677577
2024-12-07 18:18:24.599331300,4.436331298828125,0.7642297836698592,2.188858535787463,1.044742861443758
2024-12-07 18:18:24.609304300,4.44630419921875,0.6065168638736009,1.707620494964719,1.3361100723177193
2024-12-07 18:18:24.619278300,4.4562783203125,0.7610591908097266,0.9366028047204016,1.0702154486134647
2024-12-07 18:18:24.629252400,4.46625244140625,1.1760872681438923,0.2351122396886348,0.549292755395174
2024-12-07 18:18:24.639226400,4.476226318359375,1.504559928575158,-0.1754161881387233,0.27977877214998
2024-12-07 18:18:24.649200400,4.486200439453125,1.5095271955937146,-0.2657762580215931,0.0086120532616972
2024-12-07 18:18:24.659174100,4.496174072265625,1.855974196393788,-0.4077519488513469,-0.272656372924149
2024-12-07 18:18:24.669148200,4.506148193359375,2.2318249863326547,-0.639661593106389,-0.5837342464402318
2024-12-07 18:18:24.679122200,4.5161220703125,2.0599885563768443,-0.9148521606832742,-0.9239338772833346
2024-12-07 18:18:24.689096200,4.52609619140625,1.6984528536468744,-1.031648402070999,-1.2443024339750408
2024-12-07 18:18:24.699070200,4.5360703125,1.0560248645670711,-0.9911223304152488,-1.1303607052356004
2024-12-07 18:18:24.709044200,4.546044189453125,0.5743237362772226,-0.9248457314312456,-0.8637167244687676
2024-12-07 18:18:24.719018200,4.556018310546875,0.4287989746637642,-1.0266659374833107,-0.9782879832834004
2024-12-07 18:18:24.728991200,4.5659912109375,0.2593897718548774,-1.0852122344762083,-1.1732128817513583
2024-12-07 18:18:24.738965200,4.57596533203125,0.2450394672021269,-1.1739771441221236,-1.5176049958482385
2024-12-07 18:18:24.748939300,4.585939208984375,0.4495248056977987,-1.231361411598325,-1.781423690061271
2024-12-07 18:18:24.758913300,4.595913330078125,0.7529333136297762,-1.290576986154914,-1.981704854865372
2024-12-07 18:18:24.768887300,4.60588720703125,1.1207499963253735,-1.3249176471740007,-2.2324042475253343
2024-12-07 18:18:24.778861300,4.615861328125,1.276184303665161,-1.4059902487516402,-2.782256974890828
2024-12-07 18:18:24.788835300,4.62583544921875,1.1519361388362943,-1.496236336866021,-3.4050065961629152
2024-12-07 18:18:24.798809300,4.635809326171875,0.9213304167866706,-1.663698935651779,-3.851201088394225
2024-12-07 18:18:24.808783400,4.645783447265625,0.5903431431859731,-1.8889403541892769,-4.04583197235167
2024-12-07 18:18:24.818757400,4.65575732421875,0.2131298327222466,-2.0248060377061368,-3.9282761447682977
2024-12-07 18:18:24.828731400,4.6657314453125,-0.0184457572728395,-2.1055372785002,-3.4960265912592408
2024-12-07 18:18:24.838705400,4.675705322265625,-0.1694993653103709,-1.9999849001824856,-2.578788412222266
2024-12-07 18:18:24.848679400,4.685679443359375,-0.2819856345444917,-1.9249907417356968,-1.4044135009542107
2024-12-07 18:18:24.858652400,4.69565234375,-0.4059358393400907,-1.85316352288723,-0.3158838124930858
2024-12-07 18:18:24.868626400,4.70562646484375,-0.5266811106145382,-1.6574936512708662,0.6423737746745347
2024-12-07 18:18:24.878600400,4.715600341796875,-0.6093564712136984,-1.3586784624785184,1.6448393368810414
2024-12-07 18:18:24.888574500,4.725574462890625,-0.9052437898606062,-0.8624789993673563,2.775988562145829
2024-12-07 18:18:24.898548500,4.735548583984375,-1.391058929340541,-0.2978665097653866,3.8752106172740457
2024-12-07 18:18:24.908522200,4.745522216796875,-1.9622949287354945,0.2161480114996433,4.884297935707867
2024-12-07 18:18:24.918496300,4.755496337890625,-2.392636310535669,0.544322565767169,5.605645001593232
2024-12-07 18:18:24.928470300,4.76547021484375,-2.583721192449332,0.6885299611717463,5.830226494917273
2024-12-07 18:18:24.938444300,4.7754443359375,-2.394282178046554,0.5411877748727798,5.241034859853983
2024-12-07 18:18:24.948418300,4.785418212890625,-1.856430415728688,0.2899631892949342,4.165340395307541
2024-12-07 18:18:24.958392300,4.795392333984375,-1.2381506333470345,0.128705874890089,2.9044448461890218
2024-12-07 18:18:24.968366300,4.805366455078125,-0.7469896027944981,0.1676595826625823,1.7739280736088752
2024-12-07 18:18:24.978339300,4.81533935546875,-0.8135023486219346,0.3861486043304205,1.059319668328762
2024-12-07 18:18:24.988313300,4.825313232421875,-1.474975960563868,0.539570402804017,0.8466612525105476
2024-12-07 18:18:24.998287400,4.835287353515625,-2.2429747413784265,0.5122177009761333,0.9199345785140992
2024-12-07 18:18:25.008261000,4.84526123046875,-2.731611660280824,0.3506400685757398,0.8853022410720586
2024-12-07 18:18:25.018235100,4.855235107421875,-2.684368263068795,0.3004372370362281,0.555544217005372
2024-12-07 18:18:25.028209200,4.865209228515625,-2.0320184533029795,0.664938073182106,-0.0238508311867713
2024-12-07 18:18:25.038183200,4.87518310546875,-1.0185730857901274,1.443209095555544,-0.6795739167779684
2024-12-07 18:18:25.048157200,4.8851572265625,0.0374210913777351,2.3381594549387694,-1.2302692324474451
2024-12-07 18:18:25.058131200,4.895131103515625,0.9833809225082396,2.9739854154050347,-1.56964468742609
2024-12-07 18:18:25.068105200,4.905105224609375,1.6061942566663026,3.174852855664492,-1.7192402056097984
2024-12-07 18:18:25.078079200,4.915079345703125,1.3837632193744185,3.380858243334293,-1.5791662567481397
2024-12-07 18:18:25.088053200,4.92505322265625,0.5383265402227639,3.2782693909972904,-1.3683373944446444
2024-12-07 18:18:25.098027300,4.93502734375,-0.5166099445857107,2.4599083502978085,-1.1455714261099696
2024-12-07 18:18:25.108000300,4.945000244140625,-1.4052742094367745,1.238376843318343,-0.9723249832257628
2024-12-07 18:18:25.117974300,4.954974365234375,-1.604630806741863,0.0822983439803123,-1.2601853550225497
2024-12-07 18:18:25.127948300,4.9649482421875,-0.6668453681081533,-1.0764444061309095,-2.008727594086528
2024-12-07 18:18:25.137922300,4.97492236328125,0.7208329788833856,-2.024435450828076,-3.0869743734642863
2024-12-07 18:18:25.147896300,4.984896240234375,1.6223036799460648,-2.4005747023195028,-4.078268553315103
2024-12-07 18:18:25.157870300,4.994870361328125,2.029664145261794,-2.2420447670519352,-4.679633733513951
2024-12-07 18:18:25.167844400,5.00484423828125,2.118594766863436,-1.858344140395522,-4.830088206614554
2024-12-07 18:18:25.177818400,5.014818359375,1.9337001178920268,-1.2240402749300003,-4.376880036228895
2024-12-07 18:18:25.187792400,5.02479248046875,1.530967604637891,-0.4365601101845502,-3.206699946302176
2024-12-07 18:18:25.197766400,5.034766357421875,1.0720435408234597,0.2484048519819974,-1.6782354105263948
2024-12-07 18:18:25.207740400,5.044740478515625,0.7257775956787168,0.7211258243501186,-0.2731239904358983
2024-12-07 18:18:25.217714400,5.05471435546875,0.7125668164499104,1.030561191356182,0.957285235004127
2024-12-07 18:18:25.227687400,5.0646875,1.154590744998306,1.1906915475577116,1.9072732987374064
2024-12-07 18:18:25.237661400,5.074661376953125,1.817113865993172,1.0896236211776733,2.3048794088885187
2024-12-07 18:18:25.247635500,5.084635498046875,2.168136065754294,0.6662263594269752,2.2570094042107463
2024-12-07 18:18:25.257609500,5.094609375,2.132943756341934,0.0515776270240545,1.9253098906874653
2024-12-07 18:18:25.267583500,5.10458349609375,1.768571515011787,-0.4732318444997072,1.3171189561218022
2024-12-07 18:18:25.277557200,5.11455712890625,1.4676730902045965,-0.5478600922435521,0.7960258747726678
2024-12-07 18:18:25.287531300,5.12453125,1.315465343695879,-0.0990133319377899,0.4160182574152946
2024-12-07 18:18:25.297505300,5.13450537109375,1.15318920763731,0.4463309780925512,-0.0508309003099799
2024-12-07 18:18:25.307479300,5.144479248046875,0.9672923958860336,0.8107312764734029,-0.6136410166651011
2024-12-07 18:18:25.317453300,5.154453369140625,0.713292061984539,0.9939981781125068,-1.1051263107359408
2024-12-07 18:18:25.327427300,5.16442724609375,0.4558358885407447,0.8543710962355137,-1.5581670156002043
2024-12-07 18:18:25.337401300,5.1744013671875,0.203209034949541,0.6075690032750368,-1.743744532269239
2024-12-07 18:18:25.347375400,5.184375244140625,-0.1103390280723571,0.4053501484066247,-1.6857082306250928
2024-12-07 18:18:25.357348000,5.19434814453125,-0.3646826224535703,0.3334539559751749,-1.4354738251283763
2024-12-07 18:18:25.367322000,5.204322021484375,-0.5506705465544015,0.2277478484004735,-1.2828843858256935
2024-12-07 18:18:25.377296100,5.214296142578125,-0.1833984190642833,0.0247714531630277,-0.9301987828969956
2024-12-07 18:18:25.387270100,5.224270263671875,0.3249309692364185,-0.0661544339090585,-0.5768266590088605
2024-12-07 18:18:25.397244200,5.234244140625,0.6320451998185366,-0.2120265476554632,0.0211278359636664
2024-12-07 18:18:25.407218200,5.24421826171875,1.0469687207996845,-0.2433095746695995,0.6933449602380395
2024-12-07 18:18:25.417192200,5.254192138671875,1.311069154563546,-0.4064157318115234,0.936039033357799
2024-12-07 18:18:25.427166200,5.264166259765625,1.4714812503159045,-0.5694593451112508,1.223738661634922
2024-12-07 18:18:25.437140200,5.27414013671875,1.6027327180355786,-0.6770686559587716,1.411526547829807
2024-12-07 18:18:25.447114200,5.2841142578125,1.6572253557235002,-0.741888041871786,1.4163883086472748
2024-12-07 18:18:25.457088300,5.294088134765625,1.3228425944656133,-0.6597779139399528,1.2285112828642129
2024-12-07 18:18:25.467062300,5.304062255859375,0.7390871591068804,-0.4114396974533796,0.931727307638526
2024-12-07 18:18:25.477036300,5.314036376953125,0.2778887206196785,-0.1509393340080976,0.5400742606729269
2024-12-07 18:18:25.487009300,5.32400927734375,-0.1895972737044096,-0.0309317293584346,0.0666325728148222
2024-12-07 18:18:25.496983300,5.3339833984375,-0.4289752810787409,0.1612660822331905,-0.1654541815727949
2024-12-07 18:18:25.506957300,5.343957275390625,-0.5999848317563533,0.1180886192858219,-0.6113873925194144
2024-12-07 18:18:25.516931300,5.353931396484375,-0.7677151415675878,0.0037327567875385,-0.8903978106454015
2024-12-07 18:18:25.526905300,5.3639052734375,-0.9606032735109328,-0.0919295111566781,-1.0493760742023586
2024-12-07 18:18:25.536879400,5.37387939453125,-1.036827850535512,0.0079389763057231,-0.6720087422206997
2024-12-07 18:18:25.546853400,5.383853271484375,-1.1209084017574786,0.0126794488310813,-0.5646393776088953
2024-12-07 18:18:25.556827400,5.393827392578125,-1.1454372783362865,-0.0457756627470254,-0.2725195948019623
2024-12-07 18:18:25.566801400,5.403801513671875,-0.9698708680719136,0.0899246010750532,0.2680775207012891
2024-12-07 18:18:25.576775400,5.413775390625,-0.7262626027166843,0.0876823751062154,0.7300850836142897
2024-12-07 18:18:25.586749400,5.42374951171875,-0.5389508096009492,-0.0657850160747766,0.8342983222827315
2024-12-07 18:18:25.596723200,5.43372314453125,-0.5126590150028467,-0.2548398534655571,0.813467131178081
2024-12-07 18:18:25.606696200,5.4436962890625,-0.3539168982893228,-0.2718032632261514,0.9188830236345528
2024-12-07 18:18:25.616670200,5.453670166015625,-0.1860106291229836,-0.3320528570055961,0.8427528468951583
2024-12-07 18:18:25.626644200,5.463644287109375,-0.1048948094581253,-0.4755658404052257,0.5997054302930832
2024-12-07 18:18:25.636618200,5.4736181640625,-0.2546001994907856,-0.552552633973956,0.3997507209643721
2024-12-07 18:18:25.646592300,5.48359228515625,-0.3969020535349846,-0.4844733694821596,0.3730792793989181
2024-12-07 18:18:25.656566000,5.49356591796875,-0.5425035336464643,-0.4851777183592319,0.2264814817264676
2024-12-07 18:18:25.666540000,5.5035400390625,-0.7509177360236644,-0.433981199607253,0.2842870433546602
2024-12-07 18:18:25.676514000,5.51351416015625,-0.7851169427454471,-0.213929166406393,0.6550842031657695
2024-12-07 18:18:25.686488000,5.523488037109375,-0.5621849701941013,-0.1401437992274761,1.0389940886586904
2024-12-07 18:18:25.696462000,5.533462158203125,-0.2784977924287319,-0.3025637276709079,1.2147666890196502
2024-12-07 18:18:25.706436000,5.54343603515625,-0.1568926894545555,-0.4210597587138414,1.3281665659673512
2024-12-07 18:18:25.716410000,5.55341015625,-0.131826052737236,-0.428755573913455,1.4242178332291542
2024-12-07 18:18:25.726384000,5.563384033203125,-0.1716694028258323,-0.3921224180430173,1.45174866810292
2024-12-07 18:18:25.736357000,5.573357177734375,-0.4112333612263202,-0.4006956005990505,1.3200538405299187
2024-12-07 18:18:25.746331100,5.5833310546875,-0.6684650782644749,-0.43749300712049,1.0881402507521212
2024-12-07 18:18:25.756305200,5.59330517578125,-0.700475835031271,-0.4359042766243219,0.8543136669598519
2024-12-07 18:18:25.766279200,5.603279052734375,-0.7588193029284477,-0.3626151685297489,0.6355376450441778
2024-12-07 18:18:25.776253200,5.613253173828125,-0.6411515394032001,-0.2078606601476669,0.5322498506575822
2024-12-07 18:18:25.786227200,5.623227294921875,-0.6003062822630628,-0.2417208441734313,0.1265150868475437
2024-12-07 18:18:25.796201200,5.633201171875,-0.7942997816324233,-0.1797106704622507,-0.0283208162076771
2024-12-07 18:18:25.806175200,5.64317529296875,-0.9477379467189312,-0.1095908400535583,0.1568168477393686
2024-12-07 18:18:25.816149200,5.653149169921875,-0.9189373841702938,-0.2436544425845146,0.3758566351577639
2024-12-07 18:18:25.826123300,5.663123291015625,-0.8746890771210193,-0.4301619335800409,0.5977215629994869
2024-12-07 18:18:25.836097300,5.67309716796875,-0.7702712557911873,-0.3958452379584312,0.989182594524324
2024-12-07 18:18:25.846071300,5.6830712890625,-0.8151461703062057,-0.2241992160081863,1.4280913136616349
2024-12-07 18:18:25.856045300,5.69304541015625,-0.9157026400327682,0.0568909310013055,2.0435791272372006
2024-12-07 18:18:25.866019300,5.703019287109375,-0.9791408007204532,0.2318091064900159,2.333829755171388
2024-12-07 18:18:25.875992300,5.712992431640625,-0.9925286900818348,0.1068260515153408,2.39654120901972
2024-12-07 18:18:25.885966300,5.72296630859375,-0.9671019878804684,0.0600473492056131,2.556357384705543
2024-12-07 18:18:25.895940400,5.7329404296875,-1.0354442872226235,0.1055097082197666,2.590695707637072
2024-12-07 18:18:25.905914400,5.742914306640625,-1.0666928274452685,0.2395446691781282,2.646863000538945
2024-12-07 18:18:25.915888400,5.752888427734375,-0.8879553859293461,0.4538619581192731,2.8654817860662933
2024-12-07 18:18:25.925862400,5.7628623046875,-0.9123673581302164,0.7584329339593648,3.014425562343001
2024-12-07 18:18:25.935836400,5.77283642578125,-0.9827087223351,1.1505769793123006,3.062195029255748
2024-12-07 18:18:25.945810200,5.78281005859375,-1.0022796842455863,1.46115742470026,2.86499400254935
2024-12-07 18:18:25.955784200,5.7927841796875,-0.9759580790311098,1.5634429101765157,2.3392094023831187
2024-12-07 18:18:25.965758200,5.80275830078125,-1.0256155516475438,1.602704076462984,1.6006320924945174
2024-12-07 18:18:25.975732000,5.81273193359375,-1.1900327913880349,1.7538117527753114,0.9702790104813872
2024-12-07 18:18:25.985706000,5.8227060546875,-1.359654614034295,1.7493728935450314,0.2316904485464096
2024-12-07 18:18:25.995679200,5.83267919921875,-1.3898182816296816,1.4213970767199993,-0.6456640483915805
2024-12-07 18:18:26.005653200,5.8426533203125,-1.3370406311661005,1.0086077182233333,-1.4649869198605416
2024-12-07 18:18:26.015627300,5.852627197265625,-1.3159054886788129,0.6992641211539506,-2.1611270637750626
2024-12-07 18:18:26.025601000,5.86260107421875,-1.1611930658727885,0.547442743614316,-2.8075752482816574
2024-12-07 18:18:26.035575000,5.872574951171875,-1.0118114827007054,0.6190431679695845,-3.332517990796268
2024-12-07 18:18:26.045549000,5.882549072265625,-1.2606130789153278,0.9938444488555191,-3.5513752612546083
2024-12-07 18:18:26.055523000,5.892523193359375,-1.3949128282897174,1.454915315440297,-3.510856788383424
2024-12-07 18:18:26.065497000,5.9024970703125,-0.7072983745276927,1.819356530353427,-3.452472403953969
2024-12-07 18:18:26.075471000,5.91247119140625,0.4517417510949075,1.9625579635858537,-3.3039819244027138
2024-12-07 18:18:26.085445000,5.922445068359375,1.5371540381878614,2.1203613381445408,-2.781001129610837
2024-12-07 18:18:26.095419100,5.932419189453125,2.068278391946852,2.482427640619874,-1.959336078929901
2024-12-07 18:18:26.105393200,5.94239306640625,2.470247373482585,2.7689953422576186,-1.0197156799539924
2024-12-07 18:18:26.115367200,5.9523671875,2.3868111115135253,2.8618752860069274,0.0039849779829382
2024-12-07 18:18:26.125340200,5.962340087890625,2.01383339279294,2.735549584251642,0.8391635902315377
2024-12-07 18:18:26.135314200,5.972314208984375,1.9031566571988163,2.3115578637391327,1.3118620585069058
2024-12-07 18:18:26.145288200,5.9822880859375,1.8225974119707944,1.7334791588425635,1.4830077297195792
2024-12-07 18:18:26.155262200,5.99226220703125,2.001277570341528,0.9886328516870736,1.447548293803632
2024-12-07 18:18:26.165236200,6.002236328125,2.003181650397181,0.2193330712765455,1.0533554992273448
2024-12-07 18:18:26.175210200,6.012210205078125,1.8718772834464907,-0.2926391305059194,0.7346399704396724
2024-12-07 18:18:26.185184300,6.022184326171875,1.883225483673811,-0.7218330958366393,0.50865240970999
2024-12-07 18:18:26.195158300,6.032158203125,1.888208532783389,-1.0702911441981793,0.1345502170041203
2024-12-07 18:18:26.205132300,6.04213232421875,1.9802564096227289,-1.327020756933093,-0.252290461243689
2024-12-07 18:18:26.215106300,6.052106201171875,2.065359874151647,-1.4515613288372755,-0.6168640703648328
2024-12-07 18:18:26.225080300,6.062080322265625,2.106177914491296,-1.602629842182994,-1.0546171897262335
2024-12-07 18:18:26.235054300,6.072054443359375,2.199087961117923,-1.6852075876265764,-1.457263339871168
2024-12-07 18:18:26.245028400,6.0820283203125,2.105673179839551,-1.5672066466242074,-1.756844836860895
2024-12-07 18:18:26.255001300,6.09200146484375,1.703237457574904,-1.3451105403751134,-1.8607336658805609
2024-12-07 18:18:26.264975400,6.101975341796875,1.203206745737791,-1.0770879647314548,-1.8316209686428304
2024-12-07 18:18:26.274949400,6.111949462890625,0.8434829147353767,-0.8608207107663154,-1.832085079023242
2024-12-07 18:18:26.284923400,6.12192333984375,0.7662892004176974,-0.6614601679384708,-1.8461650423020124
2024-12-07 18:18:26.294897200,6.131897216796875,0.9006260669320821,-0.483068178859353,-1.847482262380421
2024-12-07 18:18:26.304871200,6.14187109375,1.1758974446602164,-0.3954641296863556,-1.9838947661250828
2024-12-07 18:18:26.314845200,6.15184521484375,1.4516189042434096,-0.4162146567702293,-2.1464693006083366
2024-12-07 18:18:26.324819200,6.161819091796875,1.5421993388786912,-0.5414987405180931,-2.553362586803734
2024-12-07 18:18:26.334793200,6.171793212890625,1.406162098187208,-0.8365653904318809,-3.3405586739107966
2024-12-07 18:18:26.344767000,6.18176708984375,0.8554409174241125,-1.16462187127769,-3.998066304831207
2024-12-07 18:18:26.354741000,6.191740966796875,0.0977994261033833,-1.4063222571849825,-4.299306967204809
2024-12-07 18:18:26.364715000,6.201715087890625,-0.582831160120666,-1.406137548267841,-4.023156030163169
2024-12-07 18:18:26.374689000,6.21168896484375,-1.0057856465399264,-1.2538649198293683,-3.2636294557482004
2024-12-07 18:18:26.384662300,6.221662353515625,-1.2716034056156873,-1.1719500222086905,-2.2341452459737656
2024-12-07 18:18:26.394636000,6.231635986328125,-1.6356795866087075,-1.0344172822624444,-0.914763313356042
2024-12-07 18:18:26.404610000,6.241610107421875,-2.066054432287067,-0.9086322632551193,0.3498325515851378
2024-12-07 18:18:26.414584000,6.251583984375,-2.222605907088518,-0.9683809217751026,1.2999156001254917
2024-12-07 18:18:26.424558000,6.26155810546875,-2.029457078382373,-0.8930687834203243,2.143295054486394
2024-12-07 18:18:26.434532000,6.271531982421875,-1.7828377946428953,-0.6913748292088508,2.962818709224462
2024-12-07 18:18:26.444506000,6.281506103515625,-1.5816628958694636,-0.6457225005805493,3.57014338234961
2024-12-07 18:18:26.454480100,6.291480224609375,-1.5156218592070043,-0.728542238086462,3.787371590301394
2024-12-07 18:18:26.464454100,6.3014541015625,-1.4842740963935852,-0.8817010017096996,3.278534471674264
2024-12-07 18:18:26.474428200,6.31142822265625,-1.5685035545669497,-0.9406652318537234,2.547702661345899
2024-12-07 18:18:26.484402200,6.321402099609375,-1.51417998983562,-0.8653747208088636,2.068375130319595
2024-12-07 18:18:26.494376200,6.331376220703125,-1.2287551746226846,-0.6797603792607784,1.723431227558851
2024-12-07 18:18:26.504350200,6.34135009765625,-0.9120585844419896,-0.4373001148968934,1.6243962683111428
2024-12-07 18:18:26.514323200,6.3513232421875,-0.9310808264285324,-0.1783043107956647,1.806805384077132
2024-12-07 18:18:26.524297200,6.361297119140625,-1.3519542687900363,-0.0027431612282991,2.126008111859858
2024-12-07 18:18:26.534271200,6.371271240234375,-2.188530034485459,-0.0419131420999765,2.47610457507819
2024-12-07 18:18:26.544245200,6.381245361328125,-3.0664807437509296,-0.2011322286754846,3.021392186485231
2024-12-07 18:18:26.554219300,6.39121923828125,-3.407725207471848,-0.2181751334130764,3.073874361133575
2024-12-07 18:18:26.564193000,6.401193115234375,-2.7832144217461345,0.0301525616794824,2.243842464123666
2024-12-07 18:18:26.574167000,6.4111669921875,-1.4487396955452858,0.8462439038813113,1.1541469467535614
2024-12-07 18:18:26.584141000,6.42114111328125,0.0900397518873214,2.4798656811773774,0.173382051962614
2024-12-07 18:18:26.594115000,6.431114990234375,1.445092425084114,4.635711589679122,-0.5819754200741648
2024-12-07 18:18:26.604089000,6.441089111328125,2.245841821247339,6.1891521612793206,-1.206054536384344
2024-12-07 18:18:26.614063000,6.45106298828125,2.0033840411014854,6.693592798513174,-1.7455650256946682
2024-12-07 18:18:26.624037000,6.461037109375,0.4371459472484886,6.536909952417016,-2.371917932155728
2024-12-07 18:18:26.634011100,6.47101123046875,-2.222587056257576,4.287290950718522,-2.36590963165164
2024-12-07 18:18:26.643984100,6.480984130859375,-3.87419647179544,0.7782283522754907,-1.5191209533691403
2024-12-07 18:18:26.653958100,6.490958251953125,-2.998691402116417,-1.4394459436297415,-1.1805997771322727
2024-12-07 18:18:26.663932200,6.50093212890625,-0.113886491420865,-2.8962527719050644,-1.7704355553179978
2024-12-07 18:18:26.673906200,6.51090625,2.222795876702666,-3.762785430577398,-2.6369758127748963
2024-12-07 18:18:26.683880200,6.520880126953125,3.120831342619657,-4.481369169229269,-3.525821425542236
2024-12-07 18:18:26.693854200,6.530854248046875,3.384845851665735,-4.700700486940145,-4.12474914946109
2024-12-07 18:18:26.703828200,6.540828125,3.368682652372122,-3.748180566641688,-3.99808822440207
2024-12-07 18:18:26.713802000,6.550802001953125,3.1332723065197468,-2.0402648881226777,-3.0913045116230844
2024-12-07 18:18:26.723776000,6.56077587890625,2.62083599435687,-0.4359305801093578,-1.586295670236647
2024-12-07 18:18:26.733750000,6.57075,2.2390194278813897,0.8185504257917404,-0.0830181826874613
2024-12-07 18:18:26.743724000,6.58072412109375,1.9691070929683745,1.867557374420762,1.1906827797293662
2024-12-07 18:18:26.753698000,6.590697998046875,2.0179509111143648,2.474494509533048,2.232559438087046
2024-12-07 18:18:26.763672000,6.600672119140625,2.295336212256551,2.5193314301252365,2.721489786978066
2024-12-07 18:18:26.773646000,6.61064599609375,2.5696564267396926,1.892544516161084,2.614043557737768
2024-12-07 18:18:26.783619000,6.620619140625,2.432032062987238,0.8016454682201146,1.8627423753544687
2024-12-07 18:18:26.793593000,6.630593017578125,1.895968499260396,-0.0177811558842659,0.7790078122153877
2024-12-07 18:18:26.803567000,6.640567138671875,1.042113097462058,-0.3219230926573276,-0.2009308608844876
2024-12-07 18:18:26.813541000,6.650541015625,0.3276643397230654,-0.1506061565309762,-1.0444400791049002
2024-12-07 18:18:26.823515100,6.66051513671875,-0.0796978060930967,0.329485052344203,-1.8050129477024075
2024-12-07 18:18:26.833489200,6.6704892578125,-0.3622428280860185,0.7514175022393464,-2.537473236015439
2024-12-07 18:18:26.843463200,6.680463134765625,-0.6296207491505891,0.95009006280303,-3.0695977067276834
2024-12-07 18:18:26.853437200,6.690437255859375,-0.9121872523229568,1.02944592359066,-3.237876882593333
2024-12-07 18:18:26.863411200,6.7004111328125,-1.0817764148086308,0.935229762801528,-3.020479455554485
2024-12-07 18:18:26.873385200,6.71038525390625,-1.0715688359837978,0.6467009902238845,-2.454630409894884
2024-12-07 18:18:26.883359000,6.72035888671875,-0.6432615903597325,0.4636848484754562,-1.703694261431694
2024-12-07 18:18:26.893333000,6.7303330078125,-0.0857335791260004,0.2737532282501459,-0.9799921568527816
2024-12-07 18:18:26.903306000,6.740305908203125,0.5963491056025028,0.1522036548554897,-0.1543684316739439
2024-12-07 18:18:26.913280000,6.750280029296875,1.110221003526449,-0.0462538016527891,0.4901242348507046
2024-12-07 18:18:26.923254000,6.76025390625,1.485639539527893,-0.3494283546984195,1.0311869220390917
2024-12-07 18:18:26.933228000,6.77022802734375,1.772244066044688,-0.6248100609332323,1.4123323112547397
2024-12-07 18:18:26.943202000,6.7802021484375,1.8166573543973263,-0.8632172505140304,1.50347447142601
2024-12-07 18:18:26.953176000,6.790176025390625,1.7114391764700412,-0.947307154086232,1.679566659130156
2024-12-07 18:18:26.963150000,6.800150146484375,1.4122539853215217,-0.8185498412698506,1.705285037754476
2024-12-07 18:18:26.973124000,6.8101240234375,1.0081980414438991,-0.6041010349035263,1.5567679624572397
2024-12-07 18:18:26.983098000,6.82009814453125,0.5493699853498488,-0.4185433919787407,1.2180419112980363
2024-12-07 18:18:26.993072000,6.830072021484375,0.1927438281018287,-0.3277256414562463,0.8525187463670969
2024-12-07 18:18:27.003046100,6.840046142578125,0.080890815269947,-0.2477040102362632,0.5806383262515068
2024-12-07 18:18:27.013020200,6.850020263671875,0.0292740618119016,-0.2582195590317249,0.066509823217988
2024-12-07 18:18:27.022994000,6.859993896484375,-0.0191916072040796,-0.1955897921174764,-0.1332084470063448
2024-12-07 18:18:27.032967200,6.86996728515625,-0.169452274765633,-0.1360872173130512,-0.2620306417524814
2024-12-07 18:18:27.042941200,6.879941162109375,-0.3656441609621048,-0.0195130942434072,-0.1768447596371173
2024-12-07 18:18:27.052915200,6.889915283203125,-0.5783692122757434,0.0241010065555572,-0.1370122232034802
2024-12-07 18:18:27.062889200,6.89988916015625,-0.7387275320142507,0.0191781632006168,-0.0497603484690189
2024-12-07 18:18:27.072863000,6.909863037109375,-0.7497001769274473,-0.0696048666238784,0.0405818934962153
2024-12-07 18:18:27.082837000,6.9198369140625,-0.6641419543683529,-0.1620136857300996,0.1326169108539819
2024-12-07 18:18:27.092811000,6.92981103515625,-0.4141799726048484,-0.2398480360388755,0.2505889180228114
2024-12-07 18:18:27.102785000,6.939784912109375,-0.2063859479526057,-0.2806505865484476,0.3072843264520168
2024-12-07 18:18:27.112759000,6.949759033203125,-0.1914963853240013,-0.2874941688328981,0.2609185888573527
2024-12-07 18:18:27.122733000,6.959733154296875,-0.3351753729403018,-0.2440045711964368,0.2284057277873158
2024-12-07 18:18:27.132707000,6.96970703125,-0.567135286077857,-0.2302940257519483,0.1964502083390951
2024-12-07 18:18:27.142681000,6.97968115234375,-0.7744663693934679,-0.2328326043188572,0.3192614722326398
2024-12-07 18:18:27.152655000,6.989655029296875,-0.7878934217214584,-0.2666226457178592,0.3133525404497981
2024-12-07 18:18:27.162629000,6.999629150390625,-0.8766583313673734,-0.4238485126495361,0.3400137528821825
2024-12-07 18:18:27.172602000,7.00960205078125,-0.7735995234310626,-0.2878483890980482,0.8550801212877035
2024-12-07 18:18:27.182576000,7.019576171875,-0.4985550863265991,-0.2391998012632131,1.2662433398872612
2024-12-07 18:18:27.192550100,7.029550048828125,-0.1846867053091526,-0.3947252940177917,1.3887490449629722
2024-12-07 18:18:27.202524200,7.039524169921875,0.0015326163947582,-0.555680410605669,1.416680569592118
2024-12-07 18:18:27.212498200,7.049498291015625,-0.1174152592020574,-0.6284551394373178,1.3540182155825198
2024-12-07 18:18:27.222472200,7.05947216796875,-0.4651625198125839,-0.5742424877345562,1.2755059660121797
2024-12-07 18:18:27.232446000,7.069446044921875,-0.8857739502370356,-0.4242606005817651,1.183959170562774
2024-12-07 18:18:27.242420000,7.079419921875,-1.1057131707131862,-0.2246428681224584,1.2637684742063282
2024-12-07 18:18:27.252394000,7.08939404296875,-0.9566016366541386,-0.0122252753227949,1.4639336114153263
2024-12-07 18:18:27.262368000,7.099367919921875,-0.849334855633974,-0.1543997035950422,1.3555638375893235
2024-12-07 18:18:27.272342000,7.109342041015625,-0.803424168330431,-0.3357937970995903,1.4207427044644951
2024-12-07 18:18:27.282316000,7.11931591796875,-0.5640122221538797,-0.4666068734019994,1.4561621006309986
2024-12-07 18:18:27.292289000,7.1292890625,-0.321124708821252,-0.5758201123148202,1.4349246668130158
2024-12-07 18:18:27.302263000,7.139262939453125,-0.3242950824856758,-0.6104635556727648,1.3711733485229312
2024-12-07 18:18:27.312237000,7.149237060546875,-0.6199053377568722,-0.5316273348450661,1.2940332640886305
2024-12-07 18:18:27.322211000,7.159211181640625,-1.02815880638957,-0.4772755669325589,1.2039748075008392
2024-12-07 18:18:27.332185000,7.16918505859375,-1.1864882506489751,-0.3553939851045608,1.3520131593704223
2024-12-07 18:18:27.342159000,7.1791591796875,-1.1809165879964827,-0.1467401287525892,1.3580973015896975
2024-12-07 18:18:27.352133000,7.189133056640625,-1.2236708570957182,-0.0043313072025775,1.4063472454957664
2024-12-07 18:18:27.362107100,7.199107177734375,-1.1991115853786467,0.2106108356386423,1.6009345825724304
2024-12-07 18:18:27.372081200,7.2090810546875,-1.034737015736103,0.3120598702907562,1.844443186945468
2024-12-07 18:18:27.382055200,7.21905517578125,-0.8349731528043747,0.4275649028241634,2.032641407506913
2024-12-07 18:18:27.392029000,7.22902880859375,-0.7453273686707019,0.4630512267470359,2.155445657137782
2024-12-07 18:18:27.402003000,7.2390029296875,-0.673271017241478,0.719758043128252,2.556243695197999
2024-12-07 18:18:27.411977000,7.24897705078125,-0.8213760046064853,1.0114677838295698,2.8199405165970326
2024-12-07 18:18:27.421951000,7.258950927734375,-1.0746680441081524,1.1615502087473868,2.789303386271
2024-12-07 18:18:27.431924200,7.26892431640625,-1.2391945894420149,1.0755389817237853,2.4950398694336413
2024-12-07 18:18:27.441898000,7.27889794921875,-1.0505705446839333,0.5921037231177091,1.6007066190354524
2024-12-07 18:18:27.451872000,7.2888720703125,-1.1284873125791548,0.2204080070316791,0.6570332914069295
2024-12-07 18:18:27.461846000,7.298845947265625,-1.2757388979852198,0.286903217202425,0.2039516700103879
2024-12-07 18:18:27.471820000,7.308820068359375,-1.2387614587217568,0.3878682677298784,-0.3475184294238686
2024-12-07 18:18:27.481794000,7.3187939453125,-1.1023276199281216,0.585016979727149,-0.8688321677863597
2024-12-07 18:18:27.491768000,7.32876806640625,-0.9523889873951672,0.848083394268155,-1.2404177014961837
2024-12-07 18:18:27.501742000,7.3387421875,-0.6901555165469646,1.1339023233652117,-1.550946416696906
2024-12-07 18:18:27.511716000,7.348716064453125,-0.5624930132299661,1.3714403288960455,-1.7844848311975596
2024-12-07 18:18:27.521690000,7.358690185546875,-0.6480045471031218,1.514815949651599,-2.076665988802909
2024-12-07 18:18:27.531664100,7.3686640625,-0.8406371699154377,1.6191040071219205,-2.345159689089656
2024-12-07 18:18:27.541638100,7.37863818359375,-1.01538349596858,1.8172072433650488,-2.3631804989486933
2024-12-07 18:18:27.551612200,7.388612060546875,-1.2392886974662545,2.14458918595016,-2.0819047662392256
2024-12-07 18:18:27.561585200,7.398585205078125,-1.1366612666845322,2.4397511129319667,-1.7092580330386755
2024-12-07 18:18:27.571559000,7.408558837890625,0.0948993207477033,2.468962009847164,-1.3779919424965976
2024-12-07 18:18:27.581533000,7.418532958984375,1.5791495978742838,2.499952775916457,-1.1021060861319305
2024-12-07 18:18:27.591507000,7.4285068359375,2.342957210609317,2.712793562564254,-0.6738645992204546
2024-12-07 18:18:27.601481000,7.43848095703125,2.29391991571784,2.8014573499232527,-0.3607622341394424
2024-12-07 18:18:27.611455000,7.448455078125,1.90851657679677,2.6793828758716582,-0.3655304714545607
2024-12-07 18:18:27.621429000,7.458428955078125,1.6248225308991968,2.3525930539608,-0.3972647493675351
2024-12-07 18:18:27.631403000,7.468403076171875,1.1365636515289543,1.967678375339508,-0.3412678445965051
2024-12-07 18:18:27.641377000,7.478376953125,0.7649763642534613,1.571905618095398,-0.1656736695423722
2024-12-07 18:18:27.651351000,7.48835107421875,0.803735426236689,1.075634843313694,-0.1755240324273705
2024-12-07 18:18:27.661325000,7.498324951171875,0.8768649598553776,0.6501648669421672,-0.3700362584412098
2024-12-07 18:18:27.671299000,7.508299072265625,0.9281845204651356,0.2903063036441803,-0.4791276245400309
2024-12-07 18:18:27.681273000,7.518273193359375,1.019828200417757,-0.0473626396775245,-0.805035402919352
2024-12-07 18:18:27.691246000,7.52824609375,1.3556903865784409,-0.3833820622265338,-1.1812225852057336
2024-12-07 18:18:27.701220000,7.53822021484375,1.7801254669442772,-0.5381219575613737,-1.3304220898091792
2024-12-07 18:18:27.711194000,7.548194091796875,1.8870979411929845,-0.5995873568713664,-1.6151348112300037
2024-12-07 18:18:27.721168100,7.558168212890625,1.9241972532704472,-0.6284346811711787,-1.8300319458857173
2024-12-07 18:18:27.731142100,7.56814208984375,1.6968930569842458,-0.5848468838572501,-1.7675404183983805
2024-12-07 18:18:27.741116200,7.5781162109375,1.4047718128725886,-0.5439560705423355,-1.5553557575717567
2024-12-07 18:18:27.751090200,7.588090087890625,1.153171964241564,-0.557795210802555,-1.294207743872702
2024-12-07 18:18:27.761064000,7.59806396484375,0.9678270872846244,-0.6131833360254764,-1.193764379131794
2024-12-07 18:18:27.771038000,7.608037841796875,0.8856608452513813,-0.7629179704189301,-1.3024609006941317
2024-12-07 18:18:27.781012000,7.618011962890625,1.3011498180955647,-0.9596849896222353,-1.5400611578062176
2024-12-07 18:18:27.790986000,7.627986083984375,1.8368620841667056,-1.2192255681246518,-1.830896161499619
2024-12-07 18:18:27.800960000,7.6379599609375,1.7893661734983324,-1.546826706418395,-2.367917756603658
2024-12-07 18:18:27.810934000,7.64793408203125,2.017475840948522,-1.71852825794816,-2.8374411019742487
2024-12-07 18:18:27.820906800,7.65790673828125,1.8074550801575184,-1.8437685025542976,-3.335249753847718
2024-12-07 18:18:27.830880800,7.667880859375,1.3024129698991775,-1.997044755077362,-3.5658582523763176
2024-12-07 18:18:27.840854800,7.677854736328125,0.8238350881963967,-2.1775649883568287,-3.541094690258801
2024-12-07 18:18:27.850828800,7.687828857421875,0.3739310739226639,-2.258828144070506,-3.286407981528342
2024-12-07 18:18:27.860802800,7.697802734375,0.0753951404631137,-2.0706921750903127,-2.6829288779154417
2024-12-07 18:18:27.870776800,7.70777685546875,-0.2348683479301631,-1.7678116365551948,-2.002268919466436
2024-12-07 18:18:27.880750800,7.717750732421875,-0.4929978905908763,-1.485706759545207,-1.1689879575327038
2024-12-07 18:18:27.890724900,7.727724853515625,-0.7365086869210005,-1.1681909619361162,-0.0353837403312325
2024-12-07 18:18:27.900699000,7.737698974609375,-1.1544102738648652,-0.7821727059870958,1.2292115400880574
2024-12-07 18:18:27.910673000,7.7476728515625,-1.64775142493546,-0.3684241470694541,2.676008138741553
2024-12-07 18:18:27.920647000,7.75764697265625,-1.7495660780295728,-0.2789326767146587,3.7893645176842807
2024-12-07 18:18:27.930621000,7.767620849609375,-1.4674436653628944,-0.3978185838580131,4.392683462299407
2024-12-07 18:18:27.940595000,7.777594970703125,-1.200107026156783,-0.5756073463469743,4.697903549697995
2024-12-07 18:18:27.950568000,7.78756787109375,-1.182597526820749,-0.841087836292386,4.576131565724313
2024-12-07 18:18:27.960542000,7.7975419921875,-1.2583498101584614,-1.0236509735763073,3.979508027094602
2024-12-07 18:18:27.970516000,7.807515869140625,-1.1585092336162923,-1.0159428834170103,3.313923180441558
2024-12-07 18:18:27.980490000,7.817489990234375,-1.0606105849221348,-0.8908850096404551,2.75312206582129
2024-12-07 18:18:27.990464000,7.827464111328125,-1.284589436177909,-0.6710726304143667,2.310674943424761
2024-12-07 18:18:28.000438000,7.83743798828125,-1.6846427933506667,-0.3777197986811399,2.1311913597166536
2024-12-07 18:18:28.010412000,7.847412109375,-2.321044361747801,-0.0604512538313865,2.1578815059825778
2024-12-07 18:18:28.020386000,7.857385986328125,-2.870651882180572,0.1506891586393118,2.335240644882619
2024-12-07 18:18:28.030360000,7.867360107421875,-2.8524890335023403,0.2458241878390312,2.5012644430369138
2024-12-07 18:18:28.040334000,7.877333984375,-2.330200604888797,0.2728641704559326,2.502309568175673
2024-12-07 18:18:28.050308000,7.88730810546875,-1.4032416806958614,0.3359890274107456,2.0301777938723564
2024-12-07 18:18:28.060282000,7.8972822265625,-0.3098720048576593,0.5241249963909387,1.0883628074616194
2024-12-07 18:18:28.070255900,7.907255859375,0.492624527233839,1.043698320826888,0.0260860428929328
2024-12-07 18:18:28.083346000,7.920345947265625,0.8715870194524526,2.0387305181622506,-0.861699831688404
2024-12-07 18:18:28.093320000,7.93031982421875,1.0233370853215455,3.5166409247428176,-1.6200670069351792
2024-12-07 18:18:28.103294000,7.9402939453125,0.8280437919326126,4.720806286379695,-2.223762383647263
2024-12-07 18:18:28.113268000,7.95026806640625,0.0807565213657915,5.2021407733142375,-2.778338632403314
2024-12-07 18:18:28.123242000,7.960241943359375,-1.0829185705810784,4.26547308666408,-3.116721569213271
2024-12-07 18:18:28.133216000,7.970216064453125,-1.9589279365204275,1.8221522985517973,-2.996179127034545
2024-12-07 18:18:28.143190000,7.98018994140625,-1.850047875084728,-0.3500181372851133,-3.0827754604697226
2024-12-07 18:18:28.153164000,7.9901640625,-0.9237016759626568,-1.648465710684657,-3.603327566809952
2024-12-07 18:18:28.163137800,8.0001376953125,0.0535233542643487,-2.100325096809864,-4.174113484349847
2024-12-07 18:18:28.173111800,8.01011181640625,0.7835562692999839,-1.870606825119257,-4.568049673816561
2024-12-07 18:18:28.183085800,8.0200859375,1.2693348761618135,-1.3210533729612826,-4.5918715711697935
2024-12-07 18:18:28.193059800,8.030059814453125,1.816190613668412,-0.688935034841299,-4.070094014687836
2024-12-07 18:18:28.203033900,8.040033935546875,2.19435201863721,-0.1445370657503605,-2.9629546105638145
2024-12-07 18:18:28.213008000,8.0500078125,2.2653736201912165,0.1659779131859541,-1.4914818358153104
2024-12-07 18:18:28.222980900,8.05998095703125,2.3764736957639454,0.4081178595542907,-0.0535001195192337
2024-12-07 18:18:28.232955000,8.069954833984376,2.7111171537846324,0.5124503406882286,1.0195824089631438
2024-12-07 18:18:28.242929000,8.079928955078126,2.9904870528727767,0.4613824167519808,1.6633245493814348
2024-12-07 18:18:28.252903000,8.08990283203125,3.0443542521387337,0.1669622480481863,2.030660901214182
2024-12-07 18:18:28.262877000,8.099876953125,3.003250672855973,-0.2977788314819335,2.133771731598676
2024-12-07 18:18:28.272851000,8.109850830078125,2.9806559792101384,-0.692232322821021,2.006747818446159
2024-12-07 18:18:28.282825000,8.119824951171875,2.643189280462265,-0.7684218285322189,1.6534718484088775
2024-12-07 18:18:28.292799000,8.129799072265625,2.011941441566497,-0.4375105427771806,1.0673208962157368
2024-12-07 18:18:28.302773000,8.13977294921875,1.2989545000083744,0.1637210741698742,0.3222884188383818
2024-12-07 18:18:28.312747000,8.1497470703125,0.6796804458923638,0.734528911280632,-0.4803647651195525
2024-12-07 18:18:28.322721000,8.159720947265624,0.0759569390643388,1.172872397750616,-1.2782853675976396
2024-12-07 18:18:28.332695000,8.169695068359376,-0.4772374999444931,1.3301573013931511,-1.9258795072689647
2024-12-07 18:18:28.342669000,8.1796689453125,-0.8798856228508055,1.1446814915329218,-2.363831364072859
2024-12-07 18:18:28.352642000,8.18964208984375,-1.2363475294478237,0.7921937492638826,-2.522536071385443
2024-12-07 18:18:28.362616000,8.199615966796875,-1.276191902449727,0.5000047006130218,-2.270139227157831
2024-12-07 18:18:28.372590000,8.209590087890625,-1.0412772311598062,0.2328881338983774,-1.797903115697205
2024-12-07 18:18:28.382564000,8.219564208984375,-0.5035001415133475,0.083912208917737,-1.0054571452379226
2024-12-07 18:18:28.392538000,8.2295380859375,0.2611747555755078,0.1993921070098877,-0.1406248607426881
2024-12-07 18:18:28.403136000,8.240135986328125,0.7325070500642061,0.3394289387315511,0.6645233549013734
2024-12-07 18:18:28.413109000,8.25010888671875,1.017885980308801,0.248500713571906,1.3033306692659854
2024-12-07 18:18:28.423083000,8.2600830078125,1.21434247225821,-0.0977408277839422,1.6193144350022075
2024-12-07 18:18:28.433057000,8.27005712890625,1.3953911133259531,-0.4130366112560034,1.850569122479856
2024-12-07 18:18:28.443031000,8.280031005859374,1.5174883837312458,-0.6892652897089719,1.8791507815808053
2024-12-07 18:18:28.453005000,8.290005126953124,1.5086942519009112,-0.9539479072749614,1.613719099213183
2024-12-07 18:18:28.462979000,8.29997900390625,1.3837901073813437,-1.0275479810148478,1.2184016845211385
2024-12-07 18:18:28.472953000,8.309953125,1.276702190059423,-0.9288315861970186,0.7880690705493092
2024-12-07 18:18:28.482927000,8.319927001953126,1.0465753375679254,-0.6655921531766653,0.429210624204576
2024-12-07 18:18:28.492901000,8.329901123046875,0.7945348324973136,-0.2776543273419141,0.2122378523185849
2024-12-07 18:18:28.502875100,8.339875244140625,0.4121803597528487,0.0324497327059507,-0.1349655198067426
2024-12-07 18:18:28.512849200,8.34984912109375,0.0695376466065645,0.2792389661848545,-0.3920440921097993
2024-12-07 18:18:28.522823200,8.3598232421875,-0.1375397542089223,0.3408464043140411,-0.5793582233130932
2024-12-07 18:18:28.532797200,8.369797119140625,-0.2807213136970997,0.3105418669432401,-0.6053557111397385
2024-12-07 18:18:28.542771200,8.379771240234374,-0.5504004243761301,0.1100432599961757,-0.6866711815625429
2024-12-07 18:18:28.552744000,8.389743896484376,-0.8006704126428812,0.0166682262063026,-0.6302236104145645
2024-12-07 18:18:28.562718000,8.399718017578126,-0.964909446272254,0.035873277413845,-0.4878405078276991
2024-12-07 18:18:28.572692700,8.409692626953126,-0.9767249717503784,0.1441641407847404,-0.2638701321393251
2024-12-07 18:18:28.582666800,8.419666748046875,-0.9161883777230978,0.2796265041977167,-0.1290939974248409
2024-12-07 18:18:28.592640500,8.429640625,-0.9127893829345702,0.3281424055635928,0.1182718668982386
2024-12-07 18:18:28.602614500,8.439614501953125,-0.9044862494915724,0.2464987260997295,0.4094254350215196
2024-12-07 18:18:28.612588500,8.449588623046875,-0.889745776477456,-0.0424263523191213,0.5352554622143507
2024-12-07 18:18:28.622562600,8.4595625,-0.9308522783696652,-0.3955184902220964,0.6140580730333924
2024-12-07 18:18:28.632536600,8.46953662109375,-0.8012181827187538,-0.6073556527853011,0.699272888982296
2024-12-07 18:18:28.642510600,8.479510498046874,-0.7993494662374258,-0.7883440880984067,0.6607856296777724
2024-12-07 18:18:28.652484600,8.489484619140624,-0.7663970447063445,-0.7182920622289181,0.8284712235644459
2024-12-07 18:18:28.662458600,8.499458740234376,-0.6770201406419277,-0.512832033482194,0.957152840796113
2024-12-07 18:18:28.672432600,8.5094326171875,-0.5680915638893842,-0.2972223666429519,0.9959732775777578
2024-12-07 18:18:28.682406700,8.51940673828125,-0.3550906182438135,-0.2053717659413814,1.0290621849700807
2024-12-07 18:18:28.692379400,8.52937939453125,-0.0443149425446987,-0.1349561674565076,1.1571776927515864
2024-12-07 18:18:28.702353400,8.539353515625,0.0978302596330642,-0.106051560011506,1.1594286865487695
2024-12-07 18:18:28.712327400,8.549327392578125,0.1140770090242847,-0.1540583428114652,1.2671683457776903
2024-12-07 18:18:28.722301400,8.559301513671874,0.0978699888552539,-0.1992196730524301,1.3464470496758818
2024-12-07 18:18:28.732275500,8.569275390625,0.0111666879142634,-0.4099567654192447,1.287307755225897
2024-12-07 18:18:28.742249500,8.57924951171875,-0.0822030669122934,-0.5787807156860828,1.2470020483225583
2024-12-07 18:18:28.752223500,8.589223388671876,-0.0881564223587512,-0.5732903015762567,1.3279203361213203
2024-12-07 18:18:28.762197500,8.599197509765625,-0.0579863250225782,-0.2916279076367616,1.3406290110468864
2024-12-07 18:18:28.772171500,8.609171630859375,-0.2276461415916681,-0.0619260025590658,1.227461189289391
2024-12-07 18:18:28.782145500,8.6191455078125,-0.4085053975671529,0.1192266834050416,1.012646179959178
2024-12-07 18:18:28.792119600,8.62911962890625,-0.7283797410011291,0.0565507392615079,0.6708098878249525
2024-12-07 18:18:28.802093600,8.639093505859375,-1.096151561641693,-0.0124105687618255,0.1550911929905414
2024-12-07 18:18:28.812067600,8.649067626953125,-1.3987924462020396,-0.1480289995193481,-0.2450403439849615
2024-12-07 18:18:28.822041600,8.65904150390625,-1.3867477881431578,-0.1340033967763185,-0.3131359750896692
2024-12-07 18:18:28.832014600,8.6690146484375,-1.3067267414450645,-0.1945388217598199,-0.3503410856291651
2024-12-07 18:18:28.841988600,8.678988525390626,-1.0770914718627929,-0.2490951723337173,-0.1747831509321928
2024-12-07 18:18:28.851962600,8.688962646484375,-0.804089938762784,-0.1828214959591627,0.302962663860619
2024-12-07 18:18:28.861936600,8.6989365234375,-0.6159446174323558,-0.0950000046432018,0.8362529634818434
2024-12-07 18:18:28.871910700,8.70891064453125,-0.3962321914494037,-0.0385287603586912,1.3389395966552198
2024-12-07 18:18:28.881884700,8.718884765625,-0.1465221020877361,-0.0864046102553606,1.6660079432465136
2024-12-07 18:18:28.891858700,8.728858642578125,0.1194002864062786,-0.0657856005966663,2.027799228172749
2024-12-07 18:18:28.901832700,8.738832763671875,0.265479923689831,-0.1315530810147523,2.229261273324489
2024-12-07 18:18:28.911806500,8.748806396484374,0.3994996688127517,-0.0949561655014753,2.435336219099164
2024-12-07 18:18:28.921780500,8.758780517578124,0.5380675970256328,0.0236129307776689,2.5364278186157345
2024-12-07 18:18:28.931754500,8.76875439453125,0.5160632704883814,0.3558446514815092,2.600958450715244
2024-12-07 18:18:28.941728500,8.778728515625,0.3045066784322262,0.8153215268731117,2.4097411745935675
2024-12-07 18:18:28.951702500,8.78870263671875,-0.0118903442800045,1.224980770650506,1.9263015320733188
2024-12-07 18:18:28.961676500,8.798676513671875,-0.4504208777546882,1.4331664249688385,1.0991279471039772
2024-12-07 18:18:28.971649500,8.8086494140625,-0.9678544136829672,1.5319570540666578,0.2361336916908621
2024-12-07 18:18:28.981623600,8.81862353515625,-1.4199404481709004,1.6591525243937968,-0.4595493561059236
2024-12-07 18:18:28.991597600,8.82859765625,-1.7760498880684374,1.6013696129888295,-1.0715665709614752
2024-12-07 18:18:29.001571600,8.838571533203124,-1.8479314674526448,1.3348235396385193,-1.5186080354109406
2024-12-07 18:18:29.011545600,8.848545654296874,-1.7855016070246696,1.0056810171216726,-1.663400829488039
2024-12-07 18:18:29.021519600,8.85851953125,-1.647449227118492,0.7155950782299041,-1.6183298078790307
2024-12-07 18:18:29.031493600,8.86849365234375,-1.5312603039741517,0.615714900329709,-1.4651631532102822
2024-12-07 18:18:29.041467600,8.878467529296875,-1.543722456792742,0.6805202577173709,-1.2534902412980795
2024-12-07 18:18:29.051441700,8.888441650390625,-1.6018495054602622,0.8028250333935022,-1.09455347879529
2024-12-07 18:18:29.061415700,8.898415771484375,-1.423609492072463,0.9341571651339532,-1.0539099182397127
2024-12-07 18:18:29.071389700,8.9083896484375,-1.105296260475367,1.1814333053469657,-1.2690043290331958
2024-12-07 18:18:29.081363700,8.91836376953125,-0.2701820917651057,1.375697401818633,-1.696400012770295
2024-12-07 18:18:29.091337700,8.928337646484374,0.9229273305892944,1.4191115961313248,-2.110494608646631
2024-12-07 18:18:29.101311700,8.938311767578124,1.7972604338794946,1.4801514635056257,-2.3810212760657072
2024-12-07 18:18:29.111285800,8.94828564453125,2.3386071987062693,1.5167004482239483,-2.0471049632757903
2024-12-07 18:18:29.121258500,8.958258544921875,2.515020581188798,1.6430308261543511,-1.0921160225152968
2024-12-07 18:18:29.131232500,8.968232421875,2.506928167887032,1.7271113773763178,-0.3303331936061382
2024-12-07 18:18:29.141206500,8.97820654296875,2.3004721138402817,1.746592907437682,0.190079504263401
2024-12-07 18:18:29.151180500,8.9881806640625,1.716165328209102,1.7394804450839756,0.7186436521455645
2024-12-07 18:18:29.161154600,8.998154541015625,1.390789172488451,1.5889076063007117,1.1592770031183957
2024-12-07 18:18:29.171128600,9.008128662109376,1.454667185898125,1.0415706611484288,1.1274880724087355
2024-12-07 18:18:29.181102600,9.0181025390625,1.629077119603753,0.3789256673395633,0.5643465321421622
2024-12-07 18:18:29.191076600,9.02807666015625,1.4192705860853194,0.0319897139787673,0.2173112100601196
2024-12-07 18:18:29.201050600,9.038050537109376,1.488120250427723,-0.3007113778024912,-0.155364164713025
2024-12-07 18:18:29.211024600,9.048024658203126,1.6166808716282248,-0.4426362152278423,-0.3196086782351136
2024-12-07 18:18:29.220998400,9.057998291015624,1.4960545505583285,-0.522274400088191,-0.6261810570254922
2024-12-07 18:18:29.230972400,9.067972412109375,1.3603139547258614,-0.6713765817970037,-0.9855889539465308
2024-12-07 18:18:29.240946400,9.077946533203123,1.2662450934529303,-0.7855646865129471,-1.270100892098248
2024-12-07 18:18:29.250920400,9.08792041015625,1.232347500026226,-0.7427537187904119,-1.2290227395176887
2024-12-07 18:18:29.260893700,9.097893798828125,1.3176514555633068,-0.7327525492578745,-1.221898586726189
2024-12-07 18:18:29.270867700,9.10786767578125,1.1174825189620257,-0.7568167309343814,-1.2555755231395362
2024-12-07 18:18:29.280841500,9.117841552734374,0.7633414565280079,-0.7403641933053732,-1.1933169276252389
2024-12-07 18:18:29.290815500,9.1278154296875,0.4464152953751385,-0.7394266201943158,-1.2258601838335397
2024-12-07 18:18:29.300789500,9.13778955078125,0.2538262925088405,-0.8081634718120098,-1.3252204295128582
2024-12-07 18:18:29.310763500,9.147763427734375,0.3354934989787638,-0.9047165511161088,-1.5219602684482931
2024-12-07 18:18:29.320737500,9.157737548828123,0.7685944086201488,-1.0315969641447067,-1.694082091216743
2024-12-07 18:18:29.330711600,9.167711669921877,1.2108904321081937,-1.16038817923069,-1.9540958401888608
2024-12-07 18:18:29.340685600,9.177685546875,1.4658962897904215,-1.273027300938964,-2.600456054151058
2024-12-07 18:18:29.350659600,9.18765966796875,1.1639976018995046,-1.2955986137092113,-3.402712347745896
2024-12-07 18:18:29.360633600,9.197633544921874,0.5530525463201105,-1.3098971881747246,-3.919337928292155
2024-12-07 18:18:29.370607600,9.207607666015624,0.0039162966609001,-1.3953554574906826,-4.023162459903955
2024-12-07 18:18:29.380581600,9.21758154296875,-0.4166495410561561,-1.4458973117262124,-3.753132343830168
2024-12-07 18:18:29.390555600,9.2275556640625,-0.7038882738232612,-1.2942594740599394,-3.049012599338591
2024-12-07 18:18:29.400529700,9.23752978515625,-0.8302899634242057,-1.1142501129120588,-2.163298270334303
2024-12-07 18:18:29.410502700,9.247502685546875,-0.882573108369112,-1.0857359660893675,-1.2024985974684357
2024-12-07 18:18:29.420476700,9.2574765625,-0.8904208992600441,-1.1323667843610048,-0.3700979255005717
2024-12-07 18:18:29.430450700,9.26745068359375,-0.9035724956475196,-1.0815893678039312,0.3809896141320467
2024-12-07 18:18:29.440424700,9.2774248046875,-0.8617810802310705,-0.9962520945191384,1.1409604251831769
2024-12-07 18:18:29.450398700,9.287398681640624,-0.7456295664876699,-0.8602239139169454,1.7669053353652358
2024-12-07 18:18:29.460372700,9.297372802734374,-0.7932542181022465,-0.6389853012800216,2.32073894906044
2024-12-07 18:18:29.470346800,9.3073466796875,-0.9542514202661811,-0.4614543129444122,3.0179847161293027
2024-12-07 18:18:29.480320500,9.317320556640626,-1.1789829895853996,-0.2883750433206558,3.519436108419299
2024-12-07 18:18:29.490294500,9.32729443359375,-1.4876765983134508,-0.1235363632977008,3.8219387535527343
2024-12-07 18:18:29.500268500,9.3372685546875,-1.6694019695989786,-0.006232756909728,3.7361189574480056
2024-12-07 18:18:29.510242600,9.34724267578125,-1.630243679165095,0.057863575425744,3.488232868643105
2024-12-07 18:18:29.520216600,9.357216552734377,-1.380861652714014,0.225374689528346,3.1813764122143384
2024-12-07 18:18:29.530190600,9.367190673828125,-1.2228554490596055,0.5190250429034233,2.7696862471312285
2024-12-07 18:18:29.540164400,9.377164306640625,-1.308966483195871,0.8571201026827097,2.4008166943818328
2024-12-07 18:18:29.550137600,9.3871376953125,-1.6430384249389172,1.1709639337807891,2.177633085156977
2024-12-07 18:18:29.560111600,9.397111572265626,-2.242076915755868,1.3163520634025334,2.2438059315055607
2024-12-07 18:18:29.570084600,9.407084716796875,-3.0027672732532023,1.0063958873927592,2.4552067484781146
2024-12-07 18:18:29.580058600,9.41705859375,-3.450781674388051,0.1452262170583009,2.4483041294828056
2024-12-07 18:18:29.590032600,9.42703271484375,-3.25512524677515,-0.8211760981202125,1.9020102636426688
2024-12-07 18:18:29.600006700,9.437006591796877,-2.5502754344433542,-1.5809014099776744,0.7963885706052184
2024-12-07 18:18:29.609980700,9.446980712890625,-1.620437155421823,-1.8107535371810195,-0.3772781923934817
2024-12-07 18:18:29.619954700,9.45695458984375,-0.4293078009687364,-1.4773615405261515,-1.1743760803118348
2024-12-07 18:18:29.629928700,9.4669287109375,0.7597276499450206,-0.7611562214434147,-1.6331868930101394
2024-12-07 18:18:29.639902500,9.47690234375,1.7482482734292744,0.2193506069332361,-1.7696245311960577
2024-12-07 18:18:29.649876500,9.48687646484375,2.3926387947537004,1.220797347486019,-1.7263447769179938
2024-12-07 18:18:29.659850500,9.4968505859375,2.669068402606249,2.1528519873827694,-1.4867337645053862
2024-12-07 18:18:29.669824500,9.506824462890624,2.489847561487556,3.0445109040051697,-1.263405486112833
2024-12-07 18:18:29.679798500,9.516798583984375,1.839793899834901,3.9844939988136288,-1.134101060807705
2024-12-07 18:18:29.689772500,9.5267724609375,0.6647172700382769,4.567085797220468,-0.9365566274911163
2024-12-07 18:18:29.699745500,9.53674560546875,-1.2064894206702708,4.085363187751174,-0.6942661667361855
2024-12-07 18:18:29.709719600,9.546719482421874,-3.3711370597869155,2.4427801053643226,-0.3395537341549992
2024-12-07 18:18:29.719693600,9.556693603515624,-4.560082055938244,0.6016594869703054,-0.1138370993211865
2024-12-07 18:18:29.729667600,9.56666748046875,-4.131145864760875,-1.0758949555546045,-0.3691223584666848
2024-12-07 18:18:29.739641600,9.5766416015625,-2.550533793118596,-2.271754845660925,-1.1017600491732358
2024-12-07 18:18:29.749615600,9.58661572265625,-0.3542202651500701,-2.6308161211013794,-2.0534376734286544
2024-12-07 18:18:29.759589600,9.596589599609375,1.7886381514847278,-2.273969599100947,-2.9635104908809065
2024-12-07 18:18:29.769563600,9.606563720703123,3.092094200696051,-1.748657438752055,-3.61739350156337
2024-12-07 18:18:29.779537700,9.61653759765625,3.478388643237948,-1.1524158851772546,-3.722190093077719
2024-12-07 18:18:29.789511700,9.62651171875,2.96556420854032,-0.484114473041892,-3.2968469579562543
2024-12-07 18:18:29.799485700,9.636485595703125,1.6911036599278448,0.0143821610957384,-2.2445488588273523
2024-12-07 18:18:29.809459700,9.646459716796874,0.3975495576582848,0.2809703200221061,-0.7698170822829008
2024-12-07 18:18:29.819433700,9.656433837890624,-0.1757815143197774,0.5077747500926256,0.6558718464121223
2024-12-07 18:18:29.829407500,9.666407470703126,0.2805138814914971,0.6925012028902768,1.7750600002482533
2024-12-07 18:18:29.839381500,9.676381591796876,1.516466054946184,0.7190180384159087,2.240911086846888
2024-12-07 18:18:29.849354500,9.6863544921875,2.62244167598784,0.6891974851697683,2.120548092888296
2024-12-07 18:18:29.859328500,9.69632861328125,2.896181460234523,0.4237000440895557,1.6448539499282837
2024-12-07 18:18:29.869302500,9.706302490234377,2.4491009789489206,0.1088484972536563,1.1101230961099269
2024-12-07 18:18:29.879276500,9.716276611328125,1.8939052831202745,-0.0385001187860965,0.5261147089034318
2024-12-07 18:18:29.889250600,9.72625048828125,1.5668664548844098,0.0490747042924165,0.0104822310477495
2024-12-07 18:18:29.899224600,9.736224609375,1.425961023634672,0.2588514271944761,-0.4043196363151073
2024-12-07 18:18:29.909198600,9.746198486328124,1.273275138220191,0.4868775080144405,-0.784481275190413
2024-12-07 18:18:29.919172600,9.756172607421876,1.0106764142561704,0.6792232036441564,-1.0977177880451083
2024-12-07 18:18:29.929146600,9.766146728515626,0.7178419073086232,0.7946540018975734,-1.3499459977075456
2024-12-07 18:18:29.939120600,9.77612060546875,0.464681531362608,0.9093068015158176,-1.5014613780379291
2024-12-07 18:18:29.949094700,9.7860947265625,0.2519657593339681,0.9942623820066452,-1.5625491762071848
2024-12-07 18:18:29.959068400,9.796068359375,0.0007114362049847,0.8454442779362201,-1.5956559115171431
2024-12-07 18:18:29.969042400,9.80604248046875,-0.1619078872680664,0.57276189378798,-1.5537170504540203
2024-12-07 18:18:29.979016400,9.816016357421876,-0.1738069993764162,0.3022293811500072,-1.3741469575062393
2024-12-07 18:18:29.988990500,9.825990478515624,-0.1311187812507152,0.0609615414410829,-1.0995023333743217
2024-12-07 18:18:29.998963700,9.835963623046876,0.0351258200474083,-0.0322281989097595,-0.5393704963177443
2024-12-07 18:18:30.008937500,9.8459375,0.2591922765213996,-0.0662660775899887,-0.0812640324965119
2024-12-07 18:18:30.018911500,9.855911376953124,0.4464963977873325,-0.2439537177920341,0.3224877408027649
2024-12-07 18:18:30.028885500,9.865885498046875,0.6909276699632406,-0.4230535628795623,0.7987585146069526
2024-12-07 18:18:30.038859500,9.875859619140623,0.9289316125053912,-0.6237304490029811,1.18159287982285
2024-12-07 18:18:30.048833500,9.88583349609375,1.071896825829148,-0.7938380093395709,1.461606629772484
2024-12-07 18:18:30.058807600,9.8958076171875,1.1639356425791978,-0.9557599251329898,1.574287252534926
2024-12-07 18:18:30.068781600,9.905781494140625,1.0870101507436485,-0.9217243845403194,1.589229385600984
2024-12-07 18:18:30.078755600,9.915755615234374,0.7834913873702287,-0.7442939339697361,1.4538722361281513
2024-12-07 18:18:30.088729600,9.9257294921875,0.4943055391233414,-0.4836842649310827,1.214747545927763
2024-12-07 18:18:30.098703600,9.93570361328125,0.2929951043367386,-0.2577840902239084,0.8817810812085867
2024-12-07 18:18:30.108677600,9.945677734375,0.1591220559418201,-0.1528700098097324,0.4582268753305077
2024-12-07 18:18:30.118651600,9.955651611328124,0.0213765865603461,-0.128774848473072,0.1550108212307095
2024-12-07 18:18:30.128625700,9.965625732421875,-0.00113747959733,-0.1644347753971815,-0.0371311685204505
2024-12-07 18:18:30.138598700,9.9755986328125,-0.0937345512846484,-0.2036041717469692,-0.2875266097977757
2024-12-07 18:18:30.148572700,9.98557275390625,-0.4609013917693868,-0.165135032621026,-0.4602648108989
2024-12-07 18:18:30.158546700,9.995546630859376,-0.7805179245173931,0.0684071812719106,-0.4319181295976042
2024-12-07 18:18:30.168520700,10.005520751953124,-0.8610878372699021,0.2249398052424192,-0.3485051023736596
2024-12-07 18:18:30.178494500,10.015494384765624,-0.8810895918130874,0.3085217592924833,-0.2360305235773324
2024-12-07 18:18:30.188468500,10.025468505859376,-0.9004875352442264,0.1994441294580698,-0.2195809085577726
2024-12-07 18:18:30.198442500,10.0354423828125,-0.9984113183796404,0.0482148725926876,-0.2025608001738786
2024-12-07 18:18:30.208416500,10.04541650390625,-1.0735749881744383,-0.0760018741846084,-0.1854410308077931
2024-12-07 18:18:30.218390500,10.055390625,-1.0862532679617405,-0.1168225448727607,-0.1730710863173007
2024-12-07 18:18:30.228364500,10.065364501953123,-1.0341647688060998,-0.0815349583923816,-0.1596446185111999
2024-12-07 18:18:30.238338600,10.075338623046877,-0.9278606953382492,-0.039903555843234,-0.2999804331794381
2024-12-07 18:18:30.248312600,10.0853125,-0.8902128094673156,-0.1350976217538118,-0.237683843742311
2024-12-07 18:18:30.258286600,10.09528662109375,-0.7508955241918563,-0.1707768379002809,-0.0070946344360709
2024-12-07 18:18:30.268260400,10.10526025390625,-0.6321744522213936,-0.3336795814245939,0.2447504211276769
2024-12-07 18:18:30.278234400,10.115234375,-0.5484826080560684,-0.4684902029305696,0.6007774434387684
2024-12-07 18:18:30.288207600,10.12520751953125,-0.495578700864315,-0.5890209546715021,0.9273878171294928
2024-12-07 18:18:30.298181600,10.135181640625,-0.3315758871436119,-0.533270425876975,1.3748136047214268
2024-12-07 18:18:30.308155600,10.14515576171875,-0.3034674167786724,-0.4391016113609075,1.5979703259393572
2024-12-07 18:18:30.318129700,10.155129638671877,-0.4343383424818515,-0.321493469068408,1.7678326793432235
2024-12-07 18:18:30.328103400,10.165103515625,-0.4677566279590129,-0.1089081184864044,1.7808450133904814
2024-12-07 18:18:30.338077400,10.175077392578125,-0.5070669306168333,0.2056143425256013,1.592403631722927
2024-12-07 18:18:30.348051500,10.185051513671874,-0.798740978950262,0.2050327432453632,1.163814062026143
2024-12-07 18:18:30.358025500,10.195025390625,-1.0153928483188153,0.0664133771061897,0.7410536368742585
2024-12-07 18:18:30.367999500,10.20499951171875,-1.012616369342804,-0.0451268434494733,0.4696592467099428
2024-12-07 18:18:30.377973500,10.214973388671876,-1.033966615885496,-0.2465601008981466,0.1499015153929591
2024-12-07 18:18:30.387947500,10.224947509765624,-1.0619079312562942,-0.2484329090327024,0.2554597389295697
2024-12-07 18:18:30.397921500,10.234921630859375,-0.9990157140135764,-0.2193254724919796,0.4267871964499354
2024-12-07 18:18:30.407895600,10.2448955078125,-0.9069324735999108,-0.2446720951944589,0.6246247674942016
2024-12-07 18:18:30.417869600,10.25486962890625,-0.9474643904745578,-0.2294295178771019,0.7020179499067366
2024-12-07 18:18:30.427843600,10.264843505859377,-1.0872130529046058,-0.1999666920274496,1.0306016694970428
2024-12-07 18:18:30.437816600,10.274816650390624,-1.0042682277143,-0.0687836133688688,1.488063113413006
2024-12-07 18:18:30.447790600,10.28479052734375,-0.7888520376205443,0.0639794279575347,1.9010045937314628
2024-12-07 18:18:30.457764600,10.2947646484375,-0.5788683939695358,0.0421668246001005,2.138627208805829
2024-12-07 18:18:30.467738600,10.304738525390626,-0.3988274686396121,0.0783960758447647,2.29436765948534
2024-12-07 18:18:30.477712600,10.314712646484375,-0.3460661847889423,0.0771709179639816,2.354829142449796
2024-12-07 18:18:30.487686700,10.324686767578124,-0.1806827303647994,0.1937111387640237,2.5723905278787016
2024-12-07 18:18:30.497660700,10.33466064453125,0.1262391925156116,0.531285974061489,2.762868383809924
2024-12-07 18:18:30.507634700,10.344634765625,0.0413175142943859,0.9328373147070408,2.789832670842111
2024-12-07 18:18:30.517608700,10.354608642578125,-0.2456874097168445,1.45002345174551,2.787081910829246
2024-12-07 18:18:30.527582700,10.364582763671876,-0.6627899552375078,1.7450252197295426,2.4184277543962
2024-12-07 18:18:30.537556700,10.374556640625,-0.9990864411622286,1.6321914522320031,1.6631456856831908
2024-12-07 18:18:30.547530800,10.38453076171875,-1.2788836257517338,1.3540361896306277,0.7364449740350246
2024-12-07 18:18:30.557504800,10.3945048828125,-1.633625868949294,1.1423054100513457,0.0024137831434607
2024-12-07 18:18:30.567479300,10.404479248046876,-1.8830793532013888,0.930253727954626,-0.4938105221480131
2024-12-07 18:18:30.577452500,10.41445263671875,-1.6801777767658232,0.6051397303014994,-0.8442331485807895
2024-12-07 18:18:30.587426300,10.42442626953125,-1.22107557990551,0.2549912446349859,-1.086830483327806
2024-12-07 18:18:30.597400300,10.434400390625,-0.7624860087424516,0.0296241538912057,-1.2438581973388791
2024-12-07 18:18:30.607374300,10.444374267578125,-0.5874369003504515,-0.1019593222618103,-1.4380474750086665
2024-12-07 18:18:30.617348400,10.454348388671876,-0.645042117100954,-0.0853179840624332,-1.6172998803094027
2024-12-07 18:18:30.627322400,10.464322265625,-0.7302724228799342,0.1372609372675418,-1.869265639643371
2024-12-07 18:18:30.637296400,10.47429638671875,-0.8260007417976856,0.5255868856370449,-2.145111456258595
2024-12-07 18:18:30.647270400,10.4842705078125,-0.818938109935075,1.0787480068981647,-2.3218697066560385
2024-12-07 18:18:30.657244400,10.494244384765626,-0.5480997462183237,1.633075249329209,-2.619502699926495
2024-12-07 18:18:30.667218400,10.504218505859376,0.193915721425414,2.014667505529523,-2.65370804412812
2024-12-07 18:18:30.677192400,10.5141923828125,1.0715776768773793,2.459193480026722,-2.249652027185261
2024-12-07 18:18:30.687166500,10.52416650390625,1.6222253540128468,2.7525965806424617,-1.6138079465404152
2024-12-07 18:18:30.697140500,10.534140380859377,2.058083453407884,2.7917227223724126,-0.78968088966012
2024-12-07 18:18:30.707114500,10.544114501953125,2.2009341735064982,2.770882178917527,0.2333677341088652
2024-12-07 18:18:30.717088500,10.554088623046876,2.014396871894598,2.3658675460755823,0.7373933608010411
2024-12-07 18:18:30.727061500,10.5640615234375,1.9251205055952072,1.745947595271468,1.0310673873126506
2024-12-07 18:18:30.737035500,10.574035400390626,1.7960317688673733,1.138327154070139,1.4316767709329723
2024-12-07 18:18:30.747009500,10.584009521484376,1.927625181892514,0.360251946529746,1.4999164866834878
2024-12-07 18:18:30.756983600,10.593983642578126,1.7750002328850327,-0.2470207041472196,1.1969862637877464
2024-12-07 18:18:30.766957600,10.60395751953125,1.6134031651318073,-0.652350978809595,0.6578261953502893
2024-12-07 18:18:30.776931600,10.613931640625,1.6332599582463505,-0.797321759802103,0.3504533138319849
2024-12-07 18:18:30.786905600,10.623905517578123,1.5880904446989297,-0.8191495607286691,-0.0180097039431333
2024-12-07 18:18:30.796879600,10.633879638671877,1.5995355294294655,-0.748704736149311,-0.3297165230125188
2024-12-07 18:18:30.806853600,10.643853515625,1.758174624159932,-0.7611725880563258,-0.8235162315055727
2024-12-07 18:18:30.816827600,10.65382763671875,1.761057778380811,-0.8251216208755969,-1.2999436571761964
2024-12-07 18:18:30.826801700,10.6638017578125,1.4665123758621512,-0.7551677946835755,-1.4120546633571385
2024-12-07 18:18:30.836775400,10.673775390625,1.00181162834242,-0.6627928778469562,-1.3081664188593625
2024-12-07 18:18:30.846749400,10.68374951171875,0.7175099719405174,-0.7492512641161679,-1.3501160935774446
2024-12-07 18:18:30.856723500,10.693723388671875,0.4715560202419757,-0.875090643659234,-1.5115303521096706
2024-12-07 18:18:30.866696400,10.703696533203123,0.2972758503958582,-0.9223679431408645,-1.755902879835665
2024-12-07 18:18:30.876670500,10.71367041015625,0.2509294020235538,-0.9018559009879829,-2.0375740416035053
2024-12-07 18:18:30.886644500,10.72364453125,0.607908025971055,-0.7738274869680404,-2.242228891447186
2024-12-07 18:18:30.896618200,10.7336181640625,1.4401720659472048,-0.7467904269605875,-2.387633387681842
2024-12-07 18:18:30.906592300,10.74359228515625,1.5983394515126943,-0.7351227855205535,-2.657751766560972
2024-12-07 18:18:30.916566300,10.753566162109376,1.7705816857904195,-0.7254267364144324,-2.8540231112018226
2024-12-07 18:18:30.926540300,10.763540283203126,1.5590408758252858,-0.7848468936324119,-3.1850004479303955
2024-12-07 18:18:30.936514300,10.773514404296876,0.9999719918251035,-0.9905664500981568,-3.43949075730592
2024-12-07 18:18:30.946488300,10.78348828125,0.309244959000498,-1.2643635174900292,-3.4600960307002064
2024-12-07 18:18:30.956462300,10.79346240234375,-0.3003504355356097,-1.4023638749480247,-3.141662825985253
2024-12-07 18:18:30.966436400,10.803436279296877,-0.7261373689018189,-1.2566530892431735,-2.360710017181933
2024-12-07 18:18:30.976410400,10.813410400390625,-0.912784414498508,-1.0662252099335192,-1.4188561600655316
2024-12-07 18:18:30.986384400,10.82338427734375,-0.7573071447998285,-1.042635075509548,-0.6296431801781058
2024-12-07 18:18:30.996358400,10.8333583984375,-0.5292419010132551,-1.0042600444078444,0.1321694593474268
2024-12-07 18:18:31.006332400,10.84333251953125,-0.3801443954795598,-0.8798720327168703,0.9362132208809256
2024-12-07 18:18:31.016305400,10.853305419921876,-0.4407154762983322,-0.6588374182194471,1.7750708139032123
2024-12-07 18:18:31.026279400,10.863279541015626,-0.5434212330132723,-0.5393962152808904,2.434915947860479
2024-12-07 18:18:31.036253400,10.87325341796875,-0.5940006427802145,-0.6407365288615227,2.803016269803047
2024-12-07 18:18:31.046227500,10.8832275390625,-0.7725140662819147,-0.8505950848281383,2.90033594956547
2024-12-07 18:18:31.056201500,10.893201416015623,-1.0910095225781202,-1.071397644135356,2.6825702737361192
2024-12-07 18:18:31.066175500,10.903175537109377,-1.3008195632278918,-1.1171212844341991,2.241279627898335
2024-12-07 18:18:31.076149500,10.9131494140625,-1.413180452516675,-0.928220760822296,1.990084852936864
2024-12-07 18:18:31.086123500,10.92312353515625,-1.5344418566197155,-0.6248936475634574,1.7983745326012373
2024-12-07 18:18:31.096097500,10.93309765625,-1.5463649341255423,-0.2834580451846122,1.621872302791476
2024-12-07 18:18:31.106071600,10.943071533203126,-1.4415231882952153,0.125673375326395,1.5622899407491089
2024-12-07 18:18:31.116045600,10.953045654296876,-1.342782828079909,0.543509495818615,1.570214888529479
2024-12-07 18:18:31.126019600,10.96301953125,-1.4051649038434029,0.7516273455977439,1.6075421641439198
2024-12-07 18:18:31.135993600,10.97299365234375,-1.720550119164586,0.6852519624143838,1.7600614608198404
2024-12-07 18:18:31.145967400,10.98296728515625,-2.193619028187543,0.4683978484719991,2.0371172377467155
2024-12-07 18:18:31.155940600,10.992940673828125,-2.757142407378554,0.1861918491750955,2.4016394089415667
2024-12-07 18:18:31.165914600,11.00291455078125,-3.066472560444474,-0.1185550677537918,2.578620362178981
2024-12-07 18:18:31.175888600,11.012888671875,-2.709348390546441,-0.3578483925193548,2.243725267484784
2024-12-07 18:18:31.185862700,11.022862548828124,-1.73805961850062,-0.5315197828173637,1.4145350819960236
2024-12-07 18:18:31.195836700,11.032836669921876,-0.4742237781465053,-0.644424861985445,0.3961909826561808
2024-12-07 18:18:31.205810400,11.042810546875,0.5803733917050063,-0.6580196720957756,-0.6184647835597396
2024-12-07 18:18:31.215784400,11.052784423828124,1.1423960109442473,-0.4779641337186098,-1.4019728298038243
2024-12-07 18:18:31.225758500,11.062758544921875,1.3351941265165803,0.0463262823671102,-1.8807348359018563
2024-12-07 18:18:31.235732500,11.072732421875,1.4111813876539467,0.8316939850032329,-2.0619532805785536
2024-12-07 18:18:31.245706500,11.08270654296875,1.3486604879416524,1.8808494021922348,-1.87249395404011
2024-12-07 18:18:31.255680500,11.092680419921876,0.9172430013425648,3.006846651521325,-1.7093109322696922
2024-12-07 18:18:31.265654500,11.102654541015625,0.1936072399981319,3.719326812601089,-1.8307842255577444
2024-12-07 18:18:31.275628500,11.112628662109374,-1.0619323350451886,3.7171880470067262,-1.8727055509641768
2024-12-07 18:18:31.285602300,11.122602294921874,-2.76880712620914,2.7592455171376464,-1.3854434275463223
2024-12-07 18:18:31.295576300,11.132576416015626,-3.8697985290974377,1.383188049834967,-0.5877101643338799
2024-12-07 18:18:31.305549300,11.14254931640625,-3.640885144048929,0.1533107393145561,0.1536810339316725
2024-12-07 18:18:31.315523300,11.1525234375,-2.3196258732520043,-0.8388719138085842,0.5058998961314559
2024-12-07 18:18:31.325497300,11.162497314453123,-0.4594371279031038,-1.5104033939063548,0.2747571445956826
2024-12-07 18:18:31.335471400,11.172471435546877,1.1039386353213338,-1.7898469427525996,-0.5073153158873319
2024-12-07 18:18:31.345445400,11.1824453125,1.9975585498183963,-1.637150535944104,-1.566253583683073
2024-12-07 18:18:31.355419400,11.19241943359375,2.343176406317949,-1.092199609145522,-2.329732987377048
2024-12-07 18:18:31.365393400,11.202393310546874,2.306581828892231,-0.5538245536059141,-2.62951877476722
2024-12-07 18:18:31.375367400,11.212367431640626,1.7445365594297646,-0.1550736573338508,-2.416956805060804
2024-12-07 18:18:31.385341400,11.222341552734376,0.7982857094634324,0.1146931316286325,-1.7282541176706552
2024-12-07 18:18:31.395315500,11.2323154296875,-0.0415343719154596,0.1897533410489559,-1.0287997346416116
2024-12-07 18:18:31.405289500,11.24228955078125,-0.4936952252052724,0.1661871720224619,-0.3736974112972617
2024-12-07 18:18:31.415263500,11.252263427734375,-0.3425970473736524,0.1907873602718114,0.2511930213958024
2024-12-07 18:18:31.425237500,11.262237548828123,0.4930700790442526,0.2115279504835605,0.8145961352080107
2024-12-07 18:18:31.435211500,11.27221142578125,1.6300393887646496,0.2282271563500165,1.101778169351816
2024-12-07 18:18:31.445184500,11.2821845703125,2.477487261608243,0.2089624839097261,1.0829299687579277
2024-12-07 18:18:31.455158500,11.292158447265624,2.835783982416987,0.1789414396554231,1.0061945196017623
2024-12-07 18:18:31.465132500,11.302132568359376,2.7252713513433933,0.1575175433546304,0.7921914111763239
2024-12-07 18:18:31.475106600,11.3121064453125,2.3289643410921097,0.2058253549277782,0.4546402490153908
2024-12-07 18:18:31.485080600,11.32208056640625,1.9534861838579176,0.3243605489373207,0.0957584217950701
2024-12-07 18:18:31.495054600,11.3320546875,1.7239327473402022,0.5492272889435291,-0.2814212786599993
2024-12-07 18:18:31.505028600,11.342028564453123,1.5190204156041145,0.6828764654546976,-0.7792775690674781
2024-12-07 18:18:31.515002400,11.35200244140625,1.2763368638783692,0.7465344063729047,-1.3228560384690762
2024-12-07 18:18:31.524976400,11.361976318359376,1.0372685800403356,0.8135562707662581,-1.8245716346532104
2024-12-07 18:18:31.534950400,11.371950439453125,0.764611330333352,0.9141431356310844,-2.140942938402295
2024-12-07 18:18:31.544924400,11.38192431640625,0.5421322891812771,0.9582482348173856,-2.404559680302441
2024-12-07 18:18:31.554898400,11.3918984375,0.508663150299713,0.8820593136280774,-2.496708094906807
2024-12-07 18:18:31.564872400,11.40187255859375,0.5744130950611084,0.7844926733672618,-2.4029662736311552
2024-12-07 18:18:31.574846500,11.411846435546876,0.5040805717498064,0.6988111166894435,-2.0959972967386244
2024-12-07 18:18:31.584819500,11.4218193359375,0.2526969231527298,0.5495557902455329,-1.6155647270798683
