time,seconds_elapsed,z,y,x
2024-12-07 17:55:49.091079700,0.03607958984375,0.0284264685392379,-0.0966664765506982,0.0769412008613348
2024-12-07 17:55:49.101052700,0.046052734375,-0.166485278186202,-0.0559621257185935,0.0395616105377674
2024-12-07 17:55:49.111026700,0.056026611328125,-0.1691295821499079,0.0591986234217882,0.0654313803315162
2024-12-07 17:55:49.120999700,0.065999755859375,-0.213830382207036,-0.0169283384472131,0.0855056155890226
2024-12-07 17:55:49.130972700,0.07597265625,-0.2616986333191394,-0.320368848952651,0.0678179832071065
2024-12-07 17:55:49.140945700,0.085945556640625,-0.0738778677679598,-0.1713315491735935,0.1653916377305984
2024-12-07 17:55:49.150918700,0.095918701171875,-0.2182353391677141,-0.0952753144532442,0.1161883386224508
2024-12-07 17:55:49.160891600,0.1058916015625,-0.5758160206615924,-0.2308405537188053,-0.0118359837442636
2024-12-07 17:55:49.170865700,0.11586572265625,-0.4826239422231912,-0.3694599198579788,-0.0424468105852603
2024-12-07 17:55:49.180838700,0.125838623046875,-0.0281283623754978,-0.5075543853402138,0.0261637843042612
2024-12-07 17:55:49.190811600,0.135811767578125,0.5232382401516661,-0.3910404680252075,0.3485001339375972
2024-12-07 17:55:49.200784600,0.14578466796875,0.3547790680766105,-0.324789003482461,0.5409247400224209
2024-12-07 17:55:49.210757600,0.155757568359375,-0.2567278591692447,-1.0013637384444474,0.5131710561782121
2024-12-07 17:55:49.220731000,0.16573095703125,-0.759682057237625,-2.7054285867542025,1.0726695637673138
2024-12-07 17:55:49.230703600,0.17570361328125,-0.5222528093108907,-2.276436865997314,1.7909885140031576
2024-12-07 17:55:49.240677600,0.185677734375,-0.5364589197199792,-2.4620196433633565,2.195446389745176
2024-12-07 17:55:49.250650600,0.195650634765625,0.1666753208655864,-2.291337498009205,2.220376540601253
2024-12-07 17:55:49.260623600,0.20562353515625,3.4795535953640937,-1.5739835934132336,1.4410197688177226
2024-12-07 17:55:49.270596900,0.215596923828125,2.14507375459671,-1.2913847954064608,0.7631962028384208
2024-12-07 17:55:49.280569900,0.22556982421875,-1.185177752572298,-2.5484435428410768,0.700856066520512
2024-12-07 17:55:49.290542600,0.23554248046875,-2.3886463641166684,-3.201761905378103,1.1051306946501136
2024-12-07 17:55:49.300516600,0.2455166015625,-2.969969750022888,-3.499811955016851,0.9941283803634344
2024-12-07 17:55:49.310488800,0.25548876953125,-2.79468361800462,-3.7235634272575378,0.5092420461662114
2024-12-07 17:55:49.320462000,0.265462158203125,-2.054834096223116,-4.255784051820635,-0.3606377309769392
2024-12-07 17:55:49.330435000,0.27543505859375,-1.2155004101216793,-4.943539521488547,-1.277411507372558
2024-12-07 17:55:49.340408000,0.285407958984375,-0.3484532991211861,-5.20308769877553,-1.6342349407583474
2024-12-07 17:55:49.350380800,0.295380859375,0.4044867365103214,-5.248754640451073,-2.2877749832220373
2024-12-07 17:55:49.360354800,0.305354736328125,0.4056313765008002,-4.719274254506826,-2.171562679202109
2024-12-07 17:55:49.370328000,0.315328125,0.4229155791809782,-4.3814948365479705,-1.968178872207552
2024-12-07 17:55:49.380301000,0.325301025390625,0.0908896101823076,-4.228528965148329,-1.5348665117725728
2024-12-07 17:55:49.390274000,0.335274169921875,0.655536623108387,-0.7629033573716878,-0.7520183907419443
2024-12-07 17:55:49.400246800,0.345246826171875,1.7070505861222742,5.29706420558989,-0.7643002185575664
2024-12-07 17:55:49.410220000,0.355219970703125,2.428003391993045,11.416067894887924,-0.4574982687950134
2024-12-07 17:55:49.420193000,0.365193115234375,1.7754536757409571,17.575562000006435,0.5963639013128355
2024-12-07 17:55:49.430167000,0.3751669921875,-0.0640846236313693,20.900681404983995,1.7908311314843597
2024-12-07 17:55:49.440140000,0.38514013671875,-2.7287188614487645,16.93640017311573,3.112928606671095
2024-12-07 17:55:49.450113000,0.395113037109375,-2.492632808291912,7.1649307920902965,2.342949465694278
2024-12-07 17:55:49.460085800,0.405085693359375,0.0869020201171748,1.0136650016129016,0.7169833177179098
2024-12-07 17:55:49.470059000,0.41505908203125,1.688372773659229,-2.2276485774308443,0.0115856622450053
2024-12-07 17:55:49.480032000,0.425031982421875,2.484622520315647,-3.915669468912482,-0.5665800633478909
2024-12-07 17:55:49.490006000,0.435006103515625,2.7139608527779577,-4.162732258635759,-1.1393081279315054
2024-12-07 17:55:49.499979000,0.44497900390625,2.301235791689157,-3.389828900775313,-1.402105808533728
2024-12-07 17:55:49.509952000,0.454951904296875,1.1406570583224296,-1.637572560748458,-1.098796157866344
2024-12-07 17:55:49.519925000,0.464925048828125,0.1049556545335799,0.0570306317329406,-0.3810356452308595
2024-12-07 17:55:49.529898000,0.47489794921875,-0.2281996838212013,0.9086889618784189,0.0973489058569073
2024-12-07 17:55:49.539871000,0.48487109375,-0.2306873359184712,1.2005348961800335,0.137546914602071
2024-12-07 17:55:49.549844000,0.494843994140625,-0.016675313534215,0.9655313775628804,-0.0725388377165421
2024-12-07 17:55:49.559818000,0.50481787109375,0.1880091277301311,0.446001307746768,-0.3435461282594129
2024-12-07 17:55:49.569791000,0.514791015625,0.384961440372467,0.0194248314380645,-0.5812556178996339
2024-12-07 17:55:49.579764000,0.524763916015625,0.5632487269680947,-0.0548205544680356,-0.5615627101099119
2024-12-07 17:55:49.589737000,0.534737060546875,0.5910276183187961,0.153219553899765,-0.2584513950262218
2024-12-07 17:55:49.599710000,0.5447099609375,0.5998856091655791,0.4062631715983152,0.0572230307661928
2024-12-07 17:55:49.609683000,0.554682861328125,0.6681716482758522,0.7637123356670141,0.6025927126998082
2024-12-07 17:55:49.619657000,0.564656982421875,0.8441070379830896,1.0301134475886822,1.1492621703866868
2024-12-07 17:55:49.629630000,0.5746298828125,0.946601490034908,1.1493868927448987,1.5266969415813685
2024-12-07 17:55:49.639603000,0.58460302734375,0.7202794366538524,1.2198673731595278,1.875933719230443
2024-12-07 17:55:49.649576000,0.594575927734375,0.1098117893278598,1.2507166849315166,1.957894647949934
2024-12-07 17:55:49.659549000,0.604548828125,-0.5737820306159556,1.2048936759114264,1.664445370104909
2024-12-07 17:55:49.669522000,0.61452197265625,-1.1413700288973747,0.9902087227016688,1.3526128788292406
2024-12-07 17:55:49.679496000,0.624495849609375,-1.4477438163757324,0.7639052278906107,0.9370854006055742
2024-12-07 17:55:49.689469000,0.634468994140625,-1.353512019626051,0.5278291116058826,0.4947080555096268
2024-12-07 17:55:49.699442000,0.64444189453125,-1.0305785808824002,0.2025742441773414,0.2254502755152061
2024-12-07 17:55:49.709415000,0.654414794921875,-0.7657670762397348,-0.0754553462177515,0.1048911196636967
2024-12-07 17:55:49.719388000,0.664387939453125,-0.5113084771767258,-0.2644575766384601,-0.1181423861665185
2024-12-07 17:55:49.729361200,0.674361083984375,-0.2736089974738657,-0.2867044797599316,-0.17847177631706
2024-12-07 17:55:49.739335200,0.684335205078125,-0.2789154333189129,-0.2367816342055797,-0.1859722516076639
2024-12-07 17:55:49.749308000,0.694307861328125,-0.5289209984958172,-0.1778764407724141,-0.2268706637071445
2024-12-07 17:55:49.759281000,0.704281005859375,-0.927456206190586,-0.2252466792345047,-0.0837368888834491
2024-12-07 17:55:49.769254000,0.71425390625,-1.0947747203305362,-0.3460094861656427,-0.0147590315841138
2024-12-07 17:55:49.779227100,0.72422705078125,-0.8527578158199787,-0.500608511725068,-0.0985272654538974
2024-12-07 17:55:49.789200100,0.7342001953125,-0.464434059407562,-0.7218576457560062,-0.1946671973798424
2024-12-07 17:55:49.799172900,0.7441728515625,-0.0288461552560329,-0.8695821093708276,-0.3827316354937851
2024-12-07 17:55:49.809147000,0.75414697265625,0.452510981901735,-0.9402584046185016,-0.5573582076247782
2024-12-07 17:55:49.819119900,0.764119873046875,0.9187469761647284,-0.9070610684156416,-0.6298737740635871
2024-12-07 17:55:49.829092900,0.7740927734375,1.115139170706272,-0.8757663509637117,-0.6584978110015391
2024-12-07 17:55:49.839066000,0.784066162109375,0.843191530573368,-0.8072066094785928,-0.5679851809054612
2024-12-07 17:55:49.849039000,0.7940390625,0.5100574542023241,-0.8068149798125028,-0.6412749465871602
2024-12-07 17:55:49.859011800,0.80401171875,0.4309586369156837,-0.9215864373743532,-0.6765299459721893
2024-12-07 17:55:49.868985900,0.81398583984375,0.6001918986357748,-1.139218549951911,-0.6572190963026135
2024-12-07 17:55:49.878958800,0.823958740234375,0.7323707103334367,-1.3374860368460415,-0.8663836786556989
2024-12-07 17:55:49.888932000,0.83393212890625,0.4343091163873672,-1.4341367313057185,-0.9209113876570016
2024-12-07 17:55:49.898905000,0.843905029296875,0.0543242953836917,-1.3941758923172949,-0.8612419318530709
2024-12-07 17:55:49.908877800,0.8538779296875,-0.0054305006161332,-1.3225263681232928,-0.8173240988671779
2024-12-07 17:55:49.918850800,0.863850830078125,0.1101658634625375,-1.1885872687548398,-0.8250694522969424
2024-12-07 17:55:49.928824800,0.873824951171875,0.1078920733116567,-0.9605758009821176,-0.8330958146251738
2024-12-07 17:55:49.938797800,0.8837978515625,0.1542658480823039,-0.7682213375240564,-0.5249507066253573
2024-12-07 17:55:49.948771000,0.89377099609375,0.4395056621171533,-0.7153928336560725,-0.0731425392307341
2024-12-07 17:55:49.958744000,0.903744140625,0.6106980950810015,-0.8754214830487966,0.0347526028208434
2024-12-07 17:55:49.968716800,0.913716796875,0.5899110353790223,-1.034737015736103,-0.072120137380436
2024-12-07 17:55:49.978689800,0.923689697265625,0.8294519051648676,-1.0616372976213693,-0.2159947936993092
2024-12-07 17:55:49.988663000,0.9336630859375,1.4141257705427706,-0.9369406583726404,-0.4377086226325481
2024-12-07 17:55:49.998637000,0.943636962890625,1.980667766902596,-0.7311527128458023,-0.5281815052401274
2024-12-07 17:55:50.008610000,0.953610107421875,2.073921220139414,-0.5321779544651508,-0.4783508680138736
2024-12-07 17:55:50.018583000,0.9635830078125,1.6393033300638198,-0.4369704445511102,-0.31508813207075
2024-12-07 17:55:50.028555800,0.9735556640625,1.2532722146332262,-0.4798386954188346,-0.159186828273721
2024-12-07 17:55:50.038529000,0.983529052734375,1.1871965450488031,-0.5455132368564606,-0.0489153490122407
2024-12-07 17:55:50.048502000,0.993501953125,1.4782956065058708,-0.5376151770830154,0.056810011252202
2024-12-07 17:55:50.058476000,1.00347607421875,1.808306144028902,-0.2418605449050664,0.1228492212837562
2024-12-07 17:55:50.068449000,1.013448974609375,1.9270365683496,0.4232768502414226,0.1979820575488731
2024-12-07 17:55:50.078422000,1.023422119140625,1.8180220668792724,1.4065122267991303,0.2709936638763174
2024-12-07 17:55:50.088395000,1.03339501953125,1.760337939673662,2.34735281521976,0.3563649124959483
2024-12-07 17:55:50.098368000,1.043367919921875,1.7101953138887882,2.9808196453392504,0.4097494793441146
2024-12-07 17:55:50.108341000,1.053341064453125,1.1905168485779314,2.9160271474331614,0.4603738972965627
2024-12-07 17:55:50.118315000,1.06331494140625,0.646314036732912,1.7606208482682704,0.5668671366609632
2024-12-07 17:55:50.128288000,1.0732880859375,0.3833960907518863,0.0645873307228088,0.7873983316808939
2024-12-07 17:55:50.138261000,1.083260986328125,0.0437619117718189,-1.2332342197328805,0.935891733841598
2024-12-07 17:55:50.148234000,1.09323388671875,-0.3753133220613002,-2.032944335976243,0.9849326819948852
2024-12-07 17:55:50.158207000,1.10320703125,-0.5696352862000466,-2.291163895007968,0.9002249387852848
2024-12-07 17:55:50.168180000,1.113179931640625,-0.4643348733494058,-1.9966654003709552,0.6784587951429187
2024-12-07 17:55:50.178154000,1.123154052734375,-0.3663350658357143,-1.3548510131448506,0.5273386246751993
2024-12-07 17:55:50.188127000,1.133126953125,-0.4513678397485986,-0.7327502111703157,0.3983812227094546
2024-12-07 17:55:50.198100000,1.143099853515625,-0.7180149988532066,-0.2405196516901254,0.2541924954727292
2024-12-07 17:55:50.208073000,1.153072998046875,-0.9415233099877832,0.1720838288456201,0.2176664897711947
2024-12-07 17:55:50.218046000,1.1630458984375,-0.8719172743201256,0.5404249738067388,0.3150128018122166
2024-12-07 17:55:50.228019000,1.17301904296875,-0.4389373972425237,0.8577654148489237,0.4793692878087982
2024-12-07 17:55:50.237992000,1.182991943359375,0.1117313226809725,0.8984580752432346,0.6997349535360932
2024-12-07 17:55:50.247966000,1.192966064453125,0.3682838618159293,0.6561170533448457,0.8832715389620512
2024-12-07 17:55:50.257939000,1.20293896484375,0.1898515407264232,0.2577034262031316,0.9673494598355143
2024-12-07 17:55:50.267912000,1.212911865234375,-0.1453857550015673,-0.1628185723721981,0.9276774477258324
2024-12-07 17:55:50.277885000,1.222885009765625,-0.6314496450781821,-0.395075422629714,0.8076431011997163
2024-12-07 17:55:50.287858000,1.23285791015625,-1.0733119533240794,-0.3138414930105209,0.6102184948705136
2024-12-07 17:55:50.297831200,1.2428310546875,-1.4163421314179896,-0.0911152721643447,0.3486156135434284
2024-12-07 17:55:50.307805200,1.25280517578125,-1.642617569178343,0.1232557927906513,0.0446584861522074
2024-12-07 17:55:50.317778400,1.2627783203125,-1.8130384332478044,0.2778524802625179,-0.1550690542239695
2024-12-07 17:55:50.327751400,1.27275146484375,-1.9253005383372304,0.2568500242441892,-0.2820740069476887
2024-12-07 17:55:50.337724200,1.28272412109375,-1.8772820650994777,0.2429372342258691,-0.4112373067490756
2024-12-07 17:55:50.347697200,1.292697265625,-1.5671008481621742,0.2834440166592598,-0.4994515237096696
2024-12-07 17:55:50.357670400,1.30267041015625,-1.1403881782531735,0.3261462633103132,-0.6541857930213213
2024-12-07 17:55:50.367644400,1.31264453125,-0.726224024271965,0.3636918578505516,-0.8113155061021446
2024-12-07 17:55:50.377617400,1.322617431640625,-0.409493824082613,0.3601052315354347,-0.7071993711326271
2024-12-07 17:55:50.387590400,1.33259033203125,-0.1333680032159201,0.3227396697372198,-0.6178698864065111
2024-12-07 17:55:50.397563100,1.342563232421875,0.0335877968251705,0.2341027703851461,-0.6064605305764824
2024-12-07 17:55:50.407536400,1.352536376953125,-0.0361667165356222,0.117182025834918,-0.5517594743022695
2024-12-07 17:55:50.417509400,1.36250927734375,-0.2026116718445904,-0.0503694202780723,-0.4677137021327391
2024-12-07 17:55:50.427482400,1.372482421875,-0.370513228303194,-0.1974877346932887,-0.4331395246187224
2024-12-07 17:55:50.437456400,1.382456298828125,-0.379952087777853,-0.3097966015338897,-0.4654786000244319
2024-12-07 17:55:50.447429400,1.392429443359375,-0.274344179880619,-0.3747375679999589,-0.4849309039913118
2024-12-07 17:55:50.457402000,1.402402099609375,-0.2116319953799247,-0.3788765675008296,-0.4475392944363877
2024-12-07 17:55:50.467375400,1.412375244140625,-0.2244540675520897,-0.375199924814701,-0.4345283851612359
2024-12-07 17:55:50.477348400,1.422348388671875,-0.312739084726572,-0.3473959720879793,-0.4115784483369439
2024-12-07 17:55:50.487321300,1.4323212890625,-0.4101736230403184,-0.3066653177708387,-0.3701731096286326
2024-12-07 17:55:50.497295400,1.44229541015625,-0.3747176942557096,-0.2228992393255233,-0.3352008361751213
2024-12-07 17:55:50.507268000,1.45226806640625,-0.2964356001794338,-0.1308031394302845,-0.2412535006563179
2024-12-07 17:55:50.517241300,1.462241455078125,-0.1837222441911697,-0.140218618029356,-0.1515999716076068
2024-12-07 17:55:50.527214300,1.47221435546875,-0.0936468182022683,-0.2046323457509279,-0.1253125243910588
2024-12-07 17:55:50.537187300,1.482187255859375,-0.0834036748737096,-0.1370055012017488,-0.1671622093333862
2024-12-07 17:55:50.547160300,1.492160400390625,-0.194150699225068,-0.0844020382612943,-0.2094028663546778
2024-12-07 17:55:50.557134300,1.50213427734375,-0.1996568954259157,-0.0471785152822732,-0.2162254241174087
2024-12-07 17:55:50.567107300,1.512107421875,-0.0949450230529531,0.0256780466139316,-0.1350968180362135
2024-12-07 17:55:50.577080300,1.522080322265625,0.0388391780147329,0.0606692804962396,-0.0955367875341791
2024-12-07 17:55:50.587053300,1.53205322265625,0.243478538028337,0.0042868835389614,-0.0893978098551277
2024-12-07 17:55:50.597026300,1.5420263671875,0.4661579605907201,-0.0798199711680412,-0.0846922259800601
2024-12-07 17:55:50.606999300,1.551999267578125,0.7120013645868748,-0.1969441293358802,-0.0901592500811442
2024-12-07 17:55:50.616973300,1.561973388671875,0.9196990161925552,-0.2840133409798145,-0.0255619824862107
2024-12-07 17:55:50.626946300,1.5719462890625,1.0418881295997648,-0.2946539774596691,0.0502168783311732
2024-12-07 17:55:50.636919300,1.581919189453125,1.102427646236494,-0.3162596600681543,0.0774465200349688
2024-12-07 17:55:50.646892300,1.591892333984375,1.0599047747403385,-0.2698223185420036,0.1128861552719026
2024-12-07 17:55:50.656865300,1.601865234375,1.009344142739102,-0.0830699128746986,0.0908509312728885
2024-12-07 17:55:50.666838500,1.611838623046875,0.9867495221585034,0.2069049668580293,0.0439511050678323
2024-12-07 17:55:50.676811300,1.621811279296875,1.0769956833381205,0.425176546382904,-0.0784886860316619
2024-12-07 17:55:50.686785300,1.631785400390625,1.2147533180814236,0.4568979648143053,-0.2710468553682789
2024-12-07 17:55:50.696758300,1.64175830078125,1.338915777388215,0.2322340539038181,-0.488803215380013
2024-12-07 17:55:50.706731300,1.651731201171875,1.3575240317463877,0.0747638568222522,-0.6993389399558305
2024-12-07 17:55:50.716704300,1.661704345703125,1.2280946648873388,0.0579448239684104,-0.8676342632386833
2024-12-07 17:55:50.726677500,1.671677490234375,1.0199030192196368,0.0947194341361522,-1.0072362837396562
2024-12-07 17:55:50.736650200,1.681650146484375,0.8651187002211809,0.157846629178524,-1.1850795528948306
2024-12-07 17:55:50.746624300,1.691624267578125,0.8594634509384632,0.2388590250015258,-1.4067204627223313
2024-12-07 17:55:50.756597200,1.70159716796875,0.9668861531727015,0.2798556367784738,-1.6415759511709211
2024-12-07 17:55:50.766570200,1.7115703125,1.1751526176422833,0.2857043628066778,-1.8047012514047325
2024-12-07 17:55:50.776543500,1.72154345703125,1.4017857827991247,0.3137421242892741,-1.8771083159677684
2024-12-07 17:55:50.786516200,1.73151611328125,1.5304916576892136,0.2999848170936107,-1.9002739413693543
2024-12-07 17:55:50.796489200,1.7414892578125,1.453497849857807,0.2376414659053087,-1.9312553550884128
2024-12-07 17:55:50.806463200,1.751463134765625,1.326573013165593,0.2395528524845838,-1.9819586834959684
2024-12-07 17:55:50.816436200,1.761436279296875,1.1880816573202608,0.385323259422183,-2.10289187855795
2024-12-07 17:55:50.826409200,1.7714091796875,1.0383079330254346,0.616722031545639,-2.3109242420107123
2024-12-07 17:55:50.836382500,1.781382568359375,0.8711416868377476,0.9203425747931004,-2.5541677657067776
2024-12-07 17:55:50.846355200,1.791355224609375,0.8008183697462081,1.2608686611115931,-2.763041986811161
2024-12-07 17:55:50.856328200,1.801328125,0.8222229768246412,1.7248761656701563,-2.911737341284752
2024-12-07 17:55:50.866301200,1.81130126953125,0.9345533979099244,2.2829466862827537,-2.9419281891480087
2024-12-07 17:55:50.876275200,1.821275146484375,1.1511251877795905,2.784321506205201,-2.704937880627811
2024-12-07 17:55:50.886248400,1.83124853515625,1.654770948308706,3.0478754120022056,-2.1765131412163377
2024-12-07 17:55:50.896221400,1.841221435546875,2.38267547301352,2.923954433301091,-1.4808778780840337
2024-12-07 17:55:50.906194200,1.851194091796875,3.226693517538905,2.570236272454262,-0.9114747932046652
2024-12-07 17:55:50.916167200,1.861167236328125,3.897822846576571,2.0457640700608493,-0.5508392541848123
2024-12-07 17:55:50.926140400,1.871140380859375,4.111727463063597,1.4968991846889257,-0.3933424978898838
2024-12-07 17:55:50.936114400,1.881114501953125,3.875558992320299,1.0511819545805454,-0.3719883423570543
2024-12-07 17:55:50.946087400,1.89108740234375,3.578080605089664,0.7875111444056033,-0.1758660507980734
2024-12-07 17:55:50.956060400,1.901060302734375,3.217404880189896,0.7549871774196625,0.7332619600847363
2024-12-07 17:55:50.966033200,1.911033203125,2.3532710993528365,0.8606628898561001,2.387697100567818
2024-12-07 17:55:50.976006100,1.921006103515625,0.9880314517278224,0.9499515311151744,3.9184833572894338
2024-12-07 17:55:50.985979400,1.9309794921875,-0.960234878589958,0.9365104502618312,4.637823175005615
2024-12-07 17:55:50.995953400,1.940953369140625,-3.218351805651188,0.4748153142988681,4.316774527095258
2024-12-07 17:55:51.005926400,1.950926513671875,-4.884869305855036,-0.1990232736974954,3.497561545741558
2024-12-07 17:55:51.015899400,1.9608994140625,-5.605590641057491,-0.8012561766415834,2.611750770625472
2024-12-07 17:55:51.025872100,1.9708720703125,-5.229696304237843,-0.8611468739807605,1.8153018481351435
2024-12-07 17:55:51.035845400,1.980845458984375,-3.447051840209961,-0.2706716288477182,1.006522728642821
2024-12-07 17:55:51.045818400,1.990818359375,-1.545228331311047,0.9119938486427068,0.6456744967203587
2024-12-07 17:55:51.055791400,2.000791259765625,-0.7278568861708045,2.056240455889702,0.7347174195900559
2024-12-07 17:55:51.065765400,2.010765380859375,-0.9774489021107554,2.5740993776232,1.3417904560416936
2024-12-07 17:55:51.075738000,2.020738037109375,-1.5113739925041794,2.545923084452748,1.6313210991382598
2024-12-07 17:55:51.085711400,2.03071142578125,-1.6788909518256785,2.2215841628253457,1.5071066904485224
2024-12-07 17:55:51.095684400,2.040684326171875,-1.689651853684336,1.615204661595821,0.7865578622687608
2024-12-07 17:55:51.105657300,2.0506572265625,-1.5984788599833846,0.890792070659995,0.4343879537772387
2024-12-07 17:55:51.115630300,2.06063037109375,-1.504078867059946,0.0634638796508312,0.4277734310083091
2024-12-07 17:55:51.125604400,2.070604248046875,-1.7975135318577289,-0.6373381185948849,0.2847264576852321
2024-12-07 17:55:51.135577000,2.0805771484375,-1.9501941565752028,-1.1857014841854572,0.2454407414793968
2024-12-07 17:55:51.145550300,2.09055029296875,-1.6419450767442585,-1.5186264478504656,0.4709292666457593
2024-12-07 17:55:51.155523300,2.1005234375,-1.062375694898516,-1.8073428519546983,0.4876451313860714
2024-12-07 17:55:51.165496300,2.110496337890625,-0.781601628100872,-2.0436247199445963,0.6689223205126822
2024-12-07 17:55:51.175469300,2.12046923828125,-0.7565501889526843,-2.2435604323118925,0.8495672030851245
2024-12-07 17:55:51.185443300,2.130443359375,-0.8314481935486197,-2.4662977590739725,0.9941384633660316
2024-12-07 17:55:51.195416300,2.140416259765625,-0.8781891941964626,-2.624938753500581,1.0121778317950665
2024-12-07 17:55:51.205389300,2.150389404296875,-0.8207951359786093,-2.8030700458168982,0.8697826003789901
2024-12-07 17:55:51.215362300,2.1603623046875,-0.6932349239923059,-2.8987703076839444,1.020402493174374
2024-12-07 17:55:51.225335300,2.170335205078125,-0.1306722065269947,-2.813309115758538,1.9100427634507413
2024-12-07 17:55:51.235308300,2.180308349609375,0.1804638269171118,-2.8389889159381387,2.6148715329945085
2024-12-07 17:55:51.245281300,2.19028125,0.0724326373957097,-2.971516979464889,2.918267327575385
2024-12-07 17:55:51.255255300,2.20025537109375,0.0948059433758258,-3.08747969263792,2.8245322283014653
2024-12-07 17:55:51.265228300,2.210228271484375,0.0901389744780957,-3.1372043852716684,2.161291752817481
2024-12-07 17:55:51.275201300,2.220201171875,0.102344960578531,-2.868300935140252,1.1158940807268023
2024-12-07 17:55:51.285174300,2.23017431640625,0.2579202838242054,-2.2603899865597485,-0.1180821895450353
2024-12-07 17:55:51.295147500,2.2401474609375,0.3918646438896656,-1.4801386040240525,-0.8934466768220066
2024-12-07 17:55:51.305120300,2.250120361328125,0.5119347923815251,-0.6119593471884727,-1.3392951320946216
2024-12-07 17:55:51.315094500,2.260094482421875,0.5320492135189473,0.1395616154253482,-1.821885172048211
2024-12-07 17:55:51.325067500,2.270067626953125,0.7238359600916504,0.8112094153791666,-2.3851148289896544
2024-12-07 17:55:51.335040500,2.28004052734375,1.1767732045814394,1.3171259703844784,-3.064127166362107
2024-12-07 17:55:51.345013500,2.290013427734375,1.5992181340433655,1.4871183799088,-3.720086106535792
2024-12-07 17:55:51.354986800,2.29998681640625,2.0195758819676937,1.3757880027115343,-3.9485669453859327
2024-12-07 17:55:51.364959500,2.30995947265625,2.590654791104793,1.121213522183895,-3.9266514661759135
2024-12-07 17:55:51.374932500,2.319932373046875,3.174636582565308,0.8674018427222967,-3.555389757592976
2024-12-07 17:55:51.384906500,2.329906494140625,3.76770301323533,0.8015221341013908,-2.745404623311758
2024-12-07 17:55:51.394879500,2.33987939453125,3.960888666820526,0.9708797528535128,-1.7618036283120513
2024-12-07 17:55:51.404852700,2.349852783203125,3.505376603406668,1.2604179947346448,-0.9019177872430532
2024-12-07 17:55:51.414825500,2.359825439453125,2.7850165027320384,1.502418824893236,-0.3168729696609079
2024-12-07 17:55:51.424798500,2.369798583984375,2.573220841223001,1.7183669299066069,0.0268841344680637
2024-12-07 17:55:51.434771500,2.379771484375,2.5835212859630583,1.650793276849389,0.223435611224547
2024-12-07 17:55:51.444745500,2.389745361328125,2.654925310963392,0.9815063608080148,0.2669580151520669
2024-12-07 17:55:51.454718500,2.399718505859375,2.527187404322624,-0.1161322245210409,0.2348120146330445
2024-12-07 17:55:51.464691700,2.409691650390625,1.8916870225489133,-0.8678829042375087,0.4529954044178128
2024-12-07 17:55:51.474664400,2.41966455078125,1.0288974959276616,-1.1739064169734716,0.9203165635690091
2024-12-07 17:55:51.484637400,2.429637451171875,0.1340551269635558,-1.169705458152294,1.515641148429364
2024-12-07 17:55:51.494610400,2.4396103515625,-0.925423531319201,-0.9565975450009108,2.1802450212210416
2024-12-07 17:55:51.504584400,2.44958447265625,-1.851410980131477,-0.3406558501780033,2.9037665085360405
2024-12-07 17:55:51.514557700,2.4595576171875,-2.0879555907107887,0.810048554906249,3.392487890851497
2024-12-07 17:55:51.524530700,2.46953076171875,-1.7969183424435555,2.2506395769178864,3.6010680974453684
2024-12-07 17:55:51.534503400,2.47950341796875,-1.599497535506636,3.630608080184459,3.498039100125432
2024-12-07 17:55:51.544476400,2.489476318359375,-1.8280546544633804,4.730490060526132,2.911879380103945
2024-12-07 17:55:51.554449700,2.49944970703125,-2.4065783266484737,4.726812833318114,2.068160903047025
2024-12-07 17:55:51.564423700,2.509423583984375,-2.565876908200979,2.7729461257100105,1.398556591619551
2024-12-07 17:55:51.574396700,2.519396728515625,-2.0717511826239523,0.0695692107886075,1.4400333881288767
2024-12-07 17:55:51.584369700,2.52936962890625,-1.0372693106926978,-1.7904402324706314,1.9370516202770167
2024-12-07 17:55:51.594342400,2.53934228515625,0.3358754840336739,-2.7874393459647893,2.5096850653797387
2024-12-07 17:55:51.604315400,2.5493154296875,1.094907406799495,-2.9761686046630142,2.977992020697892
2024-12-07 17:55:51.614288600,2.55928857421875,0.3241116887427866,-2.523563953128457,3.113858580997586
2024-12-07 17:55:51.624261600,2.56926171875,-0.950916649820283,-1.9442507380008696,2.798072383660078
2024-12-07 17:55:51.634235600,2.579235595703125,-1.8218600376069545,-1.4887246460616588,2.1488116259507835
2024-12-07 17:55:51.644208600,2.589208740234375,-2.315775043042749,-0.8804156380742788,1.4295128708973526
2024-12-07 17:55:51.654181400,2.599181396484375,-2.506640290856361,-0.1014747536152601,0.7927638042367995
2024-12-07 17:55:51.664154600,2.609154541015625,-2.55871417696476,0.5569155053585767,0.3122244497353211
2024-12-07 17:55:51.674127600,2.619127685546875,-2.652612942367792,0.8830570924937724,-0.0794919447900727
2024-12-07 17:55:51.684100600,2.6291005859375,-2.867290296792984,0.8981184680253267,-0.4551607657581567
2024-12-07 17:55:51.694074600,2.63907470703125,-3.052101213003694,0.6701800654888153,-0.778384419620037
2024-12-07 17:55:51.704047400,2.64904736328125,-3.012092735481262,0.4372936851561069,-0.910245105279237
2024-12-07 17:55:51.714020600,2.6590205078125,-2.819461208647489,0.1734142006665468,-0.7904293699398637
2024-12-07 17:55:51.723993600,2.66899365234375,-2.3850176522254944,-0.0772743783384561,-0.4674079606518149
2024-12-07 17:55:51.733966600,2.678966552734375,-1.8538275397539137,-0.2398158873349428,0.0040954891527071
2024-12-07 17:55:51.743939600,2.688939697265625,-1.3788918139457702,-0.3049631900280714,0.4502878624921664
2024-12-07 17:55:51.753913600,2.69891357421875,-1.0126491756338625,-0.2589905434042215,0.6460803010422737
2024-12-07 17:55:51.763886300,2.70888623046875,-0.6189198338508606,-0.1154115090310573,0.6606550621006637
2024-12-07 17:55:51.773859600,2.718859619140625,-0.1391466048836708,0.0558417142093181,0.6089690793313086
2024-12-07 17:55:51.783832600,2.72883251953125,0.3312509295055642,0.1145984390825033,0.4214992461096495
2024-12-07 17:55:51.793805600,2.7388056640625,0.5483528441965579,0.0493161118328571,0.0828168879617005
2024-12-07 17:55:51.803778600,2.748778564453125,0.4702021944802254,-0.1258586687654256,-0.4776766950793564
2024-12-07 17:55:51.813752600,2.758752685546875,0.2277542781412601,-0.3443967902719974,-1.01139508391954
2024-12-07 17:55:51.823725600,2.7687255859375,-0.0924807335649617,-0.4565700480341911,-1.3565620548464357
2024-12-07 17:55:51.833698600,2.778698486328125,-0.3397767292559147,-0.4970610483765602,-1.6205439767971634
2024-12-07 17:55:51.843671600,2.788671630859375,-0.5643441940546036,-0.5153308645606041,-1.707471003491431
2024-12-07 17:55:51.853644500,2.79864453125,-0.683280370080471,-0.4234381782829761,-1.5892406376473605
2024-12-07 17:55:51.863617500,2.808617431640625,-0.6915782428264617,-0.3287713511168956,-1.2963437329880891
2024-12-07 17:55:51.873591600,2.818591552734375,-0.5406418314278125,-0.2003565681278705,-1.0183628771055488
2024-12-07 17:55:51.883564500,2.828564453125,-0.2628746913611888,-0.1548965472012758,-0.8145129869692027
2024-12-07 17:55:51.893537500,2.83853759765625,0.1312275114553514,-0.2559112820893526,-0.5805860115423799
2024-12-07 17:55:51.903510500,2.848510498046875,0.4850631520688533,-0.5891811136692762,-0.3160507665578276
2024-12-07 17:55:51.913483500,2.8584833984375,0.7119505842477083,-0.950254313454032,-0.183219135240931
2024-12-07 17:55:51.923456800,2.868456787109375,0.9314701180070638,-1.0055839864879843,-0.1373485516189131
2024-12-07 17:55:51.933430500,2.878430419921875,1.0170862082332373,-0.4535083223760128,-0.109070889566373
2024-12-07 17:55:51.943403500,2.888403564453125,0.9855009834021328,0.4407593154400587,-0.0123034459923859
2024-12-07 17:55:51.953376500,2.89837646484375,0.8986205723285674,0.9557827214866876,0.1794439640837721
2024-12-07 17:55:51.963349500,2.908349609375,0.9062637805581092,0.8910656269043683,0.2506765597736463
2024-12-07 17:55:51.973322800,2.91832275390625,1.1328776564925909,0.4782797755390405,0.2010899056374095
2024-12-07 17:55:51.983295500,2.92829541015625,1.3295026368767022,-0.0141559511244297,0.1090412433467805
2024-12-07 17:55:51.993269500,2.93826953125,1.263660922178626,-0.4105377801775932,-0.0107321997789142
2024-12-07 17:55:52.003242500,2.948242431640625,0.9687491705656052,-0.5724754780620336,-0.1433460932669695
2024-12-07 17:55:52.013215500,2.958215576171875,0.5721971725773066,-0.6316553967833518,-0.243328114973288
2024-12-07 17:55:52.023188500,2.9681884765625,0.159952077025175,-0.6249357331395149,-0.3182423217853531
2024-12-07 17:55:52.033161700,2.97816162109375,-0.0885322699338197,-0.1549029769420623,-0.3187457412628456
2024-12-07 17:55:52.043134500,2.988134521484375,-0.0527349803656339,0.5121393750429153,-0.2294610820591449
2024-12-07 17:55:52.053108500,2.9981083984375,0.2306173394221812,0.8067500978827477,-0.1303488380578346
2024-12-07 17:55:52.063081500,3.00808154296875,0.7193261545170098,0.8298667695760726,-0.0312007190255448
2024-12-07 17:55:52.073054500,3.018054443359375,1.3069395074129104,0.6232189923495054,0.013233502517268
2024-12-07 17:55:52.083027700,3.02802783203125,1.822938480493426,0.224101016330719,-0.0357888870660215
2024-12-07 17:55:52.093000700,3.038000732421875,1.947249919816852,-0.0560650015711784,-0.2038334321918897
2024-12-07 17:55:52.102973400,3.047973388671875,1.6128198122859,-0.2467594228625297,-0.5175858404131606
2024-12-07 17:55:52.112947500,3.057947509765625,1.0052017822373658,-0.2550327456891537,-0.8015974643599242
2024-12-07 17:55:52.122920400,3.06792041015625,0.4825210663706064,-0.0675251377403736,-0.9923910351768136
2024-12-07 17:55:52.132893400,3.0778935546875,0.183168190504983,0.1489613119333982,-1.166985604734346
2024-12-07 17:55:52.142866700,3.08786669921875,0.0952301601372659,0.2493424250930547,-1.2666966366127133
2024-12-07 17:55:52.152839700,3.097839599609375,0.2313904426865279,0.1903320177197456,-1.334342770384252
2024-12-07 17:55:52.162812400,3.1078125,0.3849754688978195,0.1459153683662414,-1.4722614409081638
2024-12-07 17:55:52.172786400,3.117786376953125,0.5269100970648228,0.1322936702489852,-1.6878066642090677
2024-12-07 17:55:52.182759400,3.127759521484375,0.7201251959402114,0.1996241622000932,-1.8716373372107744
2024-12-07 17:55:52.192732700,3.137732666015625,0.9879939692616462,0.3662269292861223,-2.033059486788511
2024-12-07 17:55:52.202705700,3.14770556640625,1.2393348746955395,0.6709183166354894,-2.21574435075596
2024-12-07 17:55:52.212678700,3.1576787109375,1.4915215833038091,1.1086609146028756,-2.4009607790276406
2024-12-07 17:55:52.222651400,3.1676513671875,1.73529468383193,1.5140367819726466,-2.5450346111804247
2024-12-07 17:55:52.232625400,3.17762548828125,1.931259154480696,1.7078291692793368,-2.5651506397530435
2024-12-07 17:55:52.242598700,3.1875986328125,2.114182357248664,1.8319085534125563,-2.5892972390159965
2024-12-07 17:55:52.252571600,3.197571533203125,2.209142029881477,2.0378128187954423,-2.7487565640881657
2024-12-07 17:55:52.262544600,3.207544677734375,2.032395762182772,2.445757659870386,-2.943898904699087
2024-12-07 17:55:52.272517400,3.217517333984375,1.703597230798006,2.971496521198749,-3.150736359278857
2024-12-07 17:55:52.282490400,3.227490478515625,1.4799362133197485,3.371862451452017,-3.3435876663431525
2024-12-07 17:55:52.292464400,3.23746435546875,1.5431494792103766,3.475969891658425,-3.4159427084580063
2024-12-07 17:55:52.302437600,3.247437744140625,1.800800882965326,3.122165221571922,-3.130326900717616
2024-12-07 17:55:52.312410000,3.25741015625,2.2077222262114287,2.3814544067859647,-2.351208029343188
2024-12-07 17:55:52.322383000,3.267383056640625,2.745284796324372,1.558479150289297,-1.321082891316712
2024-12-07 17:55:52.332356000,3.277356201171875,3.3717624982088803,0.9091127402484416,-0.0662443406822159
2024-12-07 17:55:52.342329000,3.2873291015625,3.945530354169011,0.4405933112233877,1.2271072612851857
2024-12-07 17:55:52.352303000,3.29730322265625,3.974261358612776,0.1851934857875108,2.589872408555448
2024-12-07 17:55:52.362276000,3.307276123046875,2.932279778575897,-0.0118903442800045,3.741145261177421
2024-12-07 17:55:52.372249000,3.3172490234375,0.9081658147871494,-0.1708493186146021,4.293312695226073
2024-12-07 17:55:52.382221800,3.327221923828125,-1.3182102584898472,-0.3029267157644033,4.1088481082350015
2024-12-07 17:55:52.392195000,3.337195068359375,-3.2274270925104616,-0.5169862305521965,3.573285479767621
2024-12-07 17:55:52.402168000,3.34716796875,-4.366046507525444,-0.807504715642333,2.9047441213965413
2024-12-07 17:55:52.412142000,3.35714208984375,-4.779409866517782,-0.9026619566738604,1.941843238467723
2024-12-07 17:55:52.422115000,3.367114990234375,-4.811835633826256,-0.6523796203821897,1.1136235054463148
2024-12-07 17:55:52.432088000,3.377088134765625,-4.2254046956479545,0.0325496859490871,0.959813146046549
2024-12-07 17:55:52.442061000,3.38706103515625,-2.9539646639004347,0.9360469244033096,1.0788289631798862
2024-12-07 17:55:52.452034000,3.397033935546875,-1.6875880530223248,1.7393261313050985,1.322693833644688
2024-12-07 17:55:52.462008000,3.407008056640625,-0.7449658418819308,2.452700610876083,1.498349675758183
2024-12-07 17:55:52.471981000,3.41698095703125,0.0955345499113202,2.962103838953376,1.443658592888713
2024-12-07 17:55:52.481954000,3.4269541015625,0.7703004818856716,3.0949452062129974,1.38357324976027
2024-12-07 17:55:52.491927000,3.436927001953125,0.5727718306601047,2.6077298445463177,1.2478367455810309
2024-12-07 17:55:52.501900000,3.446900146484375,-0.2382815173745155,1.785136865365505,1.0012750372476875
2024-12-07 17:55:52.511873000,3.456873046875,-1.1648716082550583,0.8936544743537902,0.8607078980416059
2024-12-07 17:55:52.521847000,3.466846923828125,-1.6191501843512055,0.1398486156731843,0.5050343653433025
2024-12-07 17:55:52.531820000,3.476820068359375,-1.78169636952281,-0.5906839194476604,0.0628381489679217
2024-12-07 17:55:52.541793000,3.48679296875,-1.784080195919424,-1.1385352438628673,-0.1333303198203444
2024-12-07 17:55:52.551766300,3.496766357421875,-1.2039517188861966,-1.434616623777151,-0.0456574431948363
2024-12-07 17:55:52.561739000,3.506739013671875,-1.2360888785116373,-1.6062965479969975,0.2860566833756864
2024-12-07 17:55:52.571712000,3.5167119140625,-1.5669941729173062,-1.7489678198754786,0.5162018021762371
2024-12-07 17:55:52.581686000,3.52668603515625,-1.6153849865987897,-1.8737761028051376,0.4907610714495182
2024-12-07 17:55:52.591659000,3.536658935546875,-1.5964210506707428,-1.945987937057018,0.8347817218855023
2024-12-07 17:55:52.601632000,3.546632080078125,-1.589537136375904,-2.027283825996518,1.3366009245745838
2024-12-07 17:55:52.611605200,3.556605224609375,-1.5202014420822263,-2.115759981828928,2.015853646574169
2024-12-07 17:55:52.621578000,3.566577880859375,-1.2387982836008071,-2.23562087148428,2.602207866254449
2024-12-07 17:55:52.631551000,3.576551025390625,-1.0649097434207797,-2.457695934945345,3.071131199905276
2024-12-07 17:55:52.641525000,3.58652490234375,-1.04052860474959,-2.7333237248957154,3.423659274184704
2024-12-07 17:55:52.651498000,3.596498046875,-1.228573972836882,-3.130595196264982,3.607304361486434
2024-12-07 17:55:52.661471200,3.60647119140625,-1.4242460364103315,-3.515888645070791,3.629527299210429
2024-12-07 17:55:52.671444000,3.61644384765625,-1.3731167376756668,-3.5611779856055974,3.644041269992292
2024-12-07 17:55:52.681417000,3.6264169921875,-1.1330281708791852,-3.3821009368717667,3.4267204153209923
2024-12-07 17:55:52.691391000,3.636390869140625,-0.7525080739550292,-3.140270787104964,2.652132173113525
2024-12-07 17:55:52.701364000,3.646364013671875,-0.3286933174446225,-2.8837346511155366,1.2966206502333282
2024-12-07 17:55:52.711337200,3.656337158203125,0.1488636967778205,-2.495691026818752,0.0147919109404087
2024-12-07 17:55:52.721310200,3.666310302734375,0.8286740526601671,-1.7247691981643438,-0.9400690195262432
2024-12-07 17:55:52.731283000,3.676282958984375,1.3663804151579737,-0.7503747151881456,-1.7367384528994558
2024-12-07 17:55:52.741256000,3.686255859375,1.7044386500582098,0.4037444667756557,-2.348705691133439
2024-12-07 17:55:52.751230000,3.69622998046875,2.236405299860239,1.5308762730926275,-3.0932109297662973
2024-12-07 17:55:52.761203000,3.706202880859375,3.0970427630141377,2.27547532748878,-4.084812275870144
2024-12-07 17:55:52.771176200,3.71617626953125,3.8747476759374138,2.540041040676832,-5.115508784043788
2024-12-07 17:55:52.781149200,3.726149169921875,4.204057079453766,2.476948332425952,-5.695977014425397
2024-12-07 17:55:52.791122000,3.736121826171875,4.356945793963969,2.308513673737645,-5.503375298207998
2024-12-07 17:55:52.801096000,3.746095947265625,4.31144514876604,2.023021492376924,-4.4837481733202935
2024-12-07 17:55:52.811069000,3.75606884765625,3.48617242898196,1.672861900794506,-2.973325490191579
2024-12-07 17:55:52.821042200,3.766042236328125,2.3545500332474707,1.4764888493448496,-1.3975649502336978
2024-12-07 17:55:52.831015200,3.77601513671875,1.449492559739202,1.1592471925020218,-0.2776036931332201
2024-12-07 17:55:52.840988200,3.78598828125,0.890061126036942,0.5456313102781772,0.2716016031742095
2024-12-07 17:55:52.850961000,3.7959609375,0.8636497967123985,-0.2191477778375148,0.4720863277263939
2024-12-07 17:55:52.860935000,3.805934814453125,1.1674445274829863,-0.8008247994869947,0.5172549644909799
2024-12-07 17:55:52.870908000,3.815907958984375,1.1016844997189938,-0.8973778787910938,0.5321902294248342
2024-12-07 17:55:52.880881200,3.825881103515625,0.3575507247470319,-0.4390250389933586,0.6119068132836372
2024-12-07 17:55:52.890854100,3.835854248046875,-0.6128222476281225,0.3292804696828126,0.91297854883112
2024-12-07 17:55:52.900827100,3.8458271484375,-1.4538136378087103,1.2201724935859442,1.3720721970587968
2024-12-07 17:55:52.913295000,3.858295166015625,-2.0793813852414487,2.4677491269260643,1.946937492866814
2024-12-07 17:55:52.923268000,3.86826806640625,-2.162049147056043,3.9363381629318,2.545738667796552
2024-12-07 17:55:52.933241000,3.878240966796875,-1.8006103288292885,5.315689411082864,3.2024066330224272
2024-12-07 17:55:52.943213800,3.8882138671875,-1.3745944090127944,5.795236430078744,3.753690854495764
2024-12-07 17:55:52.953187000,3.89818701171875,-1.1500772130966186,3.829782160529494,3.804132755488157
2024-12-07 17:55:52.963160000,3.90816015625,-0.99510628548488,0.6058762278825044,3.4203339291542765
2024-12-07 17:55:52.973134000,3.918134033203125,-0.47834129646793,-1.514023337969184,3.4246997231483456
2024-12-07 17:55:52.983107000,3.928107177734375,-0.1120130987644195,-2.754056131801009,3.599056173101068
2024-12-07 17:55:52.993080000,3.938080078125,0.030425533401966,-3.306573694461584,3.73862830992043
2024-12-07 17:55:53.003053000,3.948052978515625,-0.3676924717940389,-3.3144390210092065,3.718851596304774
2024-12-07 17:55:53.013026000,3.958026123046875,-1.1462170305371284,-2.9743980878591536,3.55367564715147
2024-12-07 17:55:53.023000000,3.968,-1.7712803355790674,-2.4694407332748174,3.105124654921889
2024-12-07 17:55:53.032973000,3.97797314453125,-2.16256367244944,-1.776278436127305,2.543743110065162
2024-12-07 17:55:53.042946000,3.987946044921875,-2.4334607806161044,-0.7438876912564039,1.896466950301826
2024-12-07 17:55:53.052919000,3.9979189453125,-2.4891771148800848,0.36524259442389,1.112245641221851
2024-12-07 17:55:53.062892000,4.00789208984375,-2.450592971072346,1.184405599156022,0.4086958786379546
2024-12-07 17:55:53.072866000,4.017865966796875,-2.479276483112573,1.5380530328541993,-0.1088377931965515
2024-12-07 17:55:53.082839000,4.027839111328125,-2.7133704856693743,1.3687415913313628,-0.658649202170968
2024-12-07 17:55:53.092812000,4.03781201171875,-2.978763297331333,0.7322510294765233,-1.0397598123341798
2024-12-07 17:55:53.102785000,4.047784912109375,-3.0450504177093505,0.0442272642612457,-1.0604714687123895
2024-12-07 17:55:53.112758300,4.05775830078125,-2.9447967303216456,-0.3028372839152812,-0.7922492057781666
2024-12-07 17:55:53.122731000,4.06773095703125,-2.6888170591712,-0.3478016302794218,-0.4504682240277528
2024-12-07 17:55:53.132705000,4.077705078125,-2.2957224350951613,-0.1546650765329599,-0.1186052453047595
2024-12-07 17:55:53.142678000,4.087677978515625,-1.7456185094475745,0.1167798747748136,0.2809724206476472
2024-12-07 17:55:53.152651000,4.097651123046875,-1.088096850001812,0.3721896370828151,0.4555377093117684
2024-12-07 17:55:53.162624000,4.1076240234375,-0.5033914204418659,0.483292050743103,0.3011488559043034
2024-12-07 17:55:53.172597200,4.11759716796875,-0.012747253370285,0.3500912025213241,0.1480128886347636
2024-12-07 17:55:53.182571000,4.127571044921875,0.3895195055356249,0.1362760178834199,0.0832266378063708
2024-12-07 17:55:53.192544000,4.1375439453125,0.581732551229,-0.1451905612230301,-0.0829282393816858
2024-12-07 17:55:53.202517000,4.14751708984375,0.5713315321912988,-0.3630331016808748,-0.390055000651814
2024-12-07 17:55:53.212490000,4.157489990234375,0.4050947123408317,-0.4751654429107904,-0.701132253113389
2024-12-07 17:55:53.222463200,4.167463134765625,0.1626548879767768,-0.5581079300135374,-0.9101505588635802
2024-12-07 17:55:53.232436000,4.17743603515625,-0.0931131679832935,-0.6559960573136806,-1.1226502769887448
2024-12-07 17:55:53.242409000,4.187408935546875,-0.4025999729156494,-0.6738765819191932,-1.1873218519289046
2024-12-07 17:55:53.252382000,4.1973818359375,-0.583424157577753,-0.5126274508208036,-1.0900079443201425
2024-12-07 17:55:53.262355200,4.207355224609375,-0.5902759231686592,-0.3058966714859009,-0.982230729559809
2024-12-07 17:55:53.272329200,4.2173291015625,-0.5294955835133791,-0.1299269411176443,-0.7652282931879162
2024-12-07 17:55:53.282302200,4.22730224609375,-0.4559522083967924,-0.1169797812610864,-0.4541116220314055
2024-12-07 17:55:53.292275000,4.23727490234375,-0.3270388282358646,-0.1524322029143572,-0.181576391268894
2024-12-07 17:55:53.302248000,4.247248046875,-0.1685994938611984,-0.1622036553442478,-0.0323286088106222
2024-12-07 17:55:53.312221200,4.25722119140625,-0.0186076333036646,-0.176532040426135,0.0634557328769937
2024-12-07 17:55:53.322195200,4.2671953125,0.1532464053740724,-0.1134358250439167,0.108645302831754
2024-12-07 17:55:53.332168200,4.277168212890625,0.3268827243587002,-0.0097667762547731,0.1254514579377137
2024-12-07 17:55:53.342141200,4.28714111328125,0.5884522879380732,0.0342184959441423,0.035881606850773
2024-12-07 17:55:53.352114200,4.2971142578125,0.7274784082472324,-0.0002817395508289,0.0044720856464467
2024-12-07 17:55:53.362087200,4.307087158203125,0.8524468501746654,-0.0269376912862062,0.149969411263708
2024-12-07 17:55:53.372061200,4.317061279296875,1.1575152541428804,0.0038525837749242,0.3280513662792742
2024-12-07 17:55:53.382034200,4.3270341796875,1.4496552029550074,0.0067722706139087,0.4932236987033858
2024-12-07 17:55:53.392007200,4.337007080078125,1.6271546271085735,-0.0203764330744743,0.5995431524034589
2024-12-07 17:55:53.401980200,4.346980224609375,1.6944868726253508,-0.1393207924067974,0.6071593264956027
2024-12-07 17:55:53.411953200,4.356953125,1.6089473547667263,-0.2379033317118883,0.5138333560118451
2024-12-07 17:55:53.421927200,4.36692724609375,1.3406360253095626,-0.2873205658316612,0.2661133992877789
2024-12-07 17:55:53.431900200,4.376900146484375,1.0839585080880672,-0.1050648870617151,-0.0693719529171474
2024-12-07 17:55:53.441873200,4.386873046875,0.8207061425209045,0.2191203053086995,-0.4711239124350249
2024-12-07 17:55:53.451846100,4.39684619140625,0.4993805043000727,0.4907213239610195,-0.8569051447577773
2024-12-07 17:55:53.461819100,4.406819091796875,0.1002046606142073,0.5292676199764013,-1.210590060922131
2024-12-07 17:55:53.471792000,4.416792236328125,-0.2169382850944995,0.3577519464075565,-1.506751301139593
2024-12-07 17:55:53.481766100,4.42676611328125,-0.3490484154701233,0.1177338144987821,-1.7210484240755437
2024-12-07 17:55:53.491739400,4.436739501953125,-0.3104636140752583,-0.0212216517269611,-1.8707525172002613
2024-12-07 17:55:53.501712100,4.446712158203125,-0.2162538830269127,-0.024153613525629,-1.913787795197964
2024-12-07 17:55:53.511685000,4.45668505859375,-0.17195348046422,0.0582248099535703,-1.912087274890393
2024-12-07 17:55:53.521658000,4.466658203125,-0.145887165185064,0.187781748715043,-1.812328385282308
2024-12-07 17:55:53.531632000,4.476632080078125,0.1416783153183758,0.3410737833291292,-1.6268123895421622
2024-12-07 17:55:53.541605000,4.486605224609375,0.6894529943007975,0.3745037592440843,-1.3896657214164734
2024-12-07 17:55:53.551578400,4.496578369140625,1.213590338716656,0.3697223701864481,-1.1686808643449098
2024-12-07 17:55:53.561551000,4.506551025390625,1.5368763902902602,0.4016635688483714,-1.0146254441428928
2024-12-07 17:55:53.571525000,4.516525146484375,1.6847744569063186,0.5276332967728377,-1.0171217179380356
2024-12-07 17:55:53.581498000,4.526498046875,1.7864299739159644,0.5974737257182597,-1.0421454653616995
2024-12-07 17:55:53.591471000,4.53647119140625,1.9915426505297424,0.6353729560017586,-1.0950682233843951
2024-12-07 17:55:53.601444400,4.5464443359375,2.11950442905426,0.6789145760864019,-1.2212854232639074
2024-12-07 17:55:53.611417300,4.556417236328125,2.093726429197192,0.8293973984986543,-1.483701849463582
2024-12-07 17:55:53.621391000,4.56639111328125,1.9512078636623915,1.117470828524232,-1.916898766825348
2024-12-07 17:55:53.631364000,4.576364013671875,1.8627105189114808,1.402062846174836,-2.352513558983803
2024-12-07 17:55:53.641337000,4.586337158203125,1.860555971226096,1.5489555351406334,-2.678411400490999
2024-12-07 17:55:53.651310000,4.59631005859375,1.8415145861476656,1.6130986292272804,-2.9275621024042366
2024-12-07 17:55:53.661283300,4.606283447265625,1.7528163119971751,1.7460545627772808,-3.1368571792691946
2024-12-07 17:55:53.671257300,4.61625732421875,1.6824474752634764,1.931084966957569,-3.4314573807150124
2024-12-07 17:55:53.681230000,4.62622998046875,1.7482120330721138,2.0670377442359924,-3.666069269666075
2024-12-07 17:55:53.691203000,4.636203125,2.015819598174095,1.965067900580168,-3.6872593572109937
2024-12-07 17:55:53.701176000,4.646176025390625,2.547895261308551,1.5469389346212148,-3.14786840262711
2024-12-07 17:55:53.711149300,4.6561494140625,3.0809920841842886,1.039434818163514,-1.7711996715582907
2024-12-07 17:55:53.721123300,4.666123291015625,3.1428011823654174,0.6596364596426486,0.23885354510881
2024-12-07 17:55:53.731096300,4.676096435546875,2.6477076346695423,0.5999339783519506,2.2224607995294035
2024-12-07 17:55:53.741069000,4.686069091796875,1.820798545855284,0.6903899098247289,3.5662075042054053
2024-12-07 17:55:53.751042000,4.6960419921875,0.472221206152439,0.7674561983704566,3.9429724863797424
2024-12-07 17:55:53.761015300,4.706015380859375,-1.575914123084396,0.7318371879786253,3.677355802834034
2024-12-07 17:55:53.770989000,4.715989013671875,-3.7954350697696206,0.6030816287279128,3.301852511158585
2024-12-07 17:55:53.780962300,4.72596240234375,-5.36440989511013,0.4189484656482934,2.780945600031316
2024-12-07 17:55:53.790935300,4.735935302734375,-5.882416700881719,0.3087532299607992,2.1248269392512737
2024-12-07 17:55:53.800908000,4.745907958984375,-5.801838020300865,0.2683522459894418,1.5591235856726764
2024-12-07 17:55:53.810881000,4.755881103515625,-4.416198485660552,0.4750514611423015,0.9840789147097616
2024-12-07 17:55:53.820855000,4.76585498046875,-2.677799990594387,0.8107178324699401,0.6415669152710587
2024-12-07 17:55:53.830828300,4.775828369140625,-1.280077365580946,1.1887076802641152,0.5688617445442825
2024-12-07 17:55:53.840801300,4.78580126953125,-0.1530371830701828,1.52682436735332,0.6094803167890757
2024-12-07 17:55:53.850774300,4.795774169921875,0.9886185309007764,2.0651088220000267,0.8273707149766385
2024-12-07 17:55:53.860748300,4.805748291015625,1.683039595937729,2.4136954651772973,1.0434094208829103
2024-12-07 17:55:53.870721000,4.815720947265625,1.2946379519835114,2.3577976368665694,1.0115092848837377
2024-12-07 17:55:53.880694300,4.8256943359375,0.4117909951090812,1.8823551305800672,0.8245492278151214
2024-12-07 17:55:53.890667300,4.835667236328125,-0.3350020622000098,1.4126128817617891,0.7750934152506291
2024-12-07 17:55:53.900640300,4.84564013671875,-1.345348148523271,0.6876689604282379,0.6029315527327358
2024-12-07 17:55:53.910614300,4.8556142578125,-1.889478698849678,-0.0237362648963928,0.4747346502780914
2024-12-07 17:55:53.920587000,4.8655869140625,-1.9174080315217377,-0.5481313104003668,0.5404486469432711
2024-12-07 17:55:53.930560000,4.87556005859375,-2.0394760758325456,-0.9140274002969264,0.7125786530181765
2024-12-07 17:55:53.940533200,4.885533203125,-1.6438763370677827,-1.2231208219975231,0.91069182613343
2024-12-07 17:55:53.950506200,4.89550634765625,-1.3552937884762883,-1.473741011941433,0.9692577046096325
2024-12-07 17:55:53.960480300,4.905480224609375,-1.1600165694393216,-1.517284970113635,0.8641137609623372
2024-12-07 17:55:53.970453200,4.915453369140625,-1.0316998399972914,-1.476180221787095,1.028884490315616
2024-12-07 17:55:53.980426000,4.925426025390625,-1.1326736583530903,-1.317354518443346,1.4252800556331873
2024-12-07 17:55:53.990399200,4.935399169921875,-1.3969558784246443,-1.291014793050289,1.6575084104485809
2024-12-07 17:55:54.000372200,4.945372314453125,-1.713463083513081,-1.366215872246027,1.808720277787745
2024-12-07 17:55:54.010346200,4.95534619140625,-1.934854256363213,-1.5082307260423895,1.992444421675056
2024-12-07 17:55:54.020319200,4.9653193359375,-1.851086278221756,-1.754678014215827,2.7325942415773867
2024-12-07 17:55:54.030292200,4.975292236328125,-1.6844421562120315,-2.112913360226154,3.4971114638865
2024-12-07 17:55:54.040265000,4.985264892578125,-1.5647811730429528,-2.561199564039707,3.887960793253779
2024-12-07 17:55:54.050239000,4.995239013671875,-1.5374797630108892,-3.1241368139058348,3.91289357445836
2024-12-07 17:55:54.060212200,5.005212158203125,-1.4320178394556045,-3.666704060438275,3.699918347775936
2024-12-07 17:55:54.070185200,5.015185302734375,-1.1092015973508358,-3.830282511267066,3.306875600017607
2024-12-07 17:55:54.080158200,5.025158203125,-0.534728077339381,-3.4855981362253425,2.620751530943811
2024-12-07 17:55:54.090131200,5.035131103515625,-0.2438207390621304,-3.0058325060427187,1.5861965937763451
2024-12-07 17:55:54.100105200,5.045105224609375,-0.0732931997478008,-2.454613751021028,0.4866683953084051
2024-12-07 17:55:54.110078200,5.055078125,0.2443909401655197,-1.8436083435565231,-0.3192635180592537
2024-12-07 17:55:54.120051200,5.06505126953125,0.7289291915774345,-1.1807447385609149,-0.9481219776004552
2024-12-07 17:55:54.130024200,5.075024169921875,0.9136641199424862,-0.6157528942525387,-1.5275900910288094
2024-12-07 17:55:54.139997200,5.0849970703125,1.031924588663876,0.0144254157155752,-2.00095491425842
2024-12-07 17:55:54.149971200,5.09497119140625,1.5256348653078078,0.560287027618289,-2.4341711208425463
2024-12-07 17:55:54.159944200,5.104944091796875,2.0957567659810183,0.8756137907505035,-3.040086657822132
2024-12-07 17:55:54.169917200,5.114917236328125,2.3120354181230067,0.9943921458661557,-3.8146769458562138
2024-12-07 17:55:54.179890200,5.12489013671875,2.448530923976004,1.068584924802184,-4.473483676676452
2024-12-07 17:55:54.189864200,5.1348642578125,2.40857242307514,1.2162848384976386,-4.649684877713025
2024-12-07 17:55:54.199837200,5.144837158203125,2.344908783068508,1.4746978742748498,-4.241494537444413
2024-12-07 17:55:54.209810200,5.15481005859375,2.026737298029661,1.7775258058398962,-3.5882705751925705
2024-12-07 17:55:54.219783200,5.164783203125,1.9625309294484552,2.174427274852991,-2.944736524567008
2024-12-07 17:55:54.229756200,5.174756103515625,2.4504670066051184,2.519314478990436,-2.32687949764207
2024-12-07 17:55:54.239730200,5.184730224609375,2.9889304710805416,2.446180853718519,-1.829411329769343
2024-12-07 17:55:54.249703200,5.194703125,3.1013959897875782,1.4612714064687489,-1.5879048589989542
2024-12-07 17:55:54.259676200,5.20467626953125,2.843551693809032,-0.1205254910439252,-0.996900767686218
2024-12-07 17:55:54.269649200,5.214649169921875,2.088541135513782,-1.2566887450784443,-0.0209574478328227
2024-12-07 17:55:54.279623200,5.224623046875,1.045728511480242,-1.237425826203823,1.1420146104112268
2024-12-07 17:55:54.289596200,5.23459619140625,0.1224737025022506,-0.3294295227646827,2.195191684331745
2024-12-07 17:55:54.299569200,5.244569091796875,-0.7745417727172375,0.7352788528650999,2.863516623473167
2024-12-07 17:55:54.309542100,5.254542236328125,-1.7140202790044248,1.8401070574373009,3.307289441515505
2024-12-07 17:55:54.319516000,5.264515869140625,-2.661667186439037,3.077711162817478,3.731220079490542
2024-12-07 17:55:54.329490000,5.274489990234375,-2.4237293679356573,4.645701068773866,4.253865066456794
2024-12-07 17:55:54.339462700,5.284462646484375,-0.7474233180366456,6.6035132991373535,4.863278820815682
2024-12-07 17:55:54.349436000,5.294435791015625,1.0132663576841354,8.032983207675814,4.807902970552444
2024-12-07 17:55:54.359409000,5.304408935546875,1.2811338888965549,6.165100839084387,2.6046882848933337
2024-12-07 17:55:54.369383000,5.3143828125,0.2749706412158906,1.8408306955367328,0.5774449370376765
2024-12-07 17:55:54.379356000,5.32435595703125,-0.9448246896207332,-1.10374742359817,0.9058386870138346
2024-12-07 17:55:54.389329000,5.334328857421875,-1.4960313158132137,-2.8545769456923007,1.8259110665634275
2024-12-07 17:55:54.399302000,5.344302001953125,-1.5973323202967642,-3.9359892033636568,2.5129066577747463
2024-12-07 17:55:54.409275000,5.35427490234375,-1.4482500123322009,-4.619597490224242,2.8111779489487407
2024-12-07 17:55:54.419249000,5.364248779296875,-1.1710603798925876,-4.917398533537984,2.809743239970505
2024-12-07 17:55:54.429222000,5.374221923828125,-1.305758627065271,-4.454221634584665,2.7444375318452714
2024-12-07 17:55:54.439195000,5.38419482421875,-1.7852689673125743,-3.449993738880753,2.317547459542751
2024-12-07 17:55:54.449167600,5.394167724609375,-2.193568028652668,-2.052033067327738,1.841298020787537
2024-12-07 17:55:54.459141600,5.4041416015625,-2.35853866449222,-0.3845177882581949,1.2990582526437937
2024-12-07 17:55:54.469115000,5.414114990234375,-2.5223650987327098,1.0408025993853809,0.7570027550257742
2024-12-07 17:55:54.479087900,5.424087890625,-2.9389760613441465,2.074709594038129,0.3087106694607064
2024-12-07 17:55:54.489060900,5.434060791015625,-3.4692405834034084,2.4220243175834417,0.065673226263374
2024-12-07 17:55:54.499033900,5.444033935546875,-3.5699560430839656,1.8051088092923164,-0.2687236731177195
2024-12-07 17:55:54.509008000,5.4540078125,-3.1151053661882875,0.7603975120306015,-0.4679100649550556
2024-12-07 17:55:54.518980900,5.46398095703125,-2.7246564343154427,-0.0023369185149669,-0.3847133838955313
2024-12-07 17:55:54.528953900,5.473953857421875,-2.444016807552427,-0.4540583574742078,-0.4157479891065508
2024-12-07 17:55:54.538926800,5.4839267578125,-1.939274118632078,-0.5635480752408504,-0.5106197277275845
2024-12-07 17:55:54.548900900,5.49390087890625,-1.4093734614491462,-0.3755956461340188,-0.3030384690431877
2024-12-07 17:55:54.558873900,5.503873779296875,-0.719197998092696,-0.0309521876245737,0.0369987195135094
2024-12-07 17:55:54.568846800,5.513846923828125,0.2447019058108329,0.2855868739068508,0.1818086291221901
2024-12-07 17:55:54.578819800,5.52381982421875,1.1367395195525138,0.3830219967424869,0.2969883386913687
2024-12-07 17:55:54.588792800,5.533792724609375,1.7099954074025152,0.2188216146230697,0.375612670334056
2024-12-07 17:55:54.598766800,5.543766845703125,1.8115934951364991,-0.0546720859080553,0.2717652693033218
2024-12-07 17:55:54.608739800,5.55373974609375,1.437934370023012,-0.2286193705379962,0.1346966032048687
2024-12-07 17:55:54.618712800,5.563712890625,0.7266928108274936,-0.3408738768428563,0.0175919534550979
2024-12-07 17:55:54.628685800,5.573685791015625,-0.0406979576239362,-0.3889017024308442,-0.1588619437009096
2024-12-07 17:55:54.638659800,5.583659912109375,-0.7059189759332686,-0.2955348519474268,-0.3457753851488232
2024-12-07 17:55:54.648632800,5.5936328125,-1.160598607110977,-0.2196791082352399,-0.5306547634858638
2024-12-07 17:55:54.658605800,5.603605712890625,-1.3600140949964523,-0.2028893014758825,-0.7468743058517575
2024-12-07 17:55:54.668578800,5.613578857421875,-1.3739935205101963,-0.252215934702754,-0.8506362936213612
2024-12-07 17:55:54.678551800,5.6235517578125,-1.318958446508646,-0.342976402080059,-0.8152790759708732
2024-12-07 17:55:54.688525800,5.63352587890625,-1.348123750716448,-0.3989309290140867,-0.9160666510395704
2024-12-07 17:55:54.698498800,5.643498779296875,-1.4023264655470846,-0.4427735778719187,-0.9455230471484364
2024-12-07 17:55:54.708471800,5.653471923828125,-1.2921183703780172,-0.5204360787451267,-0.7619188763789833
2024-12-07 17:55:54.718444800,5.66344482421875,-1.0462111804306506,-0.5738859293818473,-0.5917229071065783
2024-12-07 17:55:54.728418800,5.673418701171875,-0.6335656143188476,-0.4269868106752634,-0.3598073811000213
2024-12-07 17:55:54.738391800,5.683391845703125,-0.0603331621433608,-0.1537485462099313,-0.1820306013097986
2024-12-07 17:55:54.748364800,5.69336474609375,0.5161006798893213,0.100943423217535,0.0006458601554855
2024-12-07 17:55:54.758337800,5.703337890625,1.0872475396960972,0.333694194471836,0.2917660739984363
2024-12-07 17:55:54.768311800,5.713311767578125,1.6786556817650795,0.5864484738349914,0.5473700437042862
2024-12-07 17:55:54.778284800,5.723284912109375,2.09027950361371,0.7503928353667259,0.6962626012504101
2024-12-07 17:55:54.788257800,5.7332578125,2.216313528946042,0.6329378378093242,0.8131663946658373
2024-12-07 17:55:54.798230800,5.743230712890625,2.227270976290107,0.3280740165024995,0.8893459635049105
2024-12-07 17:55:54.808204000,5.7532041015625,2.2164263416707515,-0.0218342306673526,0.7987059807021171
2024-12-07 17:55:54.818178000,5.763177978515625,1.997168673717976,-0.2921370262026787,0.5575856231724843
2024-12-07 17:55:54.828150800,5.77315087890625,1.5934873353064058,-0.4398521374672651,0.1653237235935404
2024-12-07 17:55:54.838123800,5.783123779296875,1.074654088648036,-0.4585100761860609,-0.2089888604599982
2024-12-07 17:55:54.848096800,5.7930966796875,0.6753782186537981,-0.3510287756323814,-0.5828484035164118
2024-12-07 17:55:54.858070800,5.80307080078125,0.4945313107032328,-0.1864694970726966,-0.9757271928846836
2024-12-07 17:55:54.868043800,5.813043701171875,0.4045225384760648,-0.0458440518081188,-1.3465648308366536
2024-12-07 17:55:54.878017000,5.82301708984375,0.3203999016780406,0.0110007019639015,-1.6888552964791654
2024-12-07 17:55:54.887989800,5.83298974609375,0.2040121680259704,0.0700543639570474,-1.9181871992006896
2024-12-07 17:55:54.897963800,5.8429638671875,0.0963643517989665,0.1369359430968761,-2.0366303310126064
2024-12-07 17:55:54.907936800,5.852936767578125,0.0358071533750742,0.1011164416968822,-2.0465720254428685
2024-12-07 17:55:54.917909800,5.86290966796875,0.0955634837448596,0.0083101477056741,-1.9967631616570056
2024-12-07 17:55:54.927883000,5.872883056640625,0.2145605231124907,-0.1249444765299558,-1.918959937138856
2024-12-07 17:55:54.937856000,5.88285595703125,0.3364052800614386,-0.2217418859839439,-1.7687058089159429
2024-12-07 17:55:54.947830000,5.892830078125,0.4986989517766982,-0.199842773386836,-1.5906351607456803
2024-12-07 17:55:54.957802800,5.902802734375,0.6167413207679987,-0.1372428170889616,-1.4031871740296482
2024-12-07 17:55:54.967775700,5.912775634765625,0.6298544848412275,-0.0502355647653341,-1.2398361022159456
2024-12-07 17:55:54.977749000,5.9227490234375,0.604034399408102,0.1460007085621356,-1.0486335852719844
2024-12-07 17:55:54.987722800,5.93272265625,0.6477531296253204,0.366346756273508,-0.9197051536723972
2024-12-07 17:55:54.997696000,5.942696044921875,0.826648976573348,0.5792571010261773,-0.8783155970551073
2024-12-07 17:55:55.007668700,5.952668701171875,1.1220249116320162,0.729601391750574,-0.8705965471103787
2024-12-07 17:55:55.017641700,5.962641845703125,1.363705935251713,0.8082593334019184,-0.9242246769234538
2024-12-07 17:55:55.027615700,5.97261572265625,1.4663561623871326,0.8913760080277919,-1.013109925013408
2024-12-07 17:55:55.037588700,5.982588623046875,1.418626881354302,1.027830889609456,-1.1753329426452517
2024-12-07 17:55:55.047562000,5.99256201171875,1.3492501243978738,1.2968033133238552,-1.4594916834451257
2024-12-07 17:55:55.057535000,6.002534912109375,1.2410662285327911,1.666228161868453,-1.8620207830816504
2024-12-07 17:55:55.067507700,6.0125078125,1.0670523084074257,2.128692528638243,-2.36005754462257
2024-12-07 17:55:55.077481700,6.022481689453125,0.9117851743280888,2.59746914729476,-2.826286378492415
2024-12-07 17:55:55.087454700,6.032454833984375,0.8864011422246694,2.916929064708948,-3.2302450725406406
2024-12-07 17:55:55.097428000,6.042427978515625,1.1858902116905896,2.8476714040875435,-3.383085271733999
2024-12-07 17:55:55.107401000,6.05240087890625,1.767296672770381,2.2615561077296733,-3.095676443096995
2024-12-07 17:55:55.117375000,6.062375,2.39283972415328,1.4516267952889204,-2.347612781330198
2024-12-07 17:55:55.127348000,6.072347900390625,2.891304794108867,0.6582213321477174,-1.3569877329126
2024-12-07 17:55:55.137320700,6.08232080078125,3.2041724736511705,0.1121300031423568,-0.2282424269843846
2024-12-07 17:55:55.147293700,6.092293701171875,3.215272544336319,-0.1193307283014059,1.0422840701147913
2024-12-07 17:55:55.157267700,6.102267822265625,2.654365338993072,-0.1755453674763441,2.389149199072272
2024-12-07 17:55:55.167241000,6.112240966796875,1.7282126166164875,-0.2264794358998537,3.4312262023076414
2024-12-07 17:55:55.177214000,6.1222138671875,0.9105402157682924,-0.1429091722875833,4.076189408953487
2024-12-07 17:55:55.187187000,6.13218701171875,-0.2184043390590697,-0.0400356577903032,4.050127039197087
2024-12-07 17:55:55.197161000,6.142160888671875,-1.58361841385141,0.0359521878689527,3.2534351017311214
2024-12-07 17:55:55.207133700,6.1521337890625,-2.933128504359722,0.2152361573517322,2.661579800416529
2024-12-07 17:55:55.217107000,6.16210693359375,-3.66514747864604,0.418397261506319,2.282029571437836
2024-12-07 17:55:55.227080000,6.172079833984375,-4.325934277367591,0.7389800454705954,2.0177154949232934
2024-12-07 17:55:55.237053000,6.182052978515625,-4.324606243634224,1.3477555019259453,1.867563950292021
2024-12-07 17:55:55.247027000,6.19202685546875,-3.380620050664246,1.9177362405627965,1.575432769308239
2024-12-07 17:55:55.256999700,6.201999755859375,-2.3977909168198703,2.181008406808972,1.165328996633738
2024-12-07 17:55:55.266972700,6.21197265625,-1.4311986320272088,2.2619909920156003,0.7434551450580358
2024-12-07 17:55:55.276946000,6.22194580078125,-0.9598388650096952,2.200883904623985,0.4348591880181804
2024-12-07 17:55:55.286920000,6.231919921875,-0.4752328090585768,2.039082400339842,0.2495391897741705
2024-12-07 17:55:55.296893000,6.241892822265625,0.1024127651177346,1.8617559946656224,0.3076100512750446
2024-12-07 17:55:55.306866000,6.251865966796875,0.0407747857198119,1.5968191100776197,0.4021764137413352
2024-12-07 17:55:55.316838400,6.26183837890625,-0.4686263965308666,1.2218483178436756,0.5350370702233165
2024-12-07 17:55:55.326812400,6.2718125,-0.9409493094921112,0.8817495170265436,0.7300707628279924
2024-12-07 17:55:55.336785400,6.281785400390625,-1.4201526296168565,0.3063666270852089,0.8989118103601038
2024-12-07 17:55:55.346758400,6.29175830078125,-1.92540429097265,-0.3457464513152837,0.925387510157749
2024-12-07 17:55:55.356731400,6.3017314453125,-2.230281556282937,-0.8033096020400524,1.1902983104564249
2024-12-07 17:55:55.366705400,6.311705322265625,-2.0273338026180863,-1.143017357712984,1.5423168277785182
2024-12-07 17:55:55.376678400,6.321678466796875,-1.7722639397889377,-1.3591945953071116,1.8161514507018028
2024-12-07 17:55:55.386651400,6.3316513671875,-1.5353370518937706,-1.503320157647133,1.9128996141865848
2024-12-07 17:55:55.396624400,6.341624267578125,-1.2985004726305602,-1.6995172680079935,1.9579475471809504
2024-12-07 17:55:55.406598400,6.351598388671875,-1.2138923904031511,-1.8925176281541585,2.014517429534345
2024-12-07 17:55:55.416571400,6.3615712890625,-1.34431500608325,-2.0549638600826263,1.84524164384678
2024-12-07 17:55:55.426544400,6.37154443359375,-1.4303148349300026,-2.162342284783721,1.7761871045820414
2024-12-07 17:55:55.436517400,6.381517333984375,-1.5699804952517151,-2.2290911774545905,1.853960372353345
2024-12-07 17:55:55.446490600,6.39149072265625,-1.6877888362914322,-2.303834576010704,1.947969904654473
2024-12-07 17:55:55.456464600,6.401464599609375,-1.6446166340410708,-2.421626842698455,2.1943074488431216
2024-12-07 17:55:55.466437400,6.411437255859375,-1.655879201811552,-2.5675831275969743,2.867474421188235
2024-12-07 17:55:55.476410400,6.421410400390625,-1.680730442212522,-2.852944376054406,3.4665859772413965
2024-12-07 17:55:55.486383400,6.43138330078125,-1.5322401087917386,-3.2393425712317225,3.5920951019167897
2024-12-07 17:55:55.496357400,6.441357421875,-1.28998720356822,-3.389187095740437,3.4751910162404176
2024-12-07 17:55:55.506330400,6.451330322265625,-0.6922048502922058,-3.130734312474728,3.0822417919844387
2024-12-07 17:55:55.516303600,6.4613037109375,-0.1629506743192672,-2.928624178677797,2.220587114612013
2024-12-07 17:55:55.526276400,6.4712763671875,0.0860379689000546,-2.826821508282423,1.356711546319723
2024-12-07 17:55:55.536250400,6.48125048828125,0.646311260253936,-2.5119179389983413,0.7067236433796584
2024-12-07 17:55:55.546223400,6.491223388671875,1.312289051747322,-2.047266875839233,0.030169732009992
2024-12-07 17:55:55.556196400,6.5011962890625,1.8950261038437484,-1.4160720823049544,-0.7704193590249866
2024-12-07 17:55:55.566169600,6.511169677734375,2.421435996301472,-0.4313999509423971,-1.5347370401740072
2024-12-07 17:55:55.576143600,6.5211435546875,2.951402996718884,0.772455614092946,-2.46854173860848
2024-12-07 17:55:55.586116400,6.531116455078125,3.4165108637347816,1.8351421285063028,-3.7126451428800817
2024-12-07 17:55:55.596089300,6.54108935546875,3.671495386368036,2.707537541732192,-5.143152577772736
2024-12-07 17:55:55.606062300,6.551062255859375,3.957062094269693,3.308790785989165,-6.280978212061524
2024-12-07 17:55:55.616036400,6.561036376953125,4.23262091063708,3.848717162624001,-6.880351633921265
2024-12-07 17:55:55.626009300,6.57100927734375,4.316007926636934,4.070179062622786,-6.580124824765324
2024-12-07 17:55:55.635982600,6.580982666015625,4.277522128637135,3.955465472728014,-5.18960160973668
2024-12-07 17:55:55.645955300,6.590955322265625,3.3235052477791904,3.167941468840837,-3.590563362304866
2024-12-07 17:55:55.655929300,6.600929443359375,1.8490780071392656,1.4420610945641994,-2.536221482388675
2024-12-07 17:55:55.665902300,6.61090234375,1.102706243982166,-0.7156564530283213,-1.3818211453959346
2024-12-07 17:55:55.675875300,6.620875244140625,0.8185876890622079,-2.486696403980255,-0.0016873685650527
2024-12-07 17:55:55.685848600,6.6308486328125,0.4703437218427658,-3.5515701993048188,1.1958401624925434
2024-12-07 17:55:55.695822600,6.640822509765625,0.043680151772499,-3.674195877498388,2.1527726385362445
2024-12-07 17:55:55.705795600,6.650795654296875,-0.5086906958937645,-2.599545953568816,3.023934856705367
2024-12-07 17:55:55.715768300,6.660768310546875,-1.04626364127025,-0.3615016543298959,3.723457628795504
2024-12-07 17:55:55.725741300,6.6707412109375,-1.4806709573350847,2.13832252677083,4.00030648497343
2024-12-07 17:55:55.735715300,6.68071533203125,-2.081228912804276,3.8614959801763296,3.961975585274398
2024-12-07 17:55:55.745688300,6.690688232421875,-2.404074088742584,5.541132489672303,3.937256446820497
2024-12-07 17:55:55.755661600,6.70066162109375,-1.5309027227081358,7.481077639433741,3.98932214962244
2024-12-07 17:55:55.765634600,6.710634521484375,-0.1019954164884984,8.323814411976933,3.2081586206778883
2024-12-07 17:55:55.775607300,6.720607177734375,0.5663058495163917,5.547502609226108,0.70296041838862
2024-12-07 17:55:55.785581300,6.730581298828125,0.877945010177046,1.5997925729304552,-0.6995051633682101
2024-12-07 17:55:55.795554300,6.74055419921875,0.9319279447771608,-1.1829314349502325,-0.3950941273301839
2024-12-07 17:55:55.805527600,6.750527587890625,0.3397662078619003,-3.0124463712245224,0.907450725320354
2024-12-07 17:55:55.815500500,6.76050048828125,-0.8858475999951362,-3.5957547934681173,2.2026856933489443
2024-12-07 17:55:55.825474600,6.770474609375,-2.0138532665371893,-3.774848208814859,2.9096155268251893
2024-12-07 17:55:55.835447300,6.780447265625,-2.5713129617750643,-3.972604239055514,3.2225799447402355
2024-12-07 17:55:55.845420300,6.790420166015625,-2.714810747605562,-4.028299238270521,3.1099194879829883
2024-12-07 17:55:55.855393500,6.8003935546875,-2.4555647681355475,-3.6973137182354927,2.8516023137956856
2024-12-07 17:55:55.865367300,6.8103671875,-2.049921628131717,-2.21767955660224,2.413731705534458
2024-12-07 17:55:55.875340500,6.820340576171875,-1.9121267301179468,-0.457204254284501,1.708545939246565
2024-12-07 17:55:55.885313500,6.8303134765625,-2.0113376304544506,0.6995458607047795,0.9421115582045168
2024-12-07 17:55:55.895286300,6.840286376953125,-2.345987956607342,1.486189574626088,0.4247320540184154
2024-12-07 17:55:55.905260300,6.85026025390625,-2.787079865002632,1.9331600196659564,0.1553025159199722
2024-12-07 17:55:55.915233300,6.8602333984375,-3.007077245406806,2.0523311734914778,-0.0036666875476948
2024-12-07 17:55:55.925206500,6.87020654296875,-2.7663831139326094,1.5551584814339876,-0.2385126592492684
2024-12-07 17:55:55.935179500,6.880179443359375,-1.9327415019929408,0.7647153752297162,-0.2804492004911415
2024-12-07 17:55:55.945153500,6.890153564453125,-0.9963478830438106,0.0736368986189365,-0.1255717963817529
2024-12-07 17:55:55.955126500,6.90012646484375,-0.2240927599590271,-0.5060521640837192,0.0193912762283347
2024-12-07 17:55:55.965099300,6.910099365234375,0.2198878556150943,-0.7341419577896594,0.2692265994048677
2024-12-07 17:55:55.975072300,6.920072265625,0.3384603859603405,-0.6514630900591611,0.5319328205976634
2024-12-07 17:55:55.985046300,6.93004638671875,0.2191605642538517,-0.4200082038342952,0.6931366512496024
2024-12-07 17:55:55.995019500,6.94001953125,-0.2047158593159168,-0.121907885313034,0.6471390163149684
2024-12-07 17:55:56.004992500,6.949992431640625,-0.7899603641886264,0.0788759683161973,0.1831238947055302
2024-12-07 17:55:56.014965500,6.959965576171875,-1.2626993836700915,0.2172539269149303,-0.4577365345302969
2024-12-07 17:55:56.024939500,6.969939453125,-1.411910286450386,0.2601975811064243,-1.0007238331057131
2024-12-07 17:55:56.034912300,6.979912353515625,-1.3525474123775958,0.1129050791680812,-1.337953362096846
2024-12-07 17:55:56.044885500,6.989885498046875,-1.304390991973877,-0.1311246264696121,-1.4858198645308611
2024-12-07 17:55:56.054858500,6.9998583984375,-1.2860861044764518,-0.3658312079668044,-1.5146429311722516
2024-12-07 17:55:56.064832500,7.00983251953125,-1.2573171061098576,-0.5281985294401645,-1.542547567794472
2024-12-07 17:55:56.074805500,7.019805419921875,-1.169323180836439,-0.6017331367284059,-1.562985229536891
2024-12-07 17:55:56.084778200,7.0297783203125,-1.039599068814516,-0.6091840372562408,-1.4148273429408669
2024-12-07 17:55:56.094751200,7.039751220703125,-0.736054513412714,-0.5630225900620222,-1.0403697609260678
2024-12-07 17:55:56.104725200,7.049725341796875,-0.2495511359402909,-0.3904629603981971,-0.6555324583899229
2024-12-07 17:55:56.114698500,7.059698486328125,0.1321977903927676,-0.2584405083060264,-0.2592422166103497
2024-12-07 17:55:56.124671500,7.06967138671875,0.4145920240044594,-0.0799058958858251,0.1747686657491139
2024-12-07 17:55:56.134644500,7.07964453125,0.5751484966635704,0.0078343468874692,0.574353693024069
2024-12-07 17:55:56.144618500,7.089618408203125,0.6904489465355873,-0.119638186815381,0.8348558100350201
2024-12-07 17:55:56.154591200,7.09959130859375,0.8354612285822629,-0.3749982647627591,0.941341596745327
2024-12-07 17:55:56.164564500,7.109564453125,0.8984960691660642,-0.5212783747881651,0.8692949629925191
2024-12-07 17:55:56.174537500,7.119537353515625,0.8190741574048995,-0.4498813640505075,0.6670367990270256
2024-12-07 17:55:56.184511500,7.129511474609375,0.6831418383926153,-0.228006207075715,0.3668921882618218
2024-12-07 17:55:56.194484500,7.139484375,0.5307505520105361,0.2560159115076065,0.1303600992373656
2024-12-07 17:55:56.204457500,7.14945751953125,0.3937865883955732,0.8833499379605054,-0.0908437526134308
2024-12-07 17:55:56.214430200,7.15943017578125,0.3641729193657636,1.1837129407167435,-0.3163827749911695
2024-12-07 17:55:56.224404200,7.169404296875,0.4793032368352636,1.0823445700854062,-0.5097573752772063
2024-12-07 17:55:56.234377500,7.17937744140625,0.6854033535838127,0.6144266140848398,-0.6119263217017055
2024-12-07 17:55:56.244350500,7.1893505859375,0.9789870714634656,0.06721475661695,-0.5306223955862224
2024-12-07 17:55:56.254323500,7.199323486328125,1.203904080352187,-0.2778133172959089,-0.335968715275079
2024-12-07 17:55:56.264297500,7.20929736328125,1.321582949793339,-0.4063490963160991,-0.1082067561508622
2024-12-07 17:55:56.274270500,7.2192705078125,1.3329390410661697,-0.3402227194577455,0.0561071967450901
2024-12-07 17:55:56.284243500,7.229243408203125,1.3434902456969022,-0.144368138924241,0.0694826284836977
2024-12-07 17:55:56.294216400,7.239216552734375,1.3771791648089884,0.1207850187629461,-0.0668642261462286
2024-12-07 17:55:56.304190500,7.2491904296875,1.403560975778103,0.4247404930531978,-0.3398313089873641
2024-12-07 17:55:56.314163200,7.2591630859375,1.276001932835579,0.6576625292211771,-0.7187771423321216
2024-12-07 17:55:56.324136000,7.269135986328125,1.0445172359943389,0.7159744329363107,-1.0854071725264192
2024-12-07 17:55:56.334109200,7.279109130859375,0.7737059064149856,0.6463578758746386,-1.4513060389019548
2024-12-07 17:55:56.344083000,7.2890830078125,0.5409552082259208,0.4757148934870958,-1.8029538232155145
2024-12-07 17:55:56.354056200,7.29905615234375,0.4842934098053723,0.270616099268198,-2.010366593465209
2024-12-07 17:55:56.364029200,7.309029296875,0.6270839241493493,0.1457663152843713,-2.0383431262798606
2024-12-07 17:55:56.374002000,7.319001953125,0.8117080125510692,0.0495323849320411,-1.8624308251872657
2024-12-07 17:55:56.383976000,7.328975830078125,0.91128380067721,-0.0213303727984428,-1.544767728061974
2024-12-07 17:55:56.393949000,7.338948974609375,0.9600345337122678,-0.0340998380005359,-1.2395982018068432
2024-12-07 17:55:56.403922200,7.348922119140625,0.9594681320011617,0.020572832429409,-1.0402171276476233
2024-12-07 17:55:56.413895200,7.358895263671875,0.9350099825710058,0.1170470012784004,-0.9523930790483952
2024-12-07 17:55:56.423869200,7.368869140625,0.817806913948059,0.151373049250245,-1.0187497575312852
2024-12-07 17:55:56.433842200,7.37884228515625,0.5709077903538942,0.2116366715550422,-1.079268377510458
2024-12-07 17:55:56.443815000,7.38881494140625,0.3616080007812008,0.4518225612461566,-1.081073234975338
2024-12-07 17:55:56.453788200,7.3987880859375,0.3322907574146986,0.8323509876072406,-1.0124052108101549
2024-12-07 17:55:56.463762000,7.408761962890625,0.4895704368928447,1.1570762782037258,-0.9753058256674556
2024-12-07 17:55:56.473735200,7.418735107421875,0.8109241686969995,1.3259534199625254,-1.040267615725845
2024-12-07 17:55:56.483708200,7.428708251953125,1.121006601434946,1.4299924711078404,-1.1973872458040713
2024-12-07 17:55:56.493681200,7.43868115234375,1.2571347352802753,1.5912842723041771,-1.4211951244071126
2024-12-07 17:55:56.503655200,7.4486552734375,1.1346347292929888,1.795902589529753,-1.6276362731456755
2024-12-07 17:55:56.513628000,7.4586279296875,0.7503168475210666,1.936484780174493,-1.781662467253208
2024-12-07 17:55:56.523601200,7.46860107421875,0.3802525320291519,1.9648469513058664,-1.875041008174419
2024-12-07 17:55:56.533574100,7.47857421875,0.3560439369132742,1.695541934636235,-1.7494810300946235
2024-12-07 17:55:56.543548200,7.488548095703125,0.6483481729090214,1.1222697532385586,-1.4158655999474226
2024-12-07 17:55:56.553521200,7.498521240234375,1.0164929185152054,0.564895398196578,-0.8455184391509741
2024-12-07 17:55:56.563494100,7.508494140625,1.3468015622019769,0.2272077501744031,-0.0611167685354128
2024-12-07 17:55:56.573467100,7.518467041015625,1.6309411599099637,0.0281873990863561,0.7817319764822721
2024-12-07 17:55:56.583441000,7.52844091796875,1.6998153741717337,-0.161242701357603,1.404271900526434
2024-12-07 17:55:56.593414100,7.5384140625,1.2386416317343711,-0.3568441839128732,2.0085579366080464
2024-12-07 17:55:56.603387100,7.54838720703125,0.4220236353099346,-0.5601531721055507,2.368169685538113
2024-12-07 17:55:56.613360000,7.558360107421875,-0.5112042861498892,-0.6741705964297056,2.408410364381224
2024-12-07 17:55:56.623334100,7.568334228515625,-1.311606330180168,-0.6424883409649134,2.379496989107877
2024-12-07 17:55:56.633307000,7.578306884765625,-1.9111494095183907,-0.5068295781970024,2.350085016662628
2024-12-07 17:55:56.643280100,7.588280029296875,-2.2038263878166675,-0.2624614343851804,2.186712463669479
2024-12-07 17:55:56.653253000,7.598253173828125,-2.8138918840825555,0.1027677160352468,2.006147514465451
2024-12-07 17:55:56.663227100,7.60822705078125,-3.625995033431053,0.4967985980480909,1.8732878808967768
2024-12-07 17:55:56.673200000,7.6182001953125,-3.7751626815915102,0.8961936374425887,1.655498385800421
2024-12-07 17:55:56.683173000,7.628173095703125,-3.165841866213083,1.2806471282929182,1.3918442344993351
2024-12-07 17:55:56.693146000,7.63814599609375,-2.288528285807371,1.626494117373228,1.1161117420654745
2024-12-07 17:55:56.703120000,7.648119873046875,-1.480799406020343,2.011015412762761,0.8258947972051799
2024-12-07 17:55:56.713093000,7.658093017578125,-0.877983150230348,2.21422853936553,0.5702905352383851
2024-12-07 17:55:56.723066000,7.668066162109375,-0.6036953767120837,2.2237439712077376,0.7323110891006887
2024-12-07 17:55:56.733040000,7.6780400390625,-0.4234957536891102,2.028682586878538,0.7980223092868923
2024-12-07 17:55:56.743013000,7.68801318359375,-0.4461281489968299,1.75554895183146,0.8768748967275023
2024-12-07 17:55:56.752986000,7.697986083984375,-0.7324690561413765,1.3002736197829246,0.8138739584133029
2024-12-07 17:55:56.762959000,7.707958984375,-0.5736804699376226,0.6718821932315826,0.5740541255556046
2024-12-07 17:55:56.772933000,7.71793310546875,-0.3786488962247967,0.0677963558971881,0.3142928900398314
2024-12-07 17:55:56.782906000,7.727906005859375,-0.9123319945558904,-0.6249795722812413,0.0588482025489211
2024-12-07 17:55:56.792879000,7.737879150390625,-1.291324589651823,-1.1280138498485088,0.0746314626142382
2024-12-07 17:55:56.802852000,7.74785205078125,-1.3989172416254878,-1.43737907422781,0.2984726589649915
2024-12-07 17:55:56.812826000,7.757826171875,-1.5435411088764666,-1.630300523918867,0.1358238902017474
2024-12-07 17:55:56.822799000,7.767799072265625,-1.4156257998421788,-1.73451142449975,0.1650922163926065
2024-12-07 17:55:56.832772000,7.777772216796875,-1.1182008963644503,-1.771819118630886,0.3078466365098953
2024-12-07 17:55:56.842745000,7.7877451171875,-1.1351415097713469,-1.8552461743801831,0.4087478280209005
2024-12-07 17:55:56.852719000,7.797718994140625,-1.1603107300803064,-1.8965069900512697,0.4825659284256398
2024-12-07 17:55:56.862692000,7.807692138671875,-1.1006886205494404,-1.9277064304351803,0.6760892895326018
2024-12-07 17:55:56.872665000,7.8176650390625,-1.1364683744609356,-2.0349965923309323,0.9758331374771892
2024-12-07 17:55:56.882638000,7.82763818359375,-1.083050380267203,-2.18567522957623,1.6339238289825615
2024-12-07 17:55:56.892612000,7.837612060546875,-0.9920610725700856,-2.3786796813756226,2.311441543883085
2024-12-07 17:55:56.902585000,7.847585205078125,-0.9515610121384264,-2.5916157450914383,2.7569395782828328
2024-12-07 17:55:56.915052300,7.86005224609375,-1.037422601558268,-2.836892235919833,2.88697407142818
2024-12-07 17:55:56.925025000,7.87002490234375,-1.2296435017645355,-2.848988331905008,2.812919824180007
2024-12-07 17:55:56.934999000,7.8799990234375,-1.0668015485167504,-2.6300287701159712,2.4598577891543507
2024-12-07 17:55:56.944972000,7.889971923828125,-0.9144109927870332,-2.4027719201028344,1.8608350804284213
2024-12-07 17:55:56.954945000,7.899945068359375,-0.7477193783737719,-2.194203988468647,1.3314043788447976
2024-12-07 17:55:56.964918000,7.90991796875,-0.593645253471285,-1.9986159499168392,0.8103073519729077
2024-12-07 17:55:56.974892000,7.91989208984375,0.024051029933989,-1.6641723983824253,0.2230477078855037
2024-12-07 17:55:56.984865300,7.929865234375,0.9488847786664962,-1.2565063742488622,-0.3887978036649525
2024-12-07 17:55:56.994838000,7.939838134765625,2.0137842929542065,-0.7205483167231083,-0.981408015000075
2024-12-07 17:55:57.004811000,7.94981103515625,2.9902617196843027,-0.135143798983097,-1.7570491272613404
2024-12-07 17:55:57.014785000,7.959784912109375,3.5505543002605435,0.4348866240143775,-2.6205875725537537
2024-12-07 17:55:57.024758000,7.969758056640625,3.708863870775699,1.0488210706681012,-3.3518589433431623
2024-12-07 17:55:57.034731300,7.979731201171875,3.55401116271615,1.67861768784225,-3.7807258686766025
2024-12-07 17:55:57.044705300,7.989705322265625,3.2925065906643867,2.073194513300061,-4.091361843644083
2024-12-07 17:55:57.054678300,7.99967822265625,3.514250814735889,2.24832194762528,-4.655623327851295
2024-12-07 17:55:57.064651000,8.009651123046876,3.655511050772666,2.3510744660913945,-4.618897817522287
2024-12-07 17:55:57.074624000,8.0196240234375,3.2343899172604083,2.328627071961761,-4.208350100472569
2024-12-07 17:55:57.084598000,8.029597900390625,2.5912013190716503,2.2144985884785653,-3.418457906149328
2024-12-07 17:55:57.094571000,8.039571044921875,2.1378524250410496,1.837259266790748,-2.586003458167613
2024-12-07 17:55:57.104544300,8.049544189453124,1.9685082502923903,0.9034323565244674,-2.3418305446669456
2024-12-07 17:55:57.114517200,8.059517333984376,1.9472598566889765,-0.3010258505791425,-2.410464520432055
2024-12-07 17:55:57.124491000,8.069490966796875,2.214421577719599,-1.3649123884320258,-2.020295866805315
2024-12-07 17:55:57.134464000,8.079464111328125,2.3998211074732243,-2.035816676542163,-1.4912329756207765
2024-12-07 17:55:57.144437000,8.08943701171875,2.1844844123564657,-2.397043605583906,-1.1833259872257709
2024-12-07 17:55:57.154410200,8.09941015625,1.5433553770460189,-2.389383446219564,-0.9572111468546092
2024-12-07 17:55:57.164384000,8.109384033203124,0.5919825809560716,-1.850806146106124,-0.6146275434844195
2024-12-07 17:55:57.174357200,8.119357177734376,-0.7444882874980568,-0.9554401916593313,-0.0180060506813228
2024-12-07 17:55:57.184330000,8.129330078125,-2.29738846861124,-0.1254722997963428,0.6086817868225276
2024-12-07 17:55:57.194303000,8.139302978515625,-3.560106556981802,0.5657026229262352,1.0799078444577752
2024-12-07 17:55:57.204277000,8.149277099609375,-4.110977521479129,1.232529870855808,1.489217544145137
2024-12-07 17:55:57.214250000,8.15925,-4.047736929190159,2.404292261537909,1.7885928510382771
2024-12-07 17:55:57.224222200,8.16922216796875,-3.42920521787405,4.13242362961173,2.052694161584973
2024-12-07 17:55:57.234195000,8.17919482421875,-1.825319384280592,6.641443509081006,2.198195396192372
2024-12-07 17:55:57.244169000,8.1891689453125,1.1153915380321442,8.643511060756444,1.9746511369615791
2024-12-07 17:55:57.254142000,8.199141845703124,4.101089749193191,7.274675361400842,1.3954535110376771
2024-12-07 17:55:57.264115200,8.209115234375,6.051815820688009,2.6644752295970915,1.9893883951053024
2024-12-07 17:55:57.274088200,8.219088134765625,5.076297886639833,-1.1245751075714825,3.7858883660063145
2024-12-07 17:55:57.284062200,8.229062255859375,1.6089268965005874,-3.2488030580163,4.759244738106429
2024-12-07 17:55:57.294035200,8.23903515625,-0.9661667528569696,-4.385986302748322,5.002518949201702
2024-12-07 17:55:57.304008000,8.249008056640625,-2.346019666919857,-4.869999068981409,4.817505496156215
2024-12-07 17:55:57.313983000,8.25898291015625,-3.1045199670270085,-4.827891865614056,4.013051692517101
2024-12-07 17:55:57.323956000,8.2689560546875,-3.164441351765394,-4.5065018569201225,3.2021284006029367
2024-12-07 17:55:57.333928700,8.2789287109375,-2.878577414482832,-3.588222644397616,2.829160180363059
2024-12-07 17:55:57.343902000,8.28890185546875,-2.700362535536289,-1.7039993818581105,2.5596640250355005
2024-12-07 17:55:57.353876000,8.2988759765625,-2.772152344983816,0.2040302882045507,2.0935560410663485
2024-12-07 17:55:57.363849000,8.308848876953125,-3.204935859239101,1.8407360029906032,1.6156297551400958
2024-12-07 17:55:57.373822000,8.318822021484374,-3.909042744249106,2.913001662132144,1.0243614599332214
2024-12-07 17:55:57.383795000,8.328794921875,-4.554636650013923,3.3613048170804976,0.3441295907031744
2024-12-07 17:55:57.393769000,8.33876904296875,-4.794086042124032,3.1553742482125755,-0.5301225563053041
2024-12-07 17:55:57.403742000,8.348741943359375,-3.512768467223644,1.741011307913065,-1.507093100314587
2024-12-07 17:55:57.413715000,8.35871484375,-2.142204775031656,0.4497060074836015,-1.5920777607694268
2024-12-07 17:55:57.423688000,8.36868798828125,-1.6976666717052458,-0.3831213654637336,-0.9825270090926438
2024-12-07 17:55:57.433662000,8.378661865234376,-1.488506034874916,-0.8469131814450025,-0.2324674973335116
2024-12-07 17:55:57.443635000,8.388635009765625,-0.94852354413867,-0.8366624210655689,0.4953223880156874
2024-12-07 17:55:57.453608000,8.39860791015625,-0.2175543711662292,-0.4876297876864671,0.9509414189353584
2024-12-07 17:55:57.463582000,8.40858203125,0.3777214426489547,-0.1169692598670721,1.1464048081941902
2024-12-07 17:55:57.473555000,8.418554931640625,0.597969400280714,0.1313964291483163,1.232824762149155
2024-12-07 17:55:57.483528000,8.42852783203125,0.5137783378889784,0.2024608469307422,1.187737227796763
2024-12-07 17:55:57.493501000,8.4385009765625,0.2457692793140187,0.13944646461308,0.952423912578076
2024-12-07 17:55:57.503475000,8.448474853515625,-0.1137748112073168,-0.0300765738338232,0.6006909341990947
2024-12-07 17:55:57.513448000,8.458447998046875,-0.4785854804873466,-0.2761158657282591,0.2338232958566397
2024-12-07 17:55:57.523421000,8.4684208984375,-0.7796680296897888,-0.4165829055607318,-0.0686210432182997
2024-12-07 17:55:57.533394000,8.478393798828124,-1.091990934830904,-0.515905449578166,-0.2490668960873037
2024-12-07 17:55:57.543368000,8.488367919921876,-1.1611878051757811,-0.476749497231841,-0.2446101724067702
2024-12-07 17:55:57.553341000,8.4983408203125,-0.9021943391621112,-0.3092301998227834,-0.106584570909664
2024-12-07 17:55:57.563314000,8.50831396484375,-0.4718891977190971,-0.1485591608732938,0.0888455736666917
2024-12-07 17:55:57.573287000,8.518286865234375,-0.1800982084751129,-0.1288894147634506,0.2350676333619281
2024-12-07 17:55:57.583261000,8.528260986328124,0.0566962852120399,-0.1890326255589723,0.3112961924418806
2024-12-07 17:55:57.593234000,8.53823388671875,0.1918798316836357,-0.2196557273596525,0.3514814147707075
2024-12-07 17:55:57.603207000,8.54820703125,0.345206937611103,-0.2189864497959613,0.2715915932368486
2024-12-07 17:55:57.613181000,8.558180908203125,0.389314374884963,-0.2468932783752679,0.0280382546729408
2024-12-07 17:55:57.623154000,8.56815380859375,0.4336696494400501,-0.2609294025123119,-0.1651293700652197
2024-12-07 17:55:57.633127000,8.578126953125,0.5341249968796968,-0.2383808860957622,-0.3168751616179943
2024-12-07 17:55:57.643100000,8.588099853515626,0.5498924748539924,-0.0769879626125097,-0.614554916639626
2024-12-07 17:55:57.653074000,8.598073974609376,0.3849450737595558,0.0204284555226564,-0.9752158823616802
2024-12-07 17:55:57.663047000,8.608046875,0.2306400627106428,-0.0387123002320528,-1.147245569867268
2024-12-07 17:55:57.673020000,8.61802001953125,0.1588830412878654,-0.1798696604162454,-1.0276533410854638
2024-12-07 17:55:57.682993000,8.627992919921875,0.1862947250276803,-0.3534703235656022,-0.9232523978251964
2024-12-07 17:55:57.692967000,8.637966796875,0.2594511466532945,-0.4521820422083139,-0.7575475294269621
2024-12-07 17:55:57.702940000,8.64793994140625,0.3188964748451486,-0.4285042295008897,-0.4492503726705908
2024-12-07 17:55:57.712913200,8.6579130859375,0.4381342276334762,-0.339669761750102,-0.2109135814448818
2024-12-07 17:55:57.722887000,8.667886962890625,0.6566963876027614,-0.2909077766686678,-0.1410829615074209
2024-12-07 17:55:57.732860000,8.67785986328125,0.8999895225942134,-0.2039391027897596,-0.2175732767960987
2024-12-07 17:55:57.742833000,8.6878330078125,1.0516326209574938,-0.0222135853737592,-0.4672916407957673
2024-12-07 17:55:57.752806000,8.697805908203126,1.0870680914759636,0.2727653862565756,-0.8534400989957154
2024-12-07 17:55:57.762780000,8.70777978515625,0.9834452199161052,0.5276017325907946,-1.2429790764167905
2024-12-07 17:55:57.772753000,8.7177529296875,0.7623474039893597,0.5726017347902059,-1.581340093655884
2024-12-07 17:55:57.782726000,8.727725830078125,0.5175702409852296,0.3793751646727323,-1.803026888451725
2024-12-07 17:55:57.792699000,8.737698974609375,0.3801321205198764,0.1057733275920152,-1.8637169194750487
2024-12-07 17:55:57.802673000,8.7476728515625,0.4082183973193168,-0.1362210728257894,-1.7897684706889092
2024-12-07 17:55:57.812646000,8.75764599609375,0.6000023674130439,-0.2695926014393567,-1.614457350359857
2024-12-07 17:55:57.822619000,8.767618896484375,0.7938421740580349,-0.2080547214150428,-1.3853124946430324
2024-12-07 17:55:57.832593000,8.777593017578125,0.8484172293324023,0.0044581484526395,-1.2083845867671072
2024-12-07 17:55:57.842566000,8.78756591796875,0.8420201487064362,0.2539917122036218,-1.0904381524309514
2024-12-07 17:55:57.852539000,8.797538818359374,0.9429705861866472,0.5151777198255062,-0.9702623516075312
2024-12-07 17:55:57.862511900,8.807511962890626,1.232927345740795,0.7341881350189446,-0.8186209337446838
2024-12-07 17:55:57.872486000,8.81748583984375,1.6968652921944856,0.8887684558779001,-0.6681494364440441
2024-12-07 17:55:57.882459000,8.827458984375,2.160558323976397,1.0116945783227682,-0.6578172813914716
2024-12-07 17:55:57.892432000,8.837431884765625,2.529168349006772,1.2192957107514142,-0.7632894340798259
2024-12-07 17:55:57.902405000,8.847405029296874,2.7517671440809965,1.4786264458954332,-0.9087421533703804
2024-12-07 17:55:57.912379100,8.857379150390624,2.794596231982112,1.7262889550775289,-1.0430936329320073
2024-12-07 17:55:57.922351900,8.867351806640626,2.504724228101969,1.889042060998082,-1.2491665328800678
2024-12-07 17:55:57.932324900,8.877324951171875,2.111828487598896,2.1177730752170083,-1.7384160307228564
2024-12-07 17:55:57.942299000,8.887298828125,1.5842425370991229,2.347783023330569,-2.5029709546938537
2024-12-07 17:55:57.952272000,8.89727197265625,1.0177981558948754,2.5220629009157416,-3.492109125554561
2024-12-07 17:55:57.962244900,8.907244873046874,0.7222580432504415,2.617061736515164,-4.24734530929923
2024-12-07 17:55:57.972218000,8.917218017578126,0.8344511747568846,2.4802988118976352,-4.550943932975828
2024-12-07 17:55:57.982192000,8.927192138671876,1.1499176386207342,1.9828174922823905,-4.176946954210102
2024-12-07 17:55:57.992164900,8.937164794921875,1.4611708687037228,1.3103788342118263,-2.897393758633733
2024-12-07 17:55:58.002137900,8.947137939453125,2.2072598693966863,0.7968225781083107,-1.138051625064388
2024-12-07 17:55:58.012110800,8.95711083984375,2.7498668634176253,0.635767508277297,0.8003272982936352
2024-12-07 17:55:58.022084900,8.9670849609375,2.89991480154395,0.5599491739660502,2.472771631263196
2024-12-07 17:55:58.032058000,8.97705810546875,2.5825766985893246,0.2817757911860942,3.923909473991394
2024-12-07 17:55:58.042030800,8.98703076171875,0.7590473395306616,-0.0920972689390182,4.508339593741297
2024-12-07 17:55:58.052004900,8.9970048828125,-0.5657049610137939,-0.2837339395165443,4.549796808767319
2024-12-07 17:55:58.061977900,9.006977783203125,-1.4538286892473695,-0.4235246875226497,4.435646697974205
2024-12-07 17:55:58.071950800,9.016950927734374,-2.9305785276159644,-0.7220663200706243,3.819922737555205
2024-12-07 17:55:58.081923800,9.026923828125,-3.828101660096645,-0.7329904496669769,3.159033062981069
2024-12-07 17:55:58.091897900,9.03689794921875,-4.5558734983325,-0.2214706678271293,2.4548019670695065
2024-12-07 17:55:58.101871000,9.04687109375,-4.801657938683033,0.4544564168810844,1.8419456710413096
2024-12-07 17:55:58.111843800,9.05684375,-4.079810814321041,1.1917419333934782,1.4685766149155794
2024-12-07 17:55:58.121816800,9.06681689453125,-2.973296848618984,1.6671411850601434,1.14251203853935
2024-12-07 17:55:58.131790800,9.076790771484376,-2.0034302183307706,1.8100842596173288,0.784334341000393
2024-12-07 17:55:58.141763800,9.086763916015624,-1.0547603975892066,1.839627164965868,0.7279222795572131
2024-12-07 17:55:58.151737000,9.096737060546875,-0.4446270967841148,1.7274100680619475,0.7450391263138503
2024-12-07 17:55:58.161711000,9.106711181640623,-0.1531929581537842,1.4879150832444428,0.7399490366332232
2024-12-07 17:55:58.171684000,9.11668408203125,-0.2122892902448773,1.2140770993202925,0.6118181851521134
2024-12-07 17:55:58.181656800,9.12665673828125,-0.3179052353180944,0.8952928892105817,0.4366480076637118
2024-12-07 17:55:58.191629800,9.1366298828125,-0.0294528889775276,0.4279360742241144,0.8122875660046934
2024-12-07 17:55:58.201603800,9.146603759765624,0.1424151051603257,0.0185784437417984,1.024198524456471
2024-12-07 17:55:58.211576800,9.156576904296877,-0.5698343159034848,-0.476385924616456,1.49031659142822
2024-12-07 17:55:58.221550000,9.166550048828125,-1.2719887516714632,-0.9494120174109936,1.743483104854077
2024-12-07 17:55:58.231523000,9.176523193359374,-1.427884392912686,-1.3324077106684449,1.712111815034598
2024-12-07 17:55:58.241497000,9.1864970703125,-1.458857623325288,-1.6123790827810764,1.3946043468624352
2024-12-07 17:55:58.251469800,9.1964697265625,-1.2870705854691564,-1.6879700380772351,1.0146095889866351
2024-12-07 17:55:58.261442800,9.20644287109375,-0.9327461292922496,-1.60256203764379,0.8284275305531918
2024-12-07 17:55:58.271416800,9.216416748046877,-0.6009989772349595,-1.5233657513320444,0.8606137900173664
2024-12-07 17:55:58.281389800,9.226389892578124,-0.4502537044942378,-1.4323375729292631,0.8355147123351693
2024-12-07 17:55:58.291363000,9.236363037109374,-0.6909656638860702,-1.41712480622828,0.6396870198085903
2024-12-07 17:55:58.301335800,9.246335693359375,-0.9267126943469048,-1.4487977093428372,0.5747200421184301
2024-12-07 17:55:58.311309800,9.256309814453124,-0.9419022263027728,-1.463945594114065,0.7590788306474685
2024-12-07 17:55:58.321282600,9.266282470703125,-0.8041327549912035,-1.5653694943249226,1.216945494363457
2024-12-07 17:55:58.331255600,9.276255615234374,-0.7898457248330116,-1.757926786878705,1.9420384687788783
2024-12-07 17:55:58.341228800,9.286228759765624,-0.9066029493845998,-2.062930308917165,2.360933304543793
2024-12-07 17:55:58.351202800,9.296202880859376,-1.0762722644343972,-2.400658288949728,2.518532388702035
2024-12-07 17:55:58.361175800,9.30617578125,-1.0586641270294783,-2.6459645903944966,2.572240013492108
2024-12-07 17:55:58.371148500,9.3161484375,-0.8191907695218921,-2.7091823863297697,2.397415069244802
2024-12-07 17:55:58.381122600,9.32612255859375,-0.4168751665055751,-2.758310866636038,1.9103575284883376
2024-12-07 17:55:58.391095600,9.336095458984374,0.0700108170762658,-2.678175838169456,1.2205470259867608
2024-12-07 17:55:58.401068800,9.34606884765625,0.4546947556816041,-2.479683894869685,0.4959893274918198
2024-12-07 17:55:58.411041800,9.356041748046875,0.8891735295474529,-2.111966434764862,-0.2364499180331826
2024-12-07 17:55:58.421015800,9.366015869140623,1.4017135943457484,-1.5542700081616638,-0.9427421842582524
2024-12-07 17:55:58.430988800,9.37598876953125,1.8365908660098909,-0.8880734593510627,-1.629340885106474
2024-12-07 17:55:58.440961500,9.38596142578125,2.060140678198636,-0.3011304799973964,-2.396542670324445
2024-12-07 17:55:58.450935600,9.395935546875,2.516113052600622,0.1733399663865566,-3.114849345600605
2024-12-07 17:55:58.460908500,9.405908447265626,2.927298483031988,0.5385808072447776,-4.034423274108767
2024-12-07 17:55:58.470881800,9.4158818359375,2.9398247871279715,0.8832973309904336,-4.712494092847407
2024-12-07 17:55:58.480854800,9.425854736328125,2.8187968995198607,1.2733780140727755,-4.935561382216215
2024-12-07 17:55:58.490828800,9.435828857421876,2.777229502117634,1.7840227666437625,-4.768068680553138
2024-12-07 17:55:58.500801500,9.445801513671874,2.6278034952819347,2.230130457374454,-4.369026984640955
2024-12-07 17:55:58.510774500,9.4557744140625,2.307857547916472,2.5133108546614644,-3.405660676157474
2024-12-07 17:55:58.520747800,9.465747802734375,1.9904154000654817,2.445095396569371,-2.41064163056463
2024-12-07 17:55:58.530721800,9.4757216796875,1.854544309721142,1.938722329968214,-1.498996741490066
2024-12-07 17:55:58.540694800,9.48569482421875,1.7731179262697696,1.0666489883035422,-0.7178415419824421
2024-12-07 17:55:58.550667800,9.495667724609374,1.5543068330407142,0.0791477709949016,-0.0853188608452677
2024-12-07 17:55:58.560641800,9.505641845703124,1.3760031067669392,-0.5270797545433044,0.7224379298619925
2024-12-07 17:55:58.570614500,9.515614501953126,1.2511245350800453,-0.2185720237761735,1.837879006124288
2024-12-07 17:55:58.580587500,9.52558740234375,0.6768634887754916,0.9361913013100625,2.715518019092083
2024-12-07 17:55:58.590560800,9.535560791015625,-0.0121780751802027,2.2935019825667142,3.2780864356458186
2024-12-07 17:55:58.600534800,9.54553466796875,-0.4792682020545005,3.418828200766444,3.603431903967261
2024-12-07 17:55:58.610507800,9.5555078125,-1.124192245733738,4.180288373592496,3.66065192079246
2024-12-07 17:55:58.620480800,9.565480712890626,-1.980136874896288,4.862248893246054,3.646367959374189
2024-12-07 17:55:58.630454800,9.575454833984375,-2.3604455210268496,4.760896889227628,3.307569427500665
2024-12-07 17:55:58.640427500,9.585427490234377,-2.184289328175783,2.327225388470292,2.1783204828992484
2024-12-07 17:55:58.650400500,9.595400390625,-1.828183249279112,-0.3418751628398895,1.7182248910874127
2024-12-07 17:55:58.660373800,9.605373779296874,-1.1878620232202113,-1.9766928719222543,1.878364599639177
2024-12-07 17:55:58.670347800,9.61534765625,-0.7377940505564212,-3.090806791234016,2.05322315389514
2024-12-07 17:55:58.680320800,9.62532080078125,-0.534886482771486,-3.6621190707355735,2.174504139481485
2024-12-07 17:55:58.690293800,9.635293701171875,-0.7701857694648205,-3.577966038799285,2.314379204770177
2024-12-07 17:55:58.700267800,9.645267822265623,-1.2923754138790071,-2.949780948475003,2.363012010513991
2024-12-07 17:55:58.710240500,9.655240478515625,-1.9747323855042456,-2.1461977901905773,2.06668761562407
2024-12-07 17:55:58.720213800,9.6652138671875,-2.4750293470621108,-1.120671085870266,1.313167880408466
2024-12-07 17:55:58.730186800,9.675186767578126,-2.6759564085543155,-0.1988964324474334,0.4267209993459284
2024-12-07 17:55:58.740160800,9.685160888671875,-2.735622064965963,0.4713917695909738,-0.3041388680331409
2024-12-07 17:55:58.750133800,9.6951337890625,-2.495924835574627,0.9355196856588124,-0.8811571040913462
2024-12-07 17:55:58.760106500,9.7051064453125,-2.485087799739837,1.0476631328046322,-1.2035386080406605
2024-12-07 17:55:58.770079500,9.71507958984375,-2.3688215735755858,0.6941939782828093,-1.27877841181159
2024-12-07 17:55:58.780053500,9.725053466796876,-2.257387443742901,-0.0554541761964559,-1.312869189722836
2024-12-07 17:55:58.790026800,9.73502685546875,-2.369623537608236,-0.5436158788025379,-1.8068879477940496
2024-12-07 17:55:58.799999700,9.744999755859377,-2.319605999507755,-0.2893032640814781,-2.1996793511398134
2024-12-07 17:55:58.809973800,9.754973876953123,-0.9164110805630684,0.2344727727413177,-0.513176536070928
2024-12-07 17:55:58.819946800,9.76494677734375,-1.062304310162738,0.7953525055557489,1.2717258629515766
2024-12-07 17:55:58.829919500,9.77491943359375,-0.8631215350545942,1.2235603824585677,2.820966060252488
2024-12-07 17:55:58.839892700,9.784892822265626,-1.0555986019790171,1.090726029461622,2.61706933529973
2024-12-07 17:55:58.849866800,9.79486669921875,-1.351946523874998,0.8909721034020185,2.050309312275052
2024-12-07 17:55:58.859839700,9.80483984375,-0.4442120862424373,0.7073463053226471,1.780618218897283
2024-12-07 17:55:58.869812700,9.814812744140625,0.3391254988055676,0.3580465454399585,1.906653997795284
2024-12-07 17:55:58.879786800,9.824786865234374,0.356717269597575,-0.1809206307739019,1.942619191276282
2024-12-07 17:55:58.889759700,9.834759765625,0.0956967547357082,-0.7741630025327205,1.6772743104092775
2024-12-07 17:55:58.899732500,9.844732421875,-0.1203740998744964,-1.104331360965967,1.2496475943952798
2024-12-07 17:55:58.909705700,9.854705810546877,-0.6037912748346105,-1.0087234535574912,0.8230173420727253
2024-12-07 17:55:58.919679700,9.8646796875,-1.0393103150010108,-0.5538543642222881,0.3980922497002407
2024-12-07 17:55:58.929652700,9.87465283203125,-1.277521689748764,-0.0669172349750995,0.0169784977318719
2024-12-07 17:55:58.939625700,9.884625732421876,-1.3203005087673665,0.2259218020170927,-0.3652119435572996
2024-12-07 17:55:58.949599700,9.894599853515626,-1.1405950990021227,0.3335322819083929,-0.6359601082399488
2024-12-07 17:55:58.959572700,9.90457275390625,-0.9282558321356772,0.2650011819958686,-0.8565751821510493
2024-12-07 17:55:58.969545700,9.914545654296877,-0.7870365126311779,0.1668950280308723,-1.0069951684601604
2024-12-07 17:55:58.979518700,9.924518798828124,-0.6276537599265575,0.1110457150369882,-0.9698121966872364
2024-12-07 17:55:58.989492700,9.93449267578125,-0.5920563403120264,0.1088116723746061,-0.718215124535188
2024-12-07 17:55:58.999465700,9.9444658203125,-0.5335258619427681,0.0823544580817222,-0.3355994435712695
2024-12-07 17:55:59.009438700,9.954438720703124,-0.4955763627767562,0.0483177484452724,-0.1840237844210118
2024-12-07 17:55:59.019411500,9.964411376953125,-0.5065045840263367,-0.0193155258446931,-0.2773521477912553
2024-12-07 17:55:59.029385500,9.974385498046876,-0.4138426669418811,-0.0038742110848426,-0.2945877255567349
2024-12-07 17:55:59.039358700,9.984358642578124,-0.2170750632166862,0.1226864684700965,-0.1649066854915581
2024-12-07 17:55:59.049331700,9.994331787109376,0.0303448739477666,0.1986731450855731,0.0443024301229976
2024-12-07 17:55:59.059305700,10.0043056640625,0.3100081984579563,0.0643961920648813,0.2474050820886157
2024-12-07 17:55:59.069278700,10.01427880859375,0.5615770674288273,-0.0286181917190551,0.291988119251281
2024-12-07 17:55:59.079251700,10.024251708984377,0.5809212348461151,-0.2403635843455791,0.2567704562019556
2024-12-07 17:55:59.089224700,10.034224609375,0.4329845897853374,-0.5861199725329875,0.2803212084636092
2024-12-07 17:55:59.099198500,10.044198486328124,0.3733820617377757,-0.8278390631407498,0.3317339272495359
2024-12-07 17:55:59.109171700,10.054171630859376,0.2675888604015112,-1.027659040173888,0.3198692288674414
2024-12-07 17:55:59.119144700,10.064144775390623,-0.0344394360852893,-1.059761566877365,0.1878491879280656
2024-12-07 17:55:59.129118700,10.07411865234375,-0.5133060807347297,-0.891810307791829,-0.0394747770711081
2024-12-07 17:55:59.139091700,10.084091796875,-0.9940805956989526,-0.5615934340417384,-0.2735305619427934
2024-12-07 17:55:59.149064700,10.094064697265624,-1.2716139270097016,-0.1529559345275163,-0.4793924129560589
2024-12-07 17:55:59.159037700,10.10403759765625,-1.267448624023795,0.2248129639923572,-0.7231943742524832
2024-12-07 17:55:59.169011700,10.11401171875,-1.0215350043356417,0.4703232635766267,-0.9224354554191232
2024-12-07 17:55:59.178984700,10.123984619140623,-0.7341442958772182,0.51311903373003,-1.0794156039614229
2024-12-07 17:55:59.188957700,10.133957763671877,-0.5389519786447287,0.5100234058022499,-1.162885622069612
2024-12-07 17:55:59.198931700,10.143931640625,-0.4355389504432678,0.5815250459581613,-1.1405329204861074
2024-12-07 17:55:59.208904700,10.15390478515625,-0.2497276250183582,0.5645522838473319,-0.9527049214765428
2024-12-07 17:55:59.218877700,10.163877685546876,0.1522726284384727,0.4398842861711978,-0.7580188732657581
2024-12-07 17:55:59.228850700,10.1738505859375,0.683036039930582,0.3007125468462705,-0.6419878440968692
2024-12-07 17:55:59.238824700,10.18382470703125,1.1556196496546267,0.2375134556114673,-0.5855569683553651
2024-12-07 17:55:59.248797700,10.193797607421876,1.5124848763555288,0.1981499979943037,-0.5712426483314484
2024-12-07 17:55:59.258770700,10.203770751953124,1.6443465849280356,0.1850362493991851,-0.6097287751248106
2024-12-07 17:55:59.268744700,10.21374462890625,1.5631231767028568,0.2423158874571323,-0.6644583268411457
2024-12-07 17:55:59.278717700,10.2237177734375,1.2992904539644718,0.2638566881358623,-0.7584639136195183
2024-12-07 17:55:59.288690700,10.233690673828123,0.9140174634248016,0.2067354555100202,-0.9300757410392164
2024-12-07 17:55:59.298663700,10.24366357421875,0.5476864892423152,0.1157002628445625,-1.21998456979841
2024-12-07 17:55:59.308637700,10.2536376953125,0.3218815550705418,0.0317781170547008,-1.5519213992089032
2024-12-07 17:55:59.318610200,10.263610107421876,0.2910497789552435,0.0369131418555974,-1.9240756727173924
2024-12-07 17:55:59.328583200,10.273583251953124,0.3733171798080206,0.1564297481179237,-2.3026890592373905
2024-12-07 17:55:59.338556400,10.283556396484377,0.6052046487638727,0.3186141142398119,-2.565031397287548
2024-12-07 17:55:59.348530200,10.2935302734375,0.8642126912921667,0.4737999997764825,-2.66610078497231
2024-12-07 17:55:59.358503200,10.303503173828124,1.0813298400849105,0.6643564739018678,-2.711735285682976
2024-12-07 17:55:59.368476200,10.31347607421875,1.2867331702083349,0.8704337577641009,-2.72537072006464
2024-12-07 17:55:59.378450200,10.3234501953125,1.3194447687208652,1.1459440588146448,-2.7082147103413936
2024-12-07 17:55:59.388423200,10.333423095703123,1.1368062281131743,1.5025614482343197,-2.572017602913081
2024-12-07 17:55:59.398396200,10.343396240234377,0.8168518051803112,1.7760732689440248,-2.3393381433293223
2024-12-07 17:55:59.408370200,10.3533701171875,0.4882148940980434,1.883196842101216,-2.035124018102884
2024-12-07 17:55:59.418343400,10.363343505859374,0.2882482020705938,1.7842676813155411,-1.569543419008702
2024-12-07 17:55:59.428316200,10.373316162109376,0.2825567124307155,1.5503969661206003,-0.9098386433701962
2024-12-07 17:55:59.438289200,10.3832890625,0.368467401689291,1.2778057673871517,-0.1637500080034136
2024-12-07 17:55:59.448263200,10.39326318359375,0.432601143425703,1.0781167232573032,0.5165387425130233
2024-12-07 17:55:59.458236200,10.403236083984376,0.5763350760996342,0.9227122265338896,1.030333812341094
2024-12-07 17:55:59.468209200,10.413209228515624,0.7974737354934215,0.6906178733617067,1.437013894177228
2024-12-07 17:55:59.478182400,10.423182373046876,1.149502043557167,0.5155699340134858,1.8487644111454489
2024-12-07 17:55:59.488156400,10.433156494140626,1.6997686124205589,0.2857406031638383,2.1292840647906064
2024-12-07 17:55:59.498129200,10.443129150390623,2.2308932584404944,-0.0495510896325111,2.314754760084301
2024-12-07 17:55:59.508102100,10.45310205078125,2.357266890990734,-0.3694447222888469,2.7469904311984776
2024-12-07 17:55:59.518076200,10.463076171875,2.0119746131837366,-0.677547379386425,3.152133074334264
2024-12-07 17:55:59.528049200,10.473049072265624,1.1851204694271087,-0.815438431251049,3.2088182536304
2024-12-07 17:55:59.538022400,10.4830224609375,0.1151356146991252,-0.6569312923371792,3.0093185945928096
2024-12-07 17:55:59.547995400,10.492995361328123,-1.1064962839148935,-0.3688029172539711,2.8061227113857865
2024-12-07 17:55:59.557969400,10.502969482421875,-2.0367980887949466,0.1112526357859373,2.3397382485628127
2024-12-07 17:55:59.567942100,10.512942138671876,-2.532757605670392,0.6336579687774181,1.5543154547385871
2024-12-07 17:55:59.577915100,10.5229150390625,-2.826309467107057,1.1944546994835137,0.6412441861227154
2024-12-07 17:55:59.587889200,10.53288916015625,-3.045440878331661,1.6741536941707134,-0.0057820540001615
2024-12-07 17:55:59.597862100,10.542862060546875,-3.0959149280279874,1.987877698281408,-0.5892015354027972
2024-12-07 17:55:59.607835400,10.55283544921875,-2.880857342113554,2.085839475339651,-1.0069299942694605
2024-12-07 17:55:59.617808100,10.56280810546875,-2.591035899376869,1.849511430120468,-1.1865125083073973
2024-12-07 17:55:59.627782100,10.5727822265625,-2.5976938959613443,1.3354647601515053,-1.387864224952459
2024-12-07 17:55:59.637755100,10.582755126953124,-2.6528128488540648,0.8338187220722436,-1.4191469597056507
2024-12-07 17:55:59.647728000,10.59272802734375,-2.0997031655192373,0.4295516927272081,-1.1952467266440392
2024-12-07 17:55:59.657702100,10.6027021484375,-1.3264626846589147,0.0939373438477516,-0.9658121672656388
2024-12-07 17:55:59.667675100,10.612675048828123,-1.3261784608900546,-0.2897989386439323,-0.824294376271218
2024-12-07 17:55:59.677648400,10.6226484375,-1.179157177108526,-0.6109674135416746,-0.4456789439246058
2024-12-07 17:55:59.687621000,10.63262109375,-0.6424925787486135,-0.8390694822072983,0.0198341428913176
2024-12-07 17:55:59.697595100,10.64259521484375,-0.4226686552152037,-1.07884971370697,0.3698778530091047
2024-12-07 17:55:59.707568000,10.652568115234375,-0.5422143414415419,-1.2633651541024449,0.7140380580462515
2024-12-07 17:55:59.717541000,10.662541015625,-0.7816703094229102,-1.3122808684408664,0.9220853268072008
2024-12-07 17:55:59.727515100,10.67251513671875,-0.8110349355950951,-1.2631231620401144,0.837621767617017
2024-12-07 17:55:59.737488400,10.68248828125,-0.5844318733155727,-1.1459762075185775,0.9473224977858364
2024-12-07 17:55:59.747461400,10.69246142578125,-0.331907603316009,-1.0651987894952295,1.1562089938499034
2024-12-07 17:55:59.757434000,10.70243408203125,-0.3976666081666946,-1.0012930112957954,1.0016953084863722
2024-12-07 17:55:59.767408000,10.712408203125,-0.5662570419386029,-0.9563947159051894,0.9475383324936032
2024-12-07 17:55:59.777381000,10.722381103515623,-0.758147395016253,-0.998352866190672,0.9699017016015946
2024-12-07 17:55:59.787354000,10.73235400390625,-0.926991072896868,-1.106200077447295,1.1524813516288994
2024-12-07 17:55:59.797328100,10.742328125,-0.9988891650244592,-1.283657416024804,1.67332498826161
2024-12-07 17:55:59.807301400,10.75230126953125,-0.8582219264447688,-1.5311147580236195,2.125139950723201
2024-12-07 17:55:59.817274400,10.7622744140625,-0.543789920195192,-1.7313474075108766,2.2407881911195813
2024-12-07 17:55:59.827247000,10.7722470703125,-0.2280031383357942,-1.7266157028138636,2.112248904968053
2024-12-07 17:55:59.837221000,10.78222119140625,0.0081260233104228,-1.5282997006028889,1.8372279948696493
2024-12-07 17:55:59.847194000,10.792194091796874,0.2255271036110818,-1.321989192506671,1.367916830945015
2024-12-07 17:55:59.857167400,10.80216748046875,0.5301414802014828,-1.1164034915536645,0.8323406123436987
2024-12-07 17:55:59.867141000,10.81214111328125,0.8744437240578233,-0.9890390944004058,0.3032021717049181
2024-12-07 17:55:59.877114400,10.8221142578125,0.9622763212896884,-0.8544605280846357,-0.0330694720394909
2024-12-07 17:55:59.887087000,10.832087158203125,1.008506011414528,-0.7180681903451681,-0.1243415422007441
2024-12-07 17:55:59.897060000,10.84206005859375,1.2660687139727174,-0.576661823835969,-0.055247986099869
2024-12-07 17:55:59.907034000,10.8520341796875,1.5451156647168098,-0.5842565167486667,-0.0287076235681772
2024-12-07 17:55:59.917007000,10.862007080078126,1.4655856164060532,-0.7367951026469468,0.0074358490891754
2024-12-07 17:55:59.926980400,10.87198046875,1.476242911759764,-0.9348135832160712,-0.0562742604076862
2024-12-07 17:55:59.936954400,10.881954345703123,1.6347114722289144,-0.9939040700882672,-0.3113609282411634
2024-12-07 17:55:59.946927400,10.89192724609375,1.609401674405485,-0.8989695318967104,-0.6901467487186193
2024-12-07 17:55:59.956900000,10.901900146484374,1.418324975798279,-0.6693383539676666,-1.0769508943483233
2024-12-07 17:55:59.966873000,10.911873046875,1.2274537366352976,-0.3626432255804538,-1.345846161173284
2024-12-07 17:55:59.976847000,10.92184716796875,1.0703754614807666,-0.0037023616492748,-1.489226896495372
2024-12-07 17:55:59.986820000,10.931820068359375,0.8475251758635044,0.3119505646973848,-1.5784546013474463
2024-12-07 17:55:59.996793300,10.94179345703125,0.8788988037705421,0.4205529782354831,-1.8401669709309936
2024-12-07 17:56:00.006767400,10.951767333984376,1.2942635657131671,0.4399462454915046,-2.0861630082055926
2024-12-07 17:56:00.016740400,10.961740234375,2.0459974404253063,0.5553150844246149,-2.288873153722286
2024-12-07 17:56:00.026713000,10.971713134765626,2.947776622915268,0.8117524362146854,-2.5622750843167306
2024-12-07 17:56:00.036686000,10.98168603515625,3.4783658468842504,0.9863602305799722,-2.817559174418449
2024-12-07 17:56:00.046660000,10.99166015625,3.560920211452246,0.7197083587676286,-2.784820103377104
2024-12-07 17:56:00.056633300,11.00163330078125,2.855391769206524,0.0891027632981538,-2.420939883347601
2024-12-07 17:56:00.066606300,11.0116064453125,1.74065679538697,-0.4427478589087724,-1.9209344520822167
2024-12-07 17:56:00.076580400,11.021580322265624,0.8889991958938539,-0.7435323019474744,-1.437876794616878
2024-12-07 17:56:00.086553300,11.03155322265625,0.3827449333667755,-0.6307558175951242,-0.7698264346331357
2024-12-07 17:56:00.096526000,11.041526123046877,-0.2158474211178719,0.1551402928292751,0.0579766804113984
2024-12-07 17:56:00.106499000,11.0514990234375,-1.152371023122221,1.540733650240302,0.8837427366703748
2024-12-07 17:56:00.116473000,11.06147314453125,-2.039461316654831,2.999448357963562,1.5192682528853416
2024-12-07 17:56:00.126446300,11.0714462890625,-2.578622992527485,4.378409145492315,2.014402717113495
2024-12-07 17:56:00.136419300,11.08141943359375,-2.739510304576158,5.500750210401415,2.314116316050291
2024-12-07 17:56:00.146393300,11.091393310546875,-2.2850537415646017,6.206527658972144,2.497170743982494
2024-12-07 17:56:00.156366000,11.101365966796877,-1.3898327485464512,5.617554050573706,1.9912977358579635
2024-12-07 17:56:00.166339000,11.111339111328125,-0.4211186492942273,2.913695489615202,1.0813849312730133
2024-12-07 17:56:00.176312300,11.121312255859374,0.4240050914507359,0.2818511945098638,1.1565344264119863
2024-12-07 17:56:00.186286300,11.131286376953126,1.2138602416992186,-1.8300515273690223,1.8797125071167944
2024-12-07 17:56:00.196259300,11.14125927734375,1.576876538375765,-3.326432241141796,2.796059874793887
2024-12-07 17:56:00.206232300,11.151232421875,1.1921030948560685,-4.034790353855491,3.447056808646023
2024-12-07 17:56:00.216206300,11.161206298828125,0.2439653351645916,-4.115495875686407,3.7607048249110577
2024-12-07 17:56:00.226179000,11.171178955078124,-0.8686522811748086,-3.755084354680776,3.8393361708164218
2024-12-07 17:56:00.236152000,11.181152099609376,-1.8483352259479464,-3.026840222758054,3.782826348087191
2024-12-07 17:56:00.246125300,11.191125244140624,-2.4618273356616496,-1.9977286456882952,3.682539927473664
2024-12-07 17:56:00.256099300,11.201099365234375,-2.740657136523724,-0.7227987259984016,3.4647830194726583
2024-12-07 17:56:00.266072300,11.211072265625,-2.859078933286667,0.458424151468277,3.03486804639101
2024-12-07 17:56:00.276045300,11.22104541015625,-2.945638441842794,1.24069505713284,2.331568678371608
2024-12-07 17:56:00.286019300,11.231019287109374,-2.8618729479193687,1.6446557970076798,1.5691228555090724
2024-12-07 17:56:00.295992000,11.240991943359376,-2.741435719680786,1.6999053905427457,0.7545210212126374
2024-12-07 17:56:00.305965300,11.25096533203125,-2.609901927888393,1.4236585919111966,-0.0053050476055592
2024-12-07 17:56:00.315938000,11.26093798828125,-2.445437341874838,0.9455664478987454,-0.5249888832112773
2024-12-07 17:56:00.325912000,11.270912109375,-2.259795527797938,0.4993120421737432,-0.7457392374072224
2024-12-07 17:56:00.335885000,11.280885009765624,-2.0825382418371734,0.1575116981357336,-0.8230426226444542
2024-12-07 17:56:00.345858000,11.290858154296876,-1.913425391626358,-0.0791740744799375,-0.821293075563386
2024-12-07 17:56:00.355832000,11.30083203125,-1.6267279261291026,-0.2422042437762022,-0.6869586202017962
2024-12-07 17:56:00.365805000,11.31080517578125,-1.214603680477664,-0.2669295197099447,-0.445684898741357
2024-12-07 17:56:00.375778000,11.320778076171877,-0.76247022665143,-0.1120703819096088,-0.015368030327931
2024-12-07 17:56:00.385751000,11.3307509765625,-0.4244342766482383,0.0948924526154994,0.4537945554388686
2024-12-07 17:56:00.395725000,11.34072509765625,-0.305952858652547,0.2048760913789272,0.7784849573850632
2024-12-07 17:56:00.405698000,11.350697998046876,-0.323403102082014,0.207726220113039,0.8258239239260554
2024-12-07 17:56:00.415671000,11.360671142578123,-0.347064548176527,0.1596188995480537,0.6486296932641417
2024-12-07 17:56:00.425645000,11.37064501953125,-0.3480371195357292,0.105199327096343,0.3463168350817635
2024-12-07 17:56:00.435618000,11.3806181640625,-0.3981166900217532,-0.0264823487341403,0.0058482511041685
2024-12-07 17:56:00.445591000,11.390591064453124,-0.5631599161734804,-0.1910012952834367,-0.2949599016036838
2024-12-07 17:56:00.455565000,11.40056494140625,-0.645734191018343,-0.3365332172900438,-0.4498855287689715
2024-12-07 17:56:00.465538000,11.4105380859375,-0.5163725191006436,-0.4344844729542731,-0.5467244027445093
2024-12-07 17:56:00.475511000,11.420510986328123,-0.2605704695394262,-0.4488467603057622,-0.4748630624307319
2024-12-07 17:56:00.485484000,11.430484130859377,-0.0230196593259461,-0.3926636853128671,-0.3326336525682359
2024-12-07 17:56:00.495458000,11.4404580078125,0.1781704370166175,-0.325906024813652,-0.1368249570030719
2024-12-07 17:56:00.505431000,11.45043115234375,0.3024783692087047,-0.144191028791666,0.1227463271648622
2024-12-07 17:56:00.515404000,11.460404052734376,0.35354923402071,0.0198164611041545,0.3160445925453677
