time,seconds_elapsed,z,y,x
2024-12-07 18:24:07.430488800,0.00948876953125,-0.1145014084488153,0.0562719223201274,0.3443418452143669
2024-12-07 18:24:07.440462800,0.019462890625,-0.0784033823683857,-0.1514157193481922,-0.0555070754274725
2024-12-07 18:24:07.450435600,0.029435546875,0.0240562906309962,-0.1473930397033691,-0.1299956224396824
2024-12-07 18:24:07.460409600,0.03940966796875,0.0746884534984827,0.0686480042904615,0.0862704624816775
2024-12-07 18:24:07.470383600,0.049383544921875,0.0714174690037965,0.2448632338523864,0.3773945122495293
2024-12-07 18:24:07.480357600,0.059357666015625,-0.0380269483163952,0.113054716771841,0.2454971478417515
2024-12-07 18:24:07.490331600,0.06933154296875,-0.1343424194723367,-0.0642892245590686,0.0137350953638553
2024-12-07 18:24:07.500305700,0.0793056640625,-0.0977688848346471,-0.0710012894183397,0.0365352484539151
2024-12-07 18:24:07.510279700,0.08927978515625,-0.082196344910562,-0.1328565648287534,-0.0485424971118569
2024-12-07 18:24:07.520253700,0.099253662109375,-0.1171177284270525,-0.9085966074198484,-0.8597448982283472
2024-12-07 18:24:07.530227700,0.109227783203125,0.3757113814681768,-2.2271178315550086,-2.0617881531447173
2024-12-07 18:24:07.540200700,0.11920068359375,0.6812976718306542,-1.3459201031923294,-1.4095532019302248
2024-12-07 18:24:07.550174700,0.1291748046875,0.5576309601515531,-0.9591337854802608,-1.0484209654346108
2024-12-07 18:24:07.560148700,0.139148681640625,0.219297561571747,-0.981356723204255,-0.670633946736157
2024-12-07 18:24:07.570122800,0.149122802734375,-0.0368424147069454,-1.025395186895132,-0.2683364638984203
2024-12-07 18:24:07.580096800,0.1590966796875,-0.0329646964907646,-0.9532762916237116,-0.0973182184576988
2024-12-07 18:24:07.590070800,0.16907080078125,-0.1283499010592699,-0.6982371161937713,-0.0887903363481164
2024-12-07 18:24:07.600044800,0.179044921875,-0.2070738936841487,-0.6896487360686063,0.2571829094603657
2024-12-07 18:24:07.610018800,0.189018798828125,-0.2852536964297294,-0.2667097394794225,0.3154541889041662
2024-12-07 18:24:07.619992800,0.198992919921875,-0.3981465006381273,-0.0268032512515783,0.4328130326107144
2024-12-07 18:24:07.629966800,0.208966796875,-0.3371089713513851,0.0935924759328365,0.4727396770685911
2024-12-07 18:24:07.639939800,0.21893994140625,-0.1105877421364188,0.0320189400732517,0.3044415042415261
2024-12-07 18:24:07.649913900,0.228913818359375,0.1563128437399864,-0.0585106411576271,0.154379537589848
2024-12-07 18:24:07.659887900,0.238887939453125,0.2214906877018511,-0.0370639485031366,0.0819490921512246
2024-12-07 18:24:07.669862000,0.24886181640625,0.1371054544448852,-0.1197656125873327,0.1604138493180275
2024-12-07 18:24:07.679836000,0.2588359375,-0.0863689544200897,-0.35472412301898,0.657537733797729
2024-12-07 18:24:07.689810000,0.268809814453125,-0.0536252072036266,-0.311935367128253,0.855627526037395
2024-12-07 18:24:07.699783700,0.27878369140625,0.0449637618422508,-0.1690145044028758,0.6896373378917574
2024-12-07 18:24:07.709757700,0.2887578125,0.0269913211695849,-0.116566524285078,0.5646683114424348
2024-12-07 18:24:07.719731700,0.298731689453125,0.0671072045892477,-0.0096627313584089,0.3657230714172124
2024-12-07 18:24:07.729704700,0.30870458984375,0.1357623692728579,-0.0638479105323553,0.1440209329217672
2024-12-07 18:24:07.739678700,0.3186787109375,0.2351823823153972,-0.1147311255514621,-0.0506654806151986
2024-12-07 18:24:07.749652700,0.32865283203125,0.2108927213199436,-0.1589969682574272,-0.1593745693981647
2024-12-07 18:24:07.759626800,0.338626708984375,0.1047146123193204,-0.0466629669755697,-0.1293611239284277
2024-12-07 18:24:07.769600500,0.3486005859375,0.0210142925865948,0.0729646984457969,-0.0976654244601726
2024-12-07 18:24:07.779574500,0.358574462890625,-0.0334311449587345,0.1588876626640558,-0.0213619369804859
2024-12-07 18:24:07.789548500,0.368548583984375,-0.0288167830310761,0.113142395055294,0.0700102325543761
2024-12-07 18:24:07.799522600,0.3785224609375,0.0590611146472394,0.0128279173910617,0.2269882622048258
2024-12-07 18:24:07.809496600,0.38849658203125,0.4901145902395248,-0.2633651052266359,0.2107961290776729
2024-12-07 18:24:07.819469600,0.398469482421875,0.394685546529293,-0.1166238074302673,0.368581091196835
2024-12-07 18:24:07.829443600,0.408443603515625,0.1811228753477335,0.0977221230834722,0.5098565248027443
2024-12-07 18:24:07.839417600,0.41841748046875,-0.0413495899330824,0.4314063806831836,0.696348525968194
2024-12-07 18:24:07.849391600,0.4283916015625,-0.302982391474396,1.0673334634363651,0.8173726141840219
2024-12-07 18:24:07.859365600,0.43836572265625,-0.5171458050280809,1.5620371350318192,0.7894970575258136
2024-12-07 18:24:07.869339600,0.448339599609375,-0.4813162206254899,1.734636512184143,0.5747635889992118
2024-12-07 18:24:07.879313700,0.458313720703125,-0.3639174832999706,1.766783462551236,0.1830199411407113
2024-12-07 18:24:07.889287700,0.46828759765625,-0.2163355699609964,1.6943255445837972,-0.2195575276821851
2024-12-07 18:24:07.899261700,0.47826171875,-0.1433710907109081,-1.5478776767760514,-1.3536790467560291
2024-12-07 18:24:07.909234700,0.488234619140625,0.7583983741026371,-3.96559932872951,-1.7492077661111949
2024-12-07 18:24:07.919208700,0.498208740234375,1.1231886947143823,-1.5644202307760715,0.1844698476880788
2024-12-07 18:24:07.929182700,0.5081826171875,0.6854834330826998,-1.3867331750959158,0.6259118846952915
2024-12-07 18:24:07.939156700,0.51815673828125,0.0329448227465152,-1.006038159996271,0.7533097457267344
2024-12-07 18:24:07.949130800,0.528130859375,-0.3719703683089465,-0.8112760508745909,0.6430757854640483
2024-12-07 18:24:07.959104800,0.538104736328125,-0.5182816041249781,0.2348649869292974,0.826471866440773
2024-12-07 18:24:07.969078800,0.548078857421875,-0.4514900413561612,1.1763853743076325,0.7802360388360917
2024-12-07 18:24:07.979052800,0.558052734375,-0.1587854443985968,1.8162480429440733,0.4983963886335492
2024-12-07 18:24:07.989026800,0.56802685546875,-0.1255267333973199,1.7504022365927696,0.0285104935608804
2024-12-07 18:24:07.998999800,0.577999755859375,-0.1794698109110817,1.227985213163495,-0.4841134501285851
2024-12-07 18:24:08.008973800,0.587973876953125,-0.2963548996260389,0.766715024614334,-0.5854908808492124
2024-12-07 18:24:08.018947800,0.59794775390625,-0.4095779952347278,0.6062994217306376,-0.3909409531734883
2024-12-07 18:24:08.028921900,0.607921875,-0.4794271920084953,-0.0233341138362884,-0.2206868239730596
2024-12-07 18:24:08.038895900,0.617895751953125,-0.4340542283108458,-0.5981845043361187,-0.06078516196087
2024-12-07 18:24:08.048870000,0.627869873046875,-0.3536304460307583,-0.8305775481939315,0.1021712114468216
2024-12-07 18:24:08.058844000,0.637843994140625,-0.1131593096574768,-0.8530775492936372,0.2691062792271375
2024-12-07 18:24:08.068818000,0.64781787109375,0.2020248301336541,-0.3226315331876278,0.5674203866295516
2024-12-07 18:24:08.078791700,0.657791748046875,0.2666782118299975,0.4171709345817566,0.828165226355195
2024-12-07 18:24:08.088764700,0.6677646484375,-0.1046539316406473,0.1954553520828485,0.3976205770678818
2024-12-07 18:24:08.098738700,0.67773876953125,-0.4604337377250194,0.048922728601098,0.091131638777256
2024-12-07 18:24:08.108712700,0.687712646484375,-0.7233049219548702,-0.0475309819817543,-0.0473774719204753
2024-12-07 18:24:08.118686700,0.697686767578125,-0.7764344545960425,-0.0507207179337739,-0.1464283593896776
2024-12-07 18:24:08.128660700,0.70766064453125,-0.6762117468684912,0.0932283187955617,-0.0435552102185785
2024-12-07 18:24:08.138634800,0.717634765625,-0.5472942750543356,0.2035539028644561,0.0088586849665269
2024-12-07 18:24:08.148608800,0.72760888671875,-0.3999053270041942,0.3910305311530828,0.0010254705902189
2024-12-07 18:24:08.158582800,0.737582763671875,-0.2573877843827009,0.5287000492215156,0.0415084702892228
2024-12-07 18:24:08.168556800,0.747556884765625,-0.346801513326168,0.7492547712475061,-0.0068086571015417
2024-12-07 18:24:08.178529800,0.75752978515625,-0.5422364802081138,0.7807891426742076,-0.0831233052960597
2024-12-07 18:24:08.188503800,0.76750390625,-0.6432008731484413,0.9162766405284404,-0.1200229666155763
2024-12-07 18:24:08.198477800,0.777477783203125,-0.7462479906469583,0.7932248458772897,-0.2639756383404135
2024-12-07 18:24:08.208451800,0.787451904296875,-0.6703063222169876,0.6753846483945846,-0.2006241695554927
2024-12-07 18:24:08.218425900,0.79742578125,-0.7990325823079795,0.8603454944700002,-0.0137134908868232
2024-12-07 18:24:08.228399900,0.80739990234375,-0.9493149137120692,0.8614005564808845,0.2865118249983526
2024-12-07 18:24:08.238373600,0.81737353515625,-0.7771737286560237,0.5848100589781999,0.513599693386443
2024-12-07 18:24:08.248347600,0.82734765625,-0.3579739916604012,0.7067465858638287,0.8264633178081363
2024-12-07 18:24:08.258321700,0.83732177734375,-0.4473707694690674,1.018744496834278,0.5756941113149747
2024-12-07 18:24:08.268295000,0.847294921875,-0.7477974851112812,1.0766536649674177,0.1859194619745016
2024-12-07 18:24:08.278269000,0.85726904296875,-0.8715453722678125,1.285442545875907,0.2608093563292175
2024-12-07 18:24:08.288243000,0.867242919921875,-0.9475501690618692,1.489531870791316,0.1525423304916359
2024-12-07 18:24:08.298216700,0.877216796875,-0.8615279822528362,2.0440356388330456,0.2434148982075974
2024-12-07 18:24:08.308190700,0.887190673828125,-0.7299294546611607,1.534823549413681,0.1454982024000957
2024-12-07 18:24:08.318164700,0.897164794921875,-1.399247934884578,0.2171773545473813,-0.2404819500282406
2024-12-07 18:24:08.328138800,0.907138671875,-1.6946306650102136,-0.0375450100183486,-0.0116360772579908
2024-12-07 18:24:08.338112800,0.91711279296875,-1.6220329001806677,-0.1573170523464679,0.2978223783627152
2024-12-07 18:24:08.348086800,0.927086669921875,-1.11119379408136,-0.2880997335106134,0.472620434603095
2024-12-07 18:24:08.358059500,0.9370595703125,-0.3626915947668254,-0.299475114005804,0.5115672011781484
2024-12-07 18:24:08.368033500,0.947033447265625,0.4660575689561664,-0.2682441094398498,0.3887347483661025
2024-12-07 18:24:08.378007600,0.957007568359375,1.1019698925316332,-0.2507470311939716,0.3100751992795616
2024-12-07 18:24:08.387981600,0.966981689453125,1.276610566253215,-0.1987631614565849,0.3597499152917415
2024-12-07 18:24:08.397955600,0.97695556640625,0.9043483023256064,0.0312824424922466,0.3898223244071006
2024-12-07 18:24:08.407929600,0.9869296875,0.7926398855961859,0.3354740636259317,0.1391192784853279
2024-12-07 18:24:08.417903600,0.996903564453125,0.5300893116228282,0.4439280086040497,0.1146006310395896
2024-12-07 18:24:08.427877600,1.006877685546875,0.4323552058406174,0.4967950909167528,-0.0138148826017975
2024-12-07 18:24:08.437851600,1.0168515625,0.5263080395184457,0.4957008659392595,-0.3178321700818836
2024-12-07 18:24:08.447824600,1.02682470703125,0.5443837944351136,0.3874123406559229,-0.3718077981583774
2024-12-07 18:24:08.457798700,1.036798583984375,0.5144248556315899,0.2827805843144655,-0.2282226263053715
2024-12-07 18:24:08.467772700,1.046772705078125,0.4516553879857063,0.0530365936607122,-0.2911401241198182
2024-12-07 18:24:08.477746700,1.05674658203125,0.4705595565505325,-0.1289572193026542,-0.4993132112175226
2024-12-07 18:24:08.487720700,1.066720703125,0.4554239467389881,-0.2549146722674369,-0.6192375214979052
2024-12-07 18:24:08.497694700,1.07669482421875,0.50371933722198,-0.4083060756027698,-0.7978909379921854
2024-12-07 18:24:08.507668700,1.086668701171875,0.5864047808237374,-0.5321452212393284,-0.8080071122065186
2024-12-07 18:24:08.517642800,1.096642822265625,0.5774392379492521,-0.5382978986501693,-0.7381476862996816
2024-12-07 18:24:08.527616800,1.10661669921875,0.5358082737915217,-0.5175292513877153,-0.6009698972709476
2024-12-07 18:24:08.537589800,1.11658984375,0.5288327356904745,-0.6306383286952972,-0.6912221228651702
2024-12-07 18:24:08.547563800,1.126563720703125,0.528759085932374,-0.7648889782309531,-0.7605987336911261
2024-12-07 18:24:08.557537800,1.136537841796875,0.410345034084469,-0.924101050543785,-0.6119847738906741
2024-12-07 18:24:08.567511800,1.14651171875,0.2932072857826948,-1.1616904940009116,-0.4573929087243974
2024-12-07 18:24:08.577485800,1.15648583984375,0.0584802460193634,-1.3852619334995746,-0.4698109301403164
2024-12-07 18:24:08.587459800,1.1664599609375,-0.1830436142772436,-1.4356062193363903,-0.164662300542742
2024-12-07 18:24:08.597433900,1.176433837890625,-0.6493389375120401,-1.536800402444601,-0.1353717625200748
2024-12-07 18:24:08.607407900,1.186407958984375,-0.998895302504301,-1.544082960668206,-0.0902688844680786
2024-12-07 18:24:08.617380600,1.196380615234375,-1.368942082339525,-1.5422972462952136,-0.0015333470471203
2024-12-07 18:24:08.627354600,1.206354736328125,-1.8316572089999912,-1.605138025611639,-0.0187327575206756
2024-12-07 18:24:08.637328600,1.21632861328125,-1.9311662155002352,-1.7349936550587417,0.0697648794911801
2024-12-07 18:24:08.647302700,1.226302734375,-1.7867051375955345,-1.9868962860286232,0.2470513915464282
2024-12-07 18:24:08.657276700,1.236276611328125,-1.595816655036807,-2.201128819295764,0.4176927664987743
2024-12-07 18:24:08.667250700,1.246250732421875,-1.4252648580640557,-2.33388718444705,0.5769103917695582
2024-12-07 18:24:08.677224700,1.256224609375,-1.4749527258187531,-2.327255199086666,0.6663491090238094
2024-12-07 18:24:08.687198700,1.26619873046875,-1.4173907636880874,-2.510146837672591,0.9291967662476004
2024-12-07 18:24:08.697172700,1.2761728515625,-1.1890163078218698,-2.457311319541931,1.2650854020237925
2024-12-07 18:24:08.707145700,1.286145751953125,-1.021472460493445,-1.7486872493684291,1.504130158855766
2024-12-07 18:24:08.717119700,1.29611962890625,-0.7723994999915361,-0.914192235469818,1.5310048679083583
2024-12-07 18:24:08.727093800,1.30609375,-0.654764469692111,0.1354179397493601,1.317488666217029
2024-12-07 18:24:08.737067800,1.31606787109375,-0.5793360114812851,1.5620137541562318,1.0448336084671317
2024-12-07 18:24:08.747041800,1.326041748046875,-0.4455266759723424,3.042806438174844,0.5863426753729581
2024-12-07 18:24:08.757015800,1.336015869140625,-0.534169420543313,4.10066304821372,0.3129346072986722
2024-12-07 18:24:08.766989800,1.34598974609375,-0.5139408715069294,4.307684919449687,0.4119296729274094
2024-12-07 18:24:08.776963600,1.355963623046875,-0.850742968866229,3.614948154237866,0.6572586245954036
2024-12-07 18:24:08.786937600,1.3659375,-0.945069677357748,2.319611990857124,1.0108408110376448
2024-12-07 18:24:08.796910800,1.375910888671875,-0.6178981626529246,0.8717904330700635,1.2058588676817714
2024-12-07 18:24:08.806884900,1.385884765625,-0.3710709352511912,-0.4116659074246883,1.2918234790846703
2024-12-07 18:24:08.816859000,1.39585888671875,-0.3213216926980763,-1.57044665145874,1.114533021506667
2024-12-07 18:24:08.826833000,1.4058330078125,-0.3745008366346359,-2.3057640827685595,0.6004793372750282
2024-12-07 18:24:08.836806700,1.415806640625,-0.2606646140962839,-2.326283723706007,0.1210671236399561
2024-12-07 18:24:08.846780700,1.42578076171875,-0.0096815091241151,-1.8020874156445263,-0.2898649165522307
2024-12-07 18:24:08.856754700,1.435754638671875,0.190818412997201,-1.0891928285449743,-0.6914144305668771
2024-12-07 18:24:08.866728700,1.445728759765625,0.4774480008900165,-0.3561293136417865,-0.8693717545557766
2024-12-07 18:24:08.876702700,1.45570263671875,0.7038561251193285,0.3113917617708444,-0.8151232278220355
2024-12-07 18:24:08.886675700,1.46567578125,0.901032236580178,0.7425292623847722,-0.4404905815012753
2024-12-07 18:24:08.896649500,1.4756494140625,0.9849053555965424,0.8141998293668031,-0.1505485811248421
2024-12-07 18:24:08.906623500,1.48562353515625,1.2394336588948964,0.7465905204743146,0.0373473685543984
2024-12-07 18:24:08.916597200,1.49559716796875,1.4332546877741812,0.678615885400772,0.1472860721975565
2024-12-07 18:24:08.926571300,1.5055712890625,1.4593886614620686,0.6133493402421474,0.1963993549346923
2024-12-07 18:24:08.936545300,1.515545166015625,1.2002526451725513,0.6250853707432746,0.2496316903632134
2024-12-07 18:24:08.946519300,1.525519287109375,0.8961369388192891,0.6255681858241557,0.2997815496064722
2024-12-07 18:24:08.956493300,1.535493408203125,0.6867144361823797,0.623188012689352,0.2573180801473558
2024-12-07 18:24:08.966467300,1.54546728515625,0.6234329273611307,0.4589011213302612,0.113253308083862
2024-12-07 18:24:08.976440300,1.5554404296875,0.6485206068664788,0.2098024418652057,-0.3124735656581819
2024-12-07 18:24:08.986414300,1.565414306640625,0.7052835275739431,0.0062783496171236,-0.7279578623272478
2024-12-07 18:24:08.996388400,1.575388427734375,0.7259656655967235,-0.0849444745749235,-0.8572735396787524
2024-12-07 18:24:09.006362400,1.5853623046875,0.6682575729936361,-0.146020582306385,-0.797386933992803
2024-12-07 18:24:09.016336400,1.59533642578125,0.6676356417030096,-0.2640308756589889,-0.6713526894647628
2024-12-07 18:24:09.026310400,1.605310302734375,0.8595411923497914,-0.3263438317090272,-0.4756142095915973
2024-12-07 18:24:09.036284400,1.615284423828125,1.1882558448433875,-0.2089735898256301,-0.1867940528519451
2024-12-07 18:24:09.046258400,1.625258544921875,1.503683730262518,-0.0042681788384914,0.1435921861156821
2024-12-07 18:24:09.056232400,1.635232421875,1.503839797607064,0.2238525945276021,0.4084490642700344
2024-12-07 18:24:09.066205200,1.645205078125,1.2961889808177949,0.3632096272915601,0.6193760531857609
2024-12-07 18:24:09.076179200,1.65517919921875,1.065500402790308,0.3627572073489427,0.8374922960184514
2024-12-07 18:24:09.086153200,1.6651533203125,0.8663298295766114,0.1599625984191894,0.90436693396084
2024-12-07 18:24:09.096127200,1.675127197265625,0.7999135298609733,-0.0717921475350856,0.8517065532013773
2024-12-07 18:24:09.106101200,1.685101318359375,0.90505031311512,-0.2237655007660388,0.6342894716139883
2024-12-07 18:24:09.116075300,1.6950751953125,0.967184405466914,-0.2476958269298076,0.3336503553301095
2024-12-07 18:24:09.126049300,1.70504931640625,0.9672364279150962,-0.0996849475890398,0.0960604004163295
2024-12-07 18:24:09.136023300,1.715023193359375,0.8463058632016182,-0.0406593426465988,-0.1261355129454285
2024-12-07 18:24:09.145996300,1.724996337890625,0.6473679297000169,-0.0684299776256084,-0.3135794810734689
2024-12-07 18:24:09.155970300,1.73497021484375,0.4213391601771116,-0.0497679472535848,-0.4140990528557449
2024-12-07 18:24:09.165944300,1.7449443359375,0.2407347557455301,0.0024795418560504,-0.4330260177742689
2024-12-07 18:24:09.175918300,1.75491845703125,0.2115735431909561,-0.0199228440880775,-0.4548346756089478
2024-12-07 18:24:09.185892400,1.764892333984375,0.1074777934223413,-0.0506692800074815,-0.5570138511665165
2024-12-07 18:24:09.195866400,1.774866455078125,0.0190437243076332,-0.018413024047017,-0.574107609308511
2024-12-07 18:24:09.205840400,1.78484033203125,-0.0566670591175556,0.0193079270601272,-0.5782546459853649
2024-12-07 18:24:09.215814400,1.794814453125,-0.1588075831651687,0.037497663745284,-0.6232085440207272
2024-12-07 18:24:09.225788400,1.804788330078125,-0.2193722342431545,0.1278232468366623,-0.6433732340406626
2024-12-07 18:24:09.235761400,1.814761474609375,-0.3010591683268547,0.1786456715792417,-0.6206419084031134
2024-12-07 18:24:09.245735400,1.8247353515625,-0.3288473389625549,0.1814917086601257,-0.5407967297285795
2024-12-07 18:24:09.255709400,1.83470947265625,-0.3495920208275317,0.1373760880798101,-0.4119518116939812
2024-12-07 18:24:09.265683500,1.844683349609375,-0.4183727115869521,0.15080430945158,-0.1700247043587267
2024-12-07 18:24:09.275657500,1.854657470703125,-0.4187959054350852,0.1824573388218879,0.1335903589960187
2024-12-07 18:24:09.285631500,1.864631591796875,-0.4661386713683605,0.2141553763777017,0.3731512486565858
2024-12-07 18:24:09.295605500,1.87460546875,-0.5717816505789757,0.0925181246995925,0.5821611519046127
2024-12-07 18:24:09.305579500,1.88457958984375,-0.6195593007981777,0.014793079984188,0.7684417753417044
2024-12-07 18:24:09.315553500,1.894553466796875,-0.6994377241551876,-0.0332540348261594,0.8851246194828302
2024-12-07 18:24:09.325526500,1.904526611328125,-0.7430173381626606,-0.07640928594172,0.9031588733453304
2024-12-07 18:24:09.335500500,1.91450048828125,-0.7355810506820678,-0.1722001487016677,0.8270400947827845
2024-12-07 18:24:09.345474300,1.924474365234375,-0.6443219861328602,-0.231516261023283,0.7820218993395567
2024-12-07 18:24:09.355448300,1.9344482421875,-0.6164601657390594,-0.1920107645869255,0.793753838187456
2024-12-07 18:24:09.365422300,1.94442236328125,-0.6633364832043648,-0.1242646775722503,0.8695015914805233
2024-12-07 18:24:09.375396400,1.954396240234375,-0.6726046622872353,-0.0457487747400999,0.9910382323283702
2024-12-07 18:24:09.385370400,1.964370361328125,-0.6037585050761699,0.0321025267034769,1.0833817311134188
2024-12-07 18:24:09.395344400,1.974344482421875,-0.6586871960937977,0.1134837558388709,1.0500719475120306
2024-12-07 18:24:09.405318100,1.984318115234375,-0.8300818736314773,0.0634369916439056,0.9765023419756442
2024-12-07 18:24:09.415291400,1.99429150390625,-0.9713841952443122,-0.0531663575202226,0.9042821052215992
2024-12-07 18:24:09.425265400,2.004265380859375,-1.0510077670574187,-0.2207154655456542,0.8053536750882864
2024-12-07 18:24:09.435239400,2.014239501953125,-0.9422902027070522,-0.3119756991386413,0.7551338924139738
2024-12-07 18:24:09.445213400,2.02421337890625,-0.7697825954914093,-0.4008791404724121,0.791919754628092
2024-12-07 18:24:09.455187200,2.034187255859375,-0.711287151902914,-0.4034890307098627,0.8829878997150808
2024-12-07 18:24:09.465161200,2.0441611328125,-0.6373182448506355,-0.2939104656159877,1.1271550410620867
2024-12-07 18:24:09.475135200,2.05413525390625,-0.5028384262016042,-0.0759913527905941,1.3868189536832272
2024-12-07 18:24:09.485109200,2.064109130859375,-0.2029670428872108,0.0929588542044162,1.6719830721333622
2024-12-07 18:24:09.495082500,2.07408251953125,0.1200853460609912,0.3416068672925234,1.984825324973464
2024-12-07 18:24:09.505056300,2.08405615234375,0.2880663974965922,0.3442857311129569,2.182417250693589
2024-12-07 18:24:09.515030300,2.0940302734375,0.1819651713907718,0.0976052187055349,2.184027316238731
2024-12-07 18:24:09.525004300,2.10400439453125,-0.0159247326289303,-0.0923790084898471,2.1953594421140847
2024-12-07 18:24:09.534978300,2.113978271484375,-0.4380898405024782,-0.276104759812355,2.0848235762953755
2024-12-07 18:24:09.544952300,2.123952392578125,-1.0603928505182263,-0.3661240534335375,1.853954819395393
2024-12-07 18:24:09.554926300,2.13392626953125,-1.611340971904993,-0.086564184731245,1.6424208775624631
2024-12-07 18:24:09.564900400,2.143900390625,-1.9203028761804104,0.2456727966696023,1.3530838573418558
2024-12-07 18:24:09.574874400,2.153874267578125,-2.111031199741364,0.3970581208795309,1.07374464565292
2024-12-07 18:24:09.584847400,2.163847412109375,-1.9819711045861244,0.3707546358436346,0.8910079784329981
2024-12-07 18:24:09.594821400,2.1738212890625,-1.5737246502161024,0.2830915499597787,0.8306842965040355
2024-12-07 18:24:09.604795400,2.18379541015625,-1.155156708317995,0.1750917784899473,0.8128109322916716
2024-12-07 18:24:09.614769400,2.193769287109375,-0.7266022099345922,0.0221902044981718,0.5641364695880562
2024-12-07 18:24:09.624743400,2.203743408203125,-0.3153741094052791,-0.0225146141469478,0.114752898991853
2024-12-07 18:24:09.634717400,2.213717529296875,-0.0576969501545652,0.3117337070763111,-0.2608866593491286
2024-12-07 18:24:09.644691500,2.22369140625,-0.1616214350095018,1.0057897381931542,-0.6029413434743881
2024-12-07 18:24:09.654665500,2.23366552734375,-0.5467583415467292,1.8881682007730003,-0.93154712876603
2024-12-07 18:24:09.664639500,2.243639404296875,-0.87434757020697,2.70317759295702,-1.3222449208334088
2024-12-07 18:24:09.674612200,2.2536123046875,-1.1307470742046832,3.273561067175865,-1.7860577796027064
2024-12-07 18:24:09.684586200,2.263586181640625,-1.3202642684102055,3.5105893696188923,-2.249708579678088
2024-12-07 18:24:09.694560300,2.273560302734375,-1.3578865814484655,3.3266192881464955,-2.500734281682968
2024-12-07 18:24:09.704534300,2.2835341796875,-1.0872785193562506,2.6503403212606904,-2.644180629587173
2024-12-07 18:24:09.714508300,2.29350830078125,-0.3708078273355961,1.8177888426452875,-2.7700457280933857
2024-12-07 18:24:09.724482300,2.303482421875,0.2266265892855823,1.261150985184312,-2.73301743542552
2024-12-07 18:24:09.734456300,2.313456298828125,0.4593851054549216,1.0164128390163183,-2.3338714023560283
2024-12-07 18:24:09.744430300,2.323430419921875,0.3331587724208831,1.0024158778458834,-1.8916198025316
2024-12-07 18:24:09.754403300,2.3334033203125,0.3979389953672885,1.1060972015947104,-1.464645705207437
2024-12-07 18:24:09.764377300,2.34337744140625,0.4325251555800438,1.1963988192886112,-1.1342302401453257
2024-12-07 18:24:09.774351400,2.353351318359375,0.4703798160694539,1.2067004330724478,-0.7708987400397658
2024-12-07 18:24:09.784325400,2.363325439453125,1.0161305149435995,1.1244488508433104,-0.5243989910267293
2024-12-07 18:24:09.794299400,2.37329931640625,1.667391944950819,0.9459054705947636,-0.439229329393804
2024-12-07 18:24:09.804273400,2.3832734375,2.107916428721696,0.716266693881154,-0.3924485812574624
2024-12-07 18:24:09.814247400,2.393247314453125,1.9561131713606417,0.4720066866189241,-0.2799947529882192
2024-12-07 18:24:09.824221400,2.403221435546875,1.501974880518019,0.1404524267852306,-0.310894625903666
2024-12-07 18:24:09.834195500,2.413195556640625,1.449672738611698,-0.2180705039948225,-0.3690066231325268
2024-12-07 18:24:09.844168400,2.42316845703125,1.6717741055577993,-0.6042220309346914,-0.5542015702247619
2024-12-07 18:24:09.854142500,2.433142578125,1.668034919029474,-0.8688549641400575,-0.6789514009654521
2024-12-07 18:24:09.864116500,2.443116455078125,1.2720800832167267,-0.911719707876444,-0.7027525477916002
2024-12-07 18:24:09.874090500,2.453090576171875,1.2515724249780178,-0.9480284540981052,-0.7352806064307689
2024-12-07 18:24:09.884064500,2.463064453125,1.2863070537507533,-0.9484516479462384,-0.6765045923352241
2024-12-07 18:24:09.894039000,2.4730390625,0.8731114525407552,-0.8361451191931962,-0.5214627914443611
2024-12-07 18:24:09.904013000,2.483012939453125,0.6941231050036847,-0.9096756348282098,-0.7589420525252819
2024-12-07 18:24:09.913987000,2.492987060546875,0.7760873947240412,-1.0592717375338077,-1.045958959235251
2024-12-07 18:24:09.923961000,2.502961181640625,0.9236955384828148,-1.275818392962217,-1.0887135205954313
2024-12-07 18:24:09.933934300,2.512934326171875,0.9088720633603632,-1.4110475321412086,-0.9378121805101632
2024-12-07 18:24:09.943908000,2.522908203125,0.5568981158323586,-1.5937825188606976,-0.849500859850645
2024-12-07 18:24:09.953882000,2.532882080078125,0.1682213081985712,-1.8773352565914392,-0.9930001069858668
2024-12-07 18:24:09.963856100,2.542856201171875,-0.0218003283977508,-2.135015301918984,-1.6073817128852008
2024-12-07 18:24:09.973830100,2.552830078125,-0.2388023263782262,-2.276437450519204,-1.9648381834775208
2024-12-07 18:24:09.983804200,2.56280419921875,-0.4600299792297184,-2.47305366307497,-2.0505936821743846
2024-12-07 18:24:09.993778200,2.572778076171875,-0.6652127984702587,-2.597334707260132,-2.019525759215653
2024-12-07 18:24:10.003752200,2.582752197265625,-1.0345229345940052,-2.568722360759973,-1.720585482738912
2024-12-07 18:24:10.013726200,2.592726318359375,-1.314138040614873,-2.3307453792899846,-1.030091528017819
2024-12-07 18:24:10.023699000,2.602698974609375,-1.575994933235645,-1.971345081153512,-0.2805184846013784
2024-12-07 18:24:10.033673000,2.6126728515625,-1.6950065125852822,-1.544391003704071,0.3408309144839644
2024-12-07 18:24:10.043647000,2.62264697265625,-1.5745529177337885,-1.2626263184338806,0.8038263193905353
2024-12-07 18:24:10.053621000,2.63262109375,-1.226795126596093,-1.2060855160444974,1.0705568093970417
2024-12-07 18:24:10.063595000,2.642594970703125,-0.901093246052414,-1.2579413754880429,1.3529638842239975
2024-12-07 18:24:10.073569000,2.652569091796875,-0.5536994659215212,-1.29297118781507,1.6910297179087996
2024-12-07 18:24:10.083543000,2.66254296875,-0.4603286699153482,-1.132584226503968,1.93165224545151
2024-12-07 18:24:10.093517000,2.67251708984375,-0.7376094877697527,-0.5703057328075171,2.2583055815011264
2024-12-07 18:24:10.103490000,2.682489990234375,-1.2636774349220097,0.2304138527393341,2.5961101339012385
2024-12-07 18:24:10.113464000,2.692464111328125,-1.861501727643609,0.9573527472823856,2.699835589052737
2024-12-07 18:24:10.123438000,2.70243798828125,-2.386456160596013,1.3757956014961004,2.7398510808378456
2024-12-07 18:24:10.133412000,2.712412109375,-2.7755659528195857,1.3611235175430774,2.794790293249488
2024-12-07 18:24:10.143386000,2.72238623046875,-2.757961322546005,0.9442313999027012,2.750332142841816
2024-12-07 18:24:10.153360100,2.732360107421875,-2.3303648555397984,0.2970639612108469,2.587451903410256
2024-12-07 18:24:10.163334100,2.742334228515625,-1.739697887226939,-0.3712842126756906,2.425741584540904
2024-12-07 18:24:10.173308200,2.75230810546875,-1.1902829667568209,-0.7907201695799827,2.3932401216477155
2024-12-07 18:24:10.183282200,2.7622822265625,-0.7380646841913461,-0.9254413592368363,2.113065189787
2024-12-07 18:24:10.193255200,2.772255126953125,-0.323860198199749,-0.6240116040319204,1.6235785221874712
2024-12-07 18:24:10.203229200,2.782229248046875,0.1252017392266541,0.1120820723474025,1.0001694140933453
2024-12-07 18:24:10.213203200,2.792203125,0.2129320451278239,1.1891086622804403,0.442497829670459
2024-12-07 18:24:10.223177200,2.80217724609375,0.0197767136156559,2.3336790946543213,0.0742367642082273
2024-12-07 18:24:10.233151200,2.812151123046875,-0.3204764009803533,3.3098259742558,0.0761713855326175
2024-12-07 18:24:10.243125200,2.822125244140625,-0.942969417142868,3.80071505599916,0.3270782834634184
2024-12-07 18:24:10.253099300,2.832099365234375,-1.4487304893255233,3.478949199730158,0.8238958784729242
2024-12-07 18:24:10.263073300,2.8420732421875,-1.103410154467821,2.386052840492129,0.978524860779196
2024-12-07 18:24:10.273047300,2.85204736328125,-0.0387209949951618,1.2099229022502898,0.343948169721663
2024-12-07 18:24:10.283020300,2.862020263671875,1.1479665045529603,0.3181014885425567,-0.1490622880898416
2024-12-07 18:24:10.292994300,2.871994384765625,1.762204902589321,-0.5402262363642454,-0.3840414029181003
2024-12-07 18:24:10.302968300,2.88196826171875,1.4058032017469406,-1.792912175542116,-0.7247232643201946
2024-12-07 18:24:10.312942300,2.8919423828125,0.6211796685416251,-3.008486235421896,-1.681623883920908
2024-12-07 18:24:10.322916400,2.901916259765625,0.0015648381639271,-3.674046824416518,-2.627581961485743
2024-12-07 18:24:10.332890400,2.911890380859375,-0.327011940228939,-3.623777357381582,-3.4918472597479817
2024-12-07 18:24:10.342864100,2.921864013671875,-0.0667898092031478,-2.656275556528568,-3.892736337092519
2024-12-07 18:24:10.352838100,2.931838134765625,0.5776080917101353,-1.1865069553494452,-3.623880233234167
2024-12-07 18:24:10.362811100,2.94181103515625,1.21512573159039,0.266568869704008,-2.853789594706893
2024-12-07 18:24:10.372785200,2.95178515625,1.5560650748848914,1.3051894488751887,-2.130675665279478
2024-12-07 18:24:10.382759200,2.96175927734375,1.7611375656187531,1.884621906468272,-1.4922896450668572
2024-12-07 18:24:10.392733200,2.971733154296875,1.9401906489551064,2.0618992123037576,-1.0552338603198528
2024-12-07 18:24:10.402707200,2.981707275390625,1.8901783715516327,2.1171394534885883,-0.7366169696010649
2024-12-07 18:24:10.412681200,2.99168115234375,1.6629618535488844,1.802712854066491,-0.4274607117973267
2024-12-07 18:24:10.422655200,3.0016552734375,1.4785557187467813,0.7159358544915914,-0.3116119803927838
2024-12-07 18:24:10.432629000,3.01162890625,1.564225000464916,-0.2584820093601941,-0.2501378132544458
2024-12-07 18:24:10.442603000,3.02160302734375,1.7906547520041465,-0.7786275807261467,-0.0901561448086053
2024-12-07 18:24:10.452576300,3.031576171875,1.866169719454646,-0.8971528378635645,0.1250123541343957
2024-12-07 18:24:10.462550300,3.04155029296875,1.8411241255253552,-0.5541472096890211,0.3642753568269312
2024-12-07 18:24:10.472524300,3.051524169921875,1.7395266223132608,0.0396229853361844,0.5218188383404165
2024-12-07 18:24:10.482498000,3.061498046875,1.441888076084852,0.5019827226877213,0.44620720558241
2024-12-07 18:24:10.492472000,3.07147216796875,1.047801006905362,0.6638999623060226,0.0944950507957488
2024-12-07 18:24:10.502446000,3.081446044921875,0.6428454838395118,0.5332587354391813,-0.467403138346225
2024-12-07 18:24:10.512420000,3.091420166015625,0.2415589681426063,0.2525163789540529,-1.0481917597886174
2024-12-07 18:24:10.522394000,3.10139404296875,-0.1665413557549938,0.0193891756027936,-1.4040575271233915
2024-12-07 18:24:10.532368100,3.1113681640625,-0.4532417803943157,-0.0026554829448461,-1.3692191457152365
2024-12-07 18:24:10.542341000,3.121341064453125,-0.5846802951186895,0.0688455726891756,-1.040842566069588
2024-12-07 18:24:10.552315100,3.131315185546875,-0.6144084939062595,0.1458902339249849,-0.7108507332470267
2024-12-07 18:24:10.562289200,3.1412890625,-0.3822393219321966,0.1676625052720308,-0.3006298369988799
2024-12-07 18:24:10.572263200,3.15126318359375,-0.0666986237883567,0.0567062220841646,0.0547672168456017
2024-12-07 18:24:10.582237200,3.1612373046875,0.1756383064568042,-0.0508954899787902,0.4948299283236265
2024-12-07 18:24:10.592211200,3.171211181640625,0.3904191212564706,-0.2337146478503942,0.9817731219854204
2024-12-07 18:24:10.602185200,3.181185302734375,0.4443816341230645,-0.3529278872519731,1.385742410492897
2024-12-07 18:24:10.612159200,3.1911591796875,0.8106903599411248,-0.4753723636597394,1.5987848571926355
2024-12-07 18:24:10.622133200,3.20113330078125,1.1455085900068285,-0.65316229519248,1.6384233323588966
2024-12-07 18:24:10.632106000,3.21110595703125,1.156066808900237,-0.7753250320494175,1.6301795278877018
2024-12-07 18:24:10.642080000,3.221080078125,1.1563327663600445,-0.7350579035907984,1.608416024369001
2024-12-07 18:24:10.652054000,3.231053955078125,1.0676128648996352,-0.6364513988882303,1.4119924117758869
2024-12-07 18:24:10.662028000,3.241028076171875,0.8740303209513425,-0.4501794702142477,1.1128428764626384
2024-12-07 18:24:10.672002000,3.251001953125,0.8050789498001336,-0.2106973448783159,0.7989525028090924
2024-12-07 18:24:10.681976000,3.26097607421875,0.7348965755492448,0.0349292745620012,0.4532840851660817
2024-12-07 18:24:10.691950000,3.2709501953125,0.4431488409250974,0.2087871273428201,0.0604131137780845
2024-12-07 18:24:10.701924000,3.280924072265625,0.0392348628014326,0.2643202139943838,-0.2773500836983323
2024-12-07 18:24:10.711897000,3.29089697265625,-0.4376958362162113,0.2600952897757291,-0.6035371904756873
2024-12-07 18:24:10.721871000,3.30087109375,-0.7316670921087265,0.2473778470218181,-0.7287541272714734
2024-12-07 18:24:10.731845000,3.31084521484375,-0.9556371755361556,0.2616127086013555,-0.8828511215928941
2024-12-07 18:24:10.741819100,3.320819091796875,-1.0785083529233932,0.2160316916435956,-1.0119993334230035
2024-12-07 18:24:10.751793200,3.330793212890625,-1.072615203231573,0.1648527085483074,-1.046177351226285
2024-12-07 18:24:10.761767200,3.34076708984375,-0.9385445864379406,0.1474012230098247,-0.9520969456460326
2024-12-07 18:24:10.771741200,3.3507412109375,-0.9399673127174376,0.1253635787248611,-0.7956292036052793
2024-12-07 18:24:10.781715200,3.360715087890625,-1.020448962664604,0.0760685096800327,-0.4306047819767147
2024-12-07 18:24:10.791689200,3.370689208984375,-0.9493921436667442,-0.0165302790403366,-0.0309945654615759
2024-12-07 18:24:10.801662200,3.380662109375,-0.7830477352559566,0.0481675263196229,0.2436228784024715
2024-12-07 18:24:10.811636200,3.39063623046875,-0.6546563331425189,0.0476052162617444,0.5014459123972803
2024-12-07 18:24:10.821610200,3.4006103515625,-0.5562988347649575,0.0977221230834722,0.7729699202906339
2024-12-07 18:24:10.831584300,3.410584228515625,-0.5218038234343751,0.0754459938675165,0.9802298380661756
2024-12-07 18:24:10.841558300,3.420558349609375,-0.5176818481335416,0.0541226353317499,1.202978709135577
2024-12-07 18:24:10.851532300,3.4305322265625,-0.5177426018774509,0.0028460370808839,1.3663134874016043
2024-12-07 18:24:10.861506300,3.44050634765625,-0.4619429732441902,-0.0046066170126199,1.5110929836057123
2024-12-07 18:24:10.871480300,3.450480224609375,-0.3365665350377559,-0.0418289709478616,1.6366010853677988
2024-12-07 18:24:10.881454300,3.460454345703125,-0.195333187007904,0.1494949804186821,1.7416946140021086
2024-12-07 18:24:10.891427000,3.470427001953125,-0.1760077242910862,0.011846505138278,1.6939901751495896
2024-12-07 18:24:10.901401000,3.480401123046875,-0.11490644558575,-0.0952899275004863,1.7491265175685284
2024-12-07 18:24:10.911375000,3.490375,-0.1417617192855104,-0.1979541831612586,1.7710501800850034
2024-12-07 18:24:10.921349000,3.50034912109375,-0.2755459568858146,-0.2961497689753771,1.6754630232036112
2024-12-07 18:24:10.931323100,3.5103232421875,-0.5141933484306559,-0.2928086418539286,1.510147373318672
2024-12-07 18:24:10.941297200,3.520297119140625,-0.6152396840333938,-0.2593319041877985,1.4166516357585788
2024-12-07 18:24:10.951271200,3.530271240234375,-0.5949824934244156,-0.2167167512983083,1.3135112870186567
2024-12-07 18:24:10.961245200,3.5402451171875,-0.5632593214273452,-0.1396574770152568,1.1968796616081148
2024-12-07 18:24:10.971218200,3.55021826171875,-0.4210417116004973,0.0557528668820858,1.3215211366035042
2024-12-07 18:24:10.981192200,3.560192138671875,-0.2943722744414582,0.3417687798559665,1.5616539809331298
2024-12-07 18:24:10.991166200,3.570166259765625,-0.4300725017309189,0.3887982420563697,1.6051077766038475
2024-12-07 18:24:11.001140200,3.58014013671875,-0.6029238078176975,0.340384047499299,1.5929821622632443
2024-12-07 18:24:11.011114200,3.5901142578125,-0.5457809844145551,0.4012625868320464,1.7014236861512064
2024-12-07 18:24:11.021088000,3.600087890625,-0.4512392084002494,0.5805699371904134,1.7578927384786307
2024-12-07 18:24:11.031062000,3.61006201171875,-0.3880664206504821,1.1466507457792758,1.921042296370864
2024-12-07 18:24:11.041036000,3.6200361328125,-0.4605471349716186,1.693542869773507,1.7650469941474496
2024-12-07 18:24:11.051010000,3.630010009765625,-0.6600187369585037,2.033251794490218,1.26088415094167
2024-12-07 18:24:11.060983300,3.6399833984375,-0.9099450994193552,1.999865657716989,0.5082809460490941
2024-12-07 18:24:11.070957000,3.64995703125,-1.1964157704234122,1.8698375943124288,-0.2600681095078587
2024-12-07 18:24:11.080931000,3.65993115234375,-1.5116682992756365,1.639908894741535,-0.8578734052680432
2024-12-07 18:24:11.090905000,3.669905029296875,-1.697339923968911,1.2799819423824548,-1.3506504927150904
2024-12-07 18:24:11.100879000,3.679879150390625,-1.8097130882173773,0.7223638417124748,-1.7830980530142784
2024-12-07 18:24:11.110853000,3.68985302734375,-1.9149761281996964,0.2273801841318607,-1.9711063039615748
2024-12-07 18:24:11.120827100,3.6998271484375,-1.837588352614641,-0.0157259769201278,-1.7918252570882438
2024-12-07 18:24:11.130801200,3.70980126953125,-1.709037376025319,0.0750303988039493,-1.3576536494754254
2024-12-07 18:24:11.140775200,3.719775146484375,-1.9714029488205909,0.4965776487737894,-0.741682144036144
2024-12-07 18:24:11.150748000,3.729747802734375,-2.322092263365537,1.030318614771962,-0.3225397632509469
2024-12-07 18:24:11.160722000,3.739721923828125,-2.1452356671601533,1.4793629434764384,-0.5781212288640439
2024-12-07 18:24:11.170696000,3.749696044921875,-1.1464620913393797,1.6538959190398457,-1.3872325029201804
2024-12-07 18:24:11.180670000,3.759669921875,0.2883540005326271,1.4834996048897504,-2.163660673905909
2024-12-07 18:24:11.190644000,3.76964404296875,1.3875854080110788,1.113961943620443,-2.802058530686796
2024-12-07 18:24:11.200618000,3.779617919921875,2.1657214058279988,0.74680445548594,-2.85862534430027
2024-12-07 18:24:11.210592000,3.789592041015625,2.4527649082839487,0.5415425796598196,-2.41296788155511
2024-12-07 18:24:11.220566000,3.79956591796875,2.3867963523358107,0.593461567467451,-2.09864971094355
2024-12-07 18:24:11.230539000,3.8095390625,2.334149927036464,0.8909545677453279,-1.362473324716836
2024-12-07 18:24:11.240513000,3.819512939453125,2.388865267564356,1.1412111850738524,-0.771028796160221
2024-12-07 18:24:11.250487000,3.829487060546875,2.329214662591368,1.2010872693657877,-0.3861678935527801
2024-12-07 18:24:11.260461000,3.8394609375,2.2015248328760264,1.0897159756362438,-0.1027981111735105
2024-12-07 18:24:11.270435000,3.84943505859375,1.9929661074616016,0.8968366115212439,0.3120056558854878
2024-12-07 18:24:11.280409000,3.8594091796875,1.3607869790650904,0.6581827537029982,0.7294009007424116
2024-12-07 18:24:11.290383000,3.869383056640625,0.7196763561941683,0.4053694376289844,0.8538672383666038
2024-12-07 18:24:11.300357000,3.879357177734375,0.3736760762482881,0.2239630691647529,0.8491291039288044
2024-12-07 18:24:11.310331100,3.8893310546875,0.3426291960775852,-0.0624900661826133,0.7213295302286744
2024-12-07 18:24:11.320304000,3.89930419921875,0.2329536003500223,-0.3751619308918714,0.4306318891793489
2024-12-07 18:24:11.330278100,3.909278076171875,0.6474824959903955,-0.7506453488230704,-0.0411424499884247
2024-12-07 18:24:11.340252200,3.919252197265625,1.3029765951313077,-0.9665116207718848,-0.4193734130620956
2024-12-07 18:24:11.350226200,3.92922607421875,1.6392438549615442,-0.9976263054817914,-0.7264099022328853
2024-12-07 18:24:11.360200200,3.9392001953125,1.4000195037789642,-0.992173885294795,-1.090155243836343
2024-12-07 18:24:11.370174200,3.94917431640625,0.9535492633461952,-0.9980255339324474,-1.5098910604700446
2024-12-07 18:24:11.380148200,3.959148193359375,0.4759213758446275,-1.0041109913259745,-1.8137156018570064
2024-12-07 18:24:11.390122200,3.969122314453125,0.084656305283308,-0.9905284561753273,-1.9362296363696456
2024-12-07 18:24:11.400096300,3.97909619140625,-0.0829804810255765,-1.0685019226938486,-1.9572315078660845
2024-12-07 18:24:11.410069200,3.9890693359375,0.0907239347591996,-1.2524644053816794,-2.0672320977643133
2024-12-07 18:24:11.420043300,3.999043212890625,0.4553362684555351,-1.4835142179369925,-2.0299051144108176
2024-12-07 18:24:11.430017000,4.00901708984375,0.5115165669694542,-1.709369384458661,-2.0817448995023966
2024-12-07 18:24:11.439991000,4.018990966796875,0.4542196855157613,-1.9261317284643649,-2.4558596594288944
2024-12-07 18:24:11.449965000,4.028965087890625,0.2387796761550009,-2.171214742547273,-3.104146457539499
2024-12-07 18:24:11.459939000,4.03893896484375,-0.2393381868205964,-2.332713464492559,-3.4323522837281226
2024-12-07 18:24:11.469913000,4.0489130859375,-0.8851695546030998,-2.3677543827354905,-3.454313940167427
2024-12-07 18:24:11.479887000,4.05888720703125,-1.4882552749842404,-2.2510908278167245,-3.110077601154148
2024-12-07 18:24:11.489860000,4.068860107421875,-1.828311405703425,-1.9285756144851445,-2.136278161461651
2024-12-07 18:24:11.499834000,4.078834228515625,-1.759180294071138,-1.5410890395492314,-0.8194871221199631
2024-12-07 18:24:11.509808000,4.08880810546875,-1.3906705145448446,-1.228227789747715,0.3285150382682681
2024-12-07 18:24:11.519782100,4.0987822265625,-0.8637083950318396,-1.0134726939111949,1.2956778164252638
2024-12-07 18:24:11.529756200,4.108756103515625,-0.3487929794043302,-0.6764987471163273,1.882721041283011
2024-12-07 18:24:11.539730200,4.118730224609375,-0.1022036524116992,-0.297682969892025,2.027408913680911
2024-12-07 18:24:11.549704200,4.1287041015625,-0.5152044617019593,0.1562356868505477,2.37580295689553
2024-12-07 18:24:11.559678000,4.138677978515625,-1.1570610806345938,0.3222790664881467,2.7050077309936285
2024-12-07 18:24:11.569652000,4.14865185546875,-1.7944839549034832,0.2276525713324546,3.035259968318045
2024-12-07 18:24:11.579625200,4.158625244140625,-2.4090958624273537,0.2513216162115335,3.544757012158632
2024-12-07 18:24:11.589599200,4.16859912109375,-2.669854584547877,0.3216320007562637,3.472148872065544
2024-12-07 18:24:11.599573200,4.1785732421875,-2.729555312272906,0.3773439511060714,3.2762612660452723
2024-12-07 18:24:11.609547300,4.18854736328125,-2.3331682225227355,0.4693956273376941,3.4084219575643537
2024-12-07 18:24:11.619521000,4.19852099609375,-1.4730197119295596,0.5080535670340061,3.734613229060173
2024-12-07 18:24:11.629495000,4.2084951171875,-0.524675469880551,0.3521767766237259,3.9146071003779768
2024-12-07 18:24:11.639469000,4.218468994140625,0.1080383499145507,-0.0724678548395633,3.6764740515634418
2024-12-07 18:24:11.649443000,4.228443115234375,0.035179449930787,-0.5864227548718453,3.2884128916099664
2024-12-07 18:24:11.659416300,4.238416259765625,-0.6934767699241637,-0.8946089985996484,2.980433276370168
2024-12-07 18:24:11.669390000,4.24839013671875,-1.0542921955555675,-0.431974535959959,2.486167703931033
2024-12-07 18:24:11.679364000,4.258364013671875,-0.521386511337757,0.8127052068948746,1.1665317965522408
2024-12-07 18:24:11.689338000,4.268338134765625,0.2272013204336166,2.2440660437464715,-0.6353655033476651
2024-12-07 18:24:11.699312000,4.27831201171875,0.6149186353854834,3.450194229888916,-2.30961944302246
2024-12-07 18:24:11.709286100,4.2882861328125,0.5105548092652112,4.004871016409993,-3.223013367721438
2024-12-07 18:24:11.719260200,4.29826025390625,0.1369568397544324,3.7990234496504063,-3.584548924320936
2024-12-07 18:24:11.729234200,4.308234130859375,-0.2082731864713132,3.140245652663708,-3.315973975491524
2024-12-07 18:24:11.739208200,4.318208251953125,-0.7538650415219366,1.9295231244683264,-2.213736371934414
2024-12-07 18:24:11.749181000,4.328180908203125,-1.097606436625123,0.5824123501867056,-1.1517620974436402
2024-12-07 18:24:11.759155000,4.338155029296875,-1.0388853675872087,-0.5330570753872395,-0.9283255363710224
2024-12-07 18:24:11.769129000,4.34812890625,-0.4755623332738876,-1.3063105618596076,-1.53727342678383
2024-12-07 18:24:11.779103000,4.35810302734375,0.2033447170931845,-1.848941521278024,-2.302180817454308
2024-12-07 18:24:11.789077000,4.368076904296875,0.4981307964999228,-2.1677882752299307,-3.1383482946097847
2024-12-07 18:24:11.799051000,4.378051025390625,0.6031593701392411,-2.1396435462415218,-3.641956572672724
2024-12-07 18:24:11.809025000,4.38802490234375,0.7093839486300945,-1.7216835071086882,-3.622279227778315
2024-12-07 18:24:11.818999000,4.3979990234375,0.8244223865650594,-1.03298929528594,-3.0532293402507897
2024-12-07 18:24:11.828973000,4.40797314453125,0.993112700514868,-0.2764507967710495,-2.0572214297510683
2024-12-07 18:24:11.838946000,4.417946044921875,1.3376076173990965,0.3344400444030762,-0.9096021312005818
2024-12-07 18:24:11.848920000,4.427920166015625,1.6856863110542295,0.6744488288491964,0.1034646122582256
2024-12-07 18:24:11.858894000,4.43789404296875,1.9922616124540569,0.7612380545079708,0.9925681453093884
2024-12-07 18:24:11.868868000,4.4478681640625,2.2484797685354945,0.5708078371107578,1.6257338005252182
2024-12-07 18:24:11.878842000,4.457842041015625,2.4402993944644926,0.0195680393010377,1.7618416222348807
2024-12-07 18:24:11.888816000,4.467816162109375,2.562803492105007,-0.6645487816035747,1.3977467365413905
2024-12-07 18:24:11.898789600,4.47778955078125,2.246971702060103,-1.1021592776238918,0.6007393033854663
2024-12-07 18:24:11.908763600,4.487763671875,1.6190969928592442,-0.8972662351101637,-0.2075621155925095
2024-12-07 18:24:11.918737700,4.497737548828125,1.0612206065792589,-0.2152279740452766,-0.6594136106722056
2024-12-07 18:24:11.928710700,4.507710693359375,0.8150036930955946,0.4251707011640072,-1.0095160652399062
2024-12-07 18:24:11.938684700,4.5176845703125,0.8074018397897481,0.7700666731297969,-1.4238149515166878
2024-12-07 18:24:11.948658700,4.52765869140625,0.7409177355349064,0.964127940505743,-1.666655447369814
2024-12-07 18:24:11.958632700,4.5376328125,0.7172539513528347,1.0354881263643505,-1.717219221176207
2024-12-07 18:24:11.968606700,4.547606689453125,0.6490397353697568,0.8030711171090602,-1.6964029353797434
2024-12-07 18:24:11.978580700,4.557580810546875,0.5623469558227807,0.4762169977903366,-1.5199987591169777
2024-12-07 18:24:11.988554800,4.5675546875,0.35949849781394,0.1787368569940328,-1.190359977515787
2024-12-07 18:24:11.998528800,4.57752880859375,0.3560259263325482,0.0031838907331228,-0.8355484684742986
2024-12-07 18:24:12.008501800,4.587501708984375,0.52603645603545,0.0559346531897783,-0.4815132045023143
2024-12-07 18:24:12.018475800,4.597475830078125,0.7233166854579002,0.1908481505483388,-0.0295636558756232
2024-12-07 18:24:12.028449800,4.60744970703125,0.959731020721048,0.3118640554577112,0.3543373156584799
2024-12-07 18:24:12.038423800,4.617423828125,1.2115285838812588,0.3522480882942676,0.6396431806668639
2024-12-07 18:24:12.048397800,4.627397705078125,1.343237147718668,0.1752969456732273,0.8279495377779007
2024-12-07 18:24:12.058371800,4.637371826171875,1.2566601035058498,-0.1093137766778469,0.8566014856360852
2024-12-07 18:24:12.068345900,4.647345947265625,1.1178899307191372,-0.4557955565303563,0.7499868849143385
2024-12-07 18:24:12.078319900,4.65731982421875,0.9703712188094854,-0.7165677226543427,0.5675806917577981
2024-12-07 18:24:12.088294000,4.6672939453125,0.7791513123393058,-0.8021049024254083,0.4155314968116581
2024-12-07 18:24:12.098267000,4.677266845703125,0.5204325716137885,-0.7399316471070051,0.3144517338633537
2024-12-07 18:24:12.108241000,4.687240966796875,0.3425812652826309,-0.5518325030058622,0.2561506438031792
2024-12-07 18:24:12.118215000,4.69721484375,0.2186246307462453,-0.1193617079615592,0.1892486063972115
2024-12-07 18:24:12.128189000,4.70718896484375,0.0831365666364319,0.1141167930454015,0.2068960528992116
2024-12-07 18:24:12.138163000,4.717162841796875,-0.0786287155568599,0.1202180325299501,0.2304246663942933
2024-12-07 18:24:12.148137000,4.727136962890625,-0.3461579547256231,0.0582762478798627,0.1404042037293315
2024-12-07 18:24:12.158110700,4.73711083984375,-0.460080101981759,-0.1136222875267267,0.175871822951734
2024-12-07 18:24:12.168084700,4.747084716796875,-0.5970481937825679,-0.1886006638824939,0.2990696019448339
2024-12-07 18:24:12.178058800,4.757058837890625,-0.6700193219691515,-0.2626362064301967,0.3770958946291357
2024-12-07 18:24:12.188031700,4.76703173828125,-0.4179121083378792,-0.3066846069931984,0.4423398626297712
2024-12-07 18:24:12.198005800,4.777005859375,-0.1678571510612964,-0.2078665053665638,0.525437905620411
2024-12-07 18:24:12.207979800,4.786979736328125,-0.1955740100264549,-0.0350584538996219,0.532524575945735
2024-12-07 18:24:12.217953800,4.796953857421875,-0.3950163859188556,0.0674257690191268,0.5459183835912496
2024-12-07 18:24:12.227927800,4.806927734375,-0.5648012901723385,0.0789589704245328,0.4600345092743635
2024-12-07 18:24:12.237901600,4.816901611328125,-0.8741618383765221,0.0156663556873798,0.2134052155975252
2024-12-07 18:24:12.247875600,4.82687548828125,-1.1701461876571178,-0.1704009903252124,0.1241625323720276
2024-12-07 18:24:12.257849600,4.836849609375,-1.3059504963755606,-0.3301093217223882,0.1466768542580306
2024-12-07 18:24:12.267822800,4.84682275390625,-1.4596575415313242,-0.4191723375320434,0.0651638154365122
2024-12-07 18:24:12.277796900,4.856796875,-1.4310416878998278,-0.4168792581588029,0.2899930729765445
2024-12-07 18:24:12.287770600,4.8667705078125,-1.1327566604614256,-0.1505593947798013,0.7440591753657907
2024-12-07 18:24:12.297744600,4.87674462890625,-0.8406547055721283,0.1002665468692779,1.0253602617122233
2024-12-07 18:24:12.307718700,4.88671875,-0.5736497825384139,0.2855295907616615,1.1364032733354716
2024-12-07 18:24:12.317692700,4.896692626953125,-0.3686696462631225,0.3195990336239337,1.1351735854100435
2024-12-07 18:24:12.327666700,4.906666748046875,-0.2621311429848894,0.1914846948862075,0.9557453851509838
2024-12-07 18:24:12.337640700,4.916640625,-0.1923392658889293,-0.05981061784029,0.6264187382388859
2024-12-07 18:24:12.347614700,4.92661474609375,-0.057097303760983,-0.24218963072896,0.3634630175307393
2024-12-07 18:24:12.357587700,4.936587646484375,0.1277215034952387,-0.2588420748442411,0.2246784508924931
2024-12-07 18:24:12.367561700,4.946561767578125,0.2243207965612411,-0.1867617580175399,0.1456442963398992
2024-12-07 18:24:12.377535700,4.95653564453125,0.1990016098549589,-0.1011041667371988,0.0872588889971375
2024-12-07 18:24:12.387509800,4.966509765625,0.0052466319492086,-0.0347241073787212,0.0247686036188155
2024-12-07 18:24:12.397483800,4.97648388671875,-0.3441396737057715,-0.093960724723339,0.1653594159614294
2024-12-07 18:24:12.407457800,4.986457763671875,-0.5185960769016296,-0.0080576342493295,0.503666620654054
2024-12-07 18:24:12.417431800,4.996431884765625,-0.7289316757954657,-0.1131605152338743,0.696254271813482
2024-12-07 18:24:12.427405800,5.00640576171875,-0.8162977514941245,-0.3144114018529653,0.9562170212507248
2024-12-07 18:24:12.437379800,5.0163798828125,-0.758147102755308,-0.1227893443226814,1.333732821792364
2024-12-07 18:24:12.447352600,5.0263525390625,-0.973275708079338,0.2256944230020046,1.5949267204597593
2024-12-07 18:24:12.457326600,5.03632666015625,-1.04714524641037,0.3965589391857385,1.83400990960598
2024-12-07 18:24:12.467300600,5.046300537109375,-0.9072013536691664,0.5586380913674831,2.11563518640548
2024-12-07 18:24:12.477274600,5.056274658203125,-0.6424316423416138,0.706374829941988,2.439629240117967
2024-12-07 18:24:12.487248600,5.06624853515625,-0.4805857143938541,0.6819616886973381,2.4878370984479785
2024-12-07 18:24:12.497222700,5.07622265625,-0.4150362606406211,0.783403124564886,2.6090248527929187
2024-12-07 18:24:12.507196700,5.08619677734375,-0.367389579857327,0.7145283257812262,2.5603815256550906
2024-12-07 18:24:12.517170700,5.096170654296875,-0.3248854861268773,0.8147697382092476,2.629325005760789
2024-12-07 18:24:12.527144700,5.106144775390625,-0.2368529824087396,0.6761562172889709,2.445595016654581
2024-12-07 18:24:12.537117700,5.11611767578125,-0.3856324715018272,0.8536977270185947,2.324799038106203
2024-12-07 18:24:12.547091700,5.126091796875,-0.5646505200574174,0.736338006529212,1.8627290774814784
2024-12-07 18:24:12.557065700,5.136065673828125,-0.6600935557603835,1.2376724944412707,1.4668984525702893
2024-12-07 18:24:12.567039700,5.146039794921875,-1.0089256981313228,1.6609961064338683,0.8149868150260299
2024-12-07 18:24:12.577013800,5.156013671875,-1.3598644573926926,1.740769315850735,0.1315212976370006
2024-12-07 18:24:12.586987800,5.16598779296875,-1.553958457994461,1.7034896787703036,-0.4277697777464985
2024-12-07 18:24:12.596961800,5.1759619140625,-1.5541805763125418,1.480339095032215,-0.9045933631278574
2024-12-07 18:24:12.606935800,5.185935791015625,-1.5551532207369805,1.020913073045015,-1.370650639823079
2024-12-07 18:24:12.616908800,5.19590869140625,-1.576155676755309,0.4581079251259565,-1.6722022678419948
2024-12-07 18:24:12.626882800,5.2058828125,-1.6886738024324175,0.0607657266080379,-1.66064802364856
2024-12-07 18:24:12.636856800,5.21585693359375,-1.8595313043534751,0.0190694421291351,-1.5010795391134917
2024-12-07 18:24:12.646830800,5.225830810546875,-2.0104916811496016,0.3116916215002536,-1.2656596947804093
2024-12-07 18:24:12.656804900,5.235804931640625,-2.173847429138422,0.7271645199924707,-1.1121608855478464
2024-12-07 18:24:12.666779000,5.24577880859375,-1.996914406695962,1.0595178212493657,-1.238849867657572
2024-12-07 18:24:12.676753000,5.2557529296875,-1.0203981092602017,1.2224673265248536,-1.576586030996591
2024-12-07 18:24:12.686727000,5.265726806640625,0.0206132375050336,1.3987714034140108,-1.8979374612458049
2024-12-07 18:24:12.696701000,5.275700927734375,0.898391001356393,1.64185769072175,-1.944545190902799
2024-12-07 18:24:12.706673700,5.285673583984375,1.7381300533883273,1.8076637544721363,-1.6904593706749378
2024-12-07 18:24:12.716647700,5.295647705078125,2.095492854347825,1.980585787707567,-1.1679841873176395
2024-12-07 18:24:12.726621700,5.30562158203125,1.7823470885165034,2.204669268381596,-0.8018418675750494
2024-12-07 18:24:12.736595700,5.315595703125,1.6862983054727314,2.2861475281506776,-0.6490225650392473
2024-12-07 18:24:12.746569700,5.32556982421875,2.0721489497698844,2.0889532234460115,-0.4046155505217612
2024-12-07 18:24:12.756543700,5.335543701171875,2.2763241994030774,1.6993109317809345,-0.3645068274952471
2024-12-07 18:24:12.766517800,5.345517822265625,1.999751383687556,1.3008125489652156,-0.4392191002607345
2024-12-07 18:24:12.776491500,5.355491455078125,1.4529957455545663,0.9723124160051344,-0.3122087772421538
2024-12-07 18:24:12.786465500,5.365465576171875,0.6595344605728983,0.6993032841205596,-0.240736801572144
2024-12-07 18:24:12.796438800,5.375438720703125,0.1933190707065165,0.5090408245056868,-0.4457338889822363
2024-12-07 18:24:12.806412800,5.385412841796875,0.4380350050427019,0.2629208685904741,-0.6669131726473569
2024-12-07 18:24:12.816386800,5.39538671875,0.96196988568902,-0.0332557883918285,-0.9626771571755408
2024-12-07 18:24:12.826360600,5.405360595703125,1.542292570120096,-0.4288631259411573,-1.3315467099249363
2024-12-07 18:24:12.836334600,5.41533447265625,1.844606122422218,-0.8332406299233436,-1.576094009695947
2024-12-07 18:24:12.846308600,5.42530859375,1.8072594114549456,-1.225491642782092,-1.6849328623384237
2024-12-07 18:24:12.856282600,5.43528271484375,1.4156094332292677,-1.336235744524002,-1.595230671842396
2024-12-07 18:24:12.866256600,5.445256591796875,0.9537135139971972,-1.3848410777390003,-1.522176541547477
2024-12-07 18:24:12.876230000,5.45522998046875,0.7337912446558476,-1.367933197557926,-1.5084922995880246
2024-12-07 18:24:12.886203600,5.46520361328125,0.7672815724559128,-1.3944360045582056,-1.7395199003115296
2024-12-07 18:24:12.896177400,5.475177490234375,0.9920721784859896,-1.5459692128062248,-1.9537714305400848
2024-12-07 18:24:12.906151400,5.4851513671875,1.1268860148623585,-1.7780471993654965,-2.093765299902856
2024-12-07 18:24:12.916125400,5.49512548828125,1.0725959140092134,-2.043610691419244,-2.1868588864028453
2024-12-07 18:24:12.926099500,5.505099365234375,1.0961916013911366,-2.2905209209293127,-2.302752333731949
2024-12-07 18:24:12.936073500,5.515073486328125,1.1499749217659234,-2.504547117969393,-2.6988679130643605
2024-12-07 18:24:12.946047500,5.525047607421875,1.072290793582797,-2.653693138819933,-3.142234488393366
2024-12-07 18:24:12.956021500,5.535021484375,0.849390969735384,-2.8039836535304783,-3.4307708597555755
2024-12-07 18:24:12.965994500,5.544994384765625,0.4692584108240902,-2.8407699541360136,-3.629200259213149
2024-12-07 18:24:12.975968500,5.554968505859375,0.1056570077359676,-2.658711843764782,-3.4600638819962737
2024-12-07 18:24:12.985942500,5.564942626953125,-0.126641343575716,-2.365563010171056,-2.7774086580768227
2024-12-07 18:24:12.995916500,5.57491650390625,-0.2045557733833789,-2.0371879648953675,-1.811899784606695
2024-12-07 18:24:13.005890600,5.584890625,-0.375711819859594,-1.6327356421113013,-0.7270356329157948
2024-12-07 18:24:13.015864600,5.594864501953125,-0.6687501788161695,-1.2014987727761268,0.3755658355176449
2024-12-07 18:24:13.025838600,5.604838623046875,-1.038856726014614,-0.7580623470813036,1.3023545177102087
2024-12-07 18:24:13.035812600,5.6148125,-1.3442735050290822,-0.3298907105356454,2.148928384198248
2024-12-07 18:24:13.045785300,5.624785400390625,-1.573751538223028,0.1569686773002147,3.1588270190149546
2024-12-07 18:24:13.055759400,5.63475927734375,-1.703486317769438,0.6760621092647313,4.138810700300335
2024-12-07 18:24:13.065733400,5.6447333984375,-1.8822160143703224,1.0657698673814535,4.956972419035434
2024-12-07 18:24:13.075707400,5.654707275390625,-2.0654986981004475,1.252776540070772,5.514045160782337
2024-12-07 18:24:13.085681400,5.664681396484375,-2.1435440608114003,1.149772677192092,5.532123838308453
2024-12-07 18:24:13.095655400,5.674655517578125,-2.236904481554032,1.1171090094745155,5.1201908043801785
2024-12-07 18:24:13.105629400,5.68462939453125,-2.081915579894185,1.1118693552553651,4.038941920576989
2024-12-07 18:24:13.115603500,5.694603515625,-1.5606810442477463,1.1334586712509394,2.962287963348627
2024-12-07 18:24:13.125577500,5.704577392578125,-1.0923346337020396,0.984035002502799,2.360840365563333
2024-12-07 18:24:13.135550500,5.714550537109375,-0.9738235512204468,0.4292991792708635,2.0159137061983348
2024-12-07 18:24:13.145524500,5.7245244140625,-1.1784418684460225,-0.4480430427074432,1.8044208270281552
2024-12-07 18:24:13.155498500,5.73449853515625,-1.3092255725234747,-1.2515414453178644,1.4749688001707195
2024-12-07 18:24:13.165472500,5.744472412109375,-1.1688678382843731,-1.6969143920332193,0.97532328825891
2024-12-07 18:24:13.175446500,5.754446533203125,-0.7043171667598187,-1.6263129155874252,0.3353217956736684
2024-12-07 18:24:13.185420500,5.764420654296875,-0.0362379460077732,-0.989669208997488,-0.349039647641778
2024-12-07 18:24:13.195394600,5.77439453125,0.5406552754312753,-0.0049865562409162,-0.9342740695118904
2024-12-07 18:24:13.205368600,5.78436865234375,0.9266513195484876,1.1937024198114872,-1.375125885540992
2024-12-07 18:24:13.215342600,5.794342529296875,1.1544669724881649,2.4019699560701846,-1.6229707655526695
2024-12-07 18:24:13.225315600,5.804315673828125,1.2671616237759589,3.3208196619570254,-1.687380840012431
2024-12-07 18:24:13.235289600,5.81428955078125,1.1513660838633777,3.791972362095118,-1.7999116790406404
2024-12-07 18:24:13.245263600,5.824263671875,0.6168669929742813,3.932508375510573,-1.887315383335948
2024-12-07 18:24:13.255237600,5.834237548828125,-0.5463379241775721,3.84579163056612,-1.5049107878394423
2024-12-07 18:24:13.265211600,5.844211669921875,-1.841865883803368,3.240156810224056,-0.5627013952836394
2024-12-07 18:24:13.275185700,5.854185546875,-2.520235685488581,2.094688552227616,0.384575363664329
2024-12-07 18:24:13.285159700,5.86415966796875,-2.513678518930077,0.6507447126567364,0.6100875619672238
2024-12-07 18:24:13.295133700,5.8741337890625,-2.031670662778616,-0.9569412438720464,-0.2397653261914849
2024-12-07 18:24:13.305107700,5.884107666015625,-1.315772802209854,-2.2965151929080485,-1.7427911770671605
2024-12-07 18:24:13.315080700,5.894080810546875,-0.5206190340965986,-2.975249736252427,-3.300605141445994
2024-12-07 18:24:13.325054700,5.9040546875,0.2341366726547479,-2.9651211409479377,-4.340622143411636
2024-12-07 18:24:13.335028500,5.914028564453125,0.9141646898757666,-2.5085084228158,-4.648063121730089
2024-12-07 18:24:13.345002500,5.92400244140625,1.3869880266398191,-1.9007465273171664,-4.4753053391456605
2024-12-07 18:24:13.354976500,5.9339765625,1.5930775854617356,-1.277851944616437,-3.943533042871952
2024-12-07 18:24:13.364950500,5.943950439453125,1.4748936891078948,-0.6104360831439495,-2.9769825513944026
2024-12-07 18:24:13.374924500,5.953924560546875,1.0672854595761745,-0.004296820411086,-1.5120814101211726
2024-12-07 18:24:13.384898300,5.963898193359375,0.8113817762713879,0.4609551312506199,-0.0095488957203924
2024-12-07 18:24:13.394871600,5.97387158203125,1.0396646083313972,0.7829547962754965,1.2400569053597748
2024-12-07 18:24:13.404845600,5.983845458984375,1.625173682424426,0.8693705124467611,1.944473002449423
2024-12-07 18:24:13.414819600,5.993819580078125,2.313519519200921,0.7491676774859428,1.987846134099364
2024-12-07 18:24:13.424793600,6.003793701171875,2.622307235953212,0.5210661933422088,1.7513126294359564
2024-12-07 18:24:13.434767400,6.013767333984375,2.532172791519761,0.3134913643985986,1.6524664707586167
2024-12-07 18:24:13.444741400,6.023741455078125,2.2320289844721555,0.1299023911982774,1.7311682515516875
2024-12-07 18:24:13.454715400,6.03371533203125,1.807261603412032,0.0170160167306661,1.793556026403606
2024-12-07 18:24:13.464689400,6.043689453125,1.5773644680231809,0.1050894369810819,1.5398878470659254
2024-12-07 18:24:13.474663400,6.053663330078125,1.4416799862921237,0.2212076329767703,0.9570940232809632
2024-12-07 18:24:13.484636700,6.06363671875,1.1404239071536808,0.2652396669268608,0.1589253643259406
2024-12-07 18:24:13.494610400,6.0736103515625,0.9289823928445576,0.3531529281795024,-0.5587427207857371
2024-12-07 18:24:13.504584400,6.08358447265625,0.6660029989998787,0.5045160405576229,-1.1382675328373908
2024-12-07 18:24:13.514558500,6.093558349609375,0.2795966205161064,0.7459183203011751,-1.6985497381500898
2024-12-07 18:24:13.524532500,6.103532470703125,-0.0232862561065703,0.9493097260802984,-2.0932045972801743
2024-12-07 18:24:13.534506500,6.113506591796875,-0.135153151333332,0.8271370523512362,-2.319139989431202
2024-12-07 18:24:13.544480500,6.12348046875,-0.1058832177072763,0.5931494327783584,-2.3889416938014327
2024-12-07 18:24:13.554454500,6.13345458984375,0.0990402199447155,0.295924143525958,-2.215845034651458
2024-12-07 18:24:13.564428500,6.143428466796875,0.290398073580861,-0.042290743240714,-1.9161773206830024
2024-12-07 18:24:13.574401500,6.153401611328125,0.6138035137504338,-0.2935807952702045,-1.385814160554856
2024-12-07 18:24:13.584375600,6.16337548828125,0.9566986672878264,-0.3844751181602477,-0.7453082255788147
2024-12-07 18:24:13.594349600,6.173349609375,1.2296668826401234,-0.3822153565347194,-0.0742753426529467
2024-12-07 18:24:13.604323600,6.183323486328125,1.3112749062687157,-0.3532949669986963,0.517230414571613
2024-12-07 18:24:13.614297600,6.193297607421875,1.231755963873863,-0.3365302946805953,0.8938755697585642
2024-12-07 18:24:13.624271600,6.203271728515625,1.093728718408942,-0.3704115214943885,1.1289164977766573
2024-12-07 18:24:13.634245600,6.21324560546875,0.8343857083052396,-0.4052466880321502,1.243083267443627
2024-12-07 18:24:13.644219600,6.2232197265625,0.5592038720240816,-0.3830868786722421,1.126573003390431
2024-12-07 18:24:13.654192400,6.2331923828125,0.2062947442715056,-0.2891512883901596,0.9659716686762868
2024-12-07 18:24:13.664166400,6.24316650390625,0.0353869734679348,-0.0927028336167335,0.8015398158885538
2024-12-07 18:24:13.674140400,6.253140380859375,-0.1307213063657283,-0.1084194581866264,0.4237580578871071
2024-12-07 18:24:13.684114400,6.263114501953125,-0.2535007138162851,-0.1897714612275362,0.0587652004405856
2024-12-07 18:24:13.694088400,6.27308837890625,-0.2299666934937238,-0.1498924553036689,-0.1065745609723031
2024-12-07 18:24:13.704062500,6.2830625,-0.2963479218959808,-0.1120721354752778,-0.2283357312910258
2024-12-07 18:24:13.714036500,6.293036376953125,-0.3230553115576505,-0.0868622908949851,-0.2657005624368787
2024-12-07 18:24:13.724010500,6.303010498046875,-0.3194470579326152,-0.0585024578511714,-0.301625570037961
2024-12-07 18:24:13.733984500,6.312984619140625,-0.2989057896852493,-0.0368213719189167,-0.2209719245247542
2024-12-07 18:24:13.743957500,6.32295751953125,-0.3415209425747394,-4.67617511749e-05,-0.2364253681138157
2024-12-07 18:24:13.753931500,6.332931640625,-0.4845522799372673,-0.0793956082761287,-0.2482726769696921
2024-12-07 18:24:13.763905500,6.342905517578125,-0.5140156903088092,-0.1491115340590477,-0.1181246404472738
2024-12-07 18:24:13.773879600,6.352879638671875,-0.5579261437058448,-0.1823012714773416,-0.033971973837167
2024-12-07 18:24:13.783853600,6.362853515625,-0.5996691899359226,-0.2898410242199897,-0.026760873414576
2024-12-07 18:24:13.793827600,6.37282763671875,-0.6127051971197128,-0.3412041317105293,0.0841357154753059
2024-12-07 18:24:13.803801600,6.382801513671875,-0.6028361295342445,-0.3423690838366747,0.2487228318899869
2024-12-07 18:24:13.813775600,6.392775634765625,-0.5647989520847797,-0.316055077406764,0.4648147292882204
2024-12-07 18:24:13.823749600,6.40274951171875,-0.5205389545977115,-0.2645055074334144,0.7256981737669557
2024-12-07 18:24:13.833722600,6.41272265625,-0.4885445644438266,-0.2564320910930633,0.9764279615651816
2024-12-07 18:24:13.843696600,6.422696533203125,-0.3919043913781642,-0.2946604072004556,1.2313003290608524
2024-12-07 18:24:13.853670700,6.432670654296875,-0.2820318483063951,-0.2630909644603729,1.5021008449852469
2024-12-07 18:24:13.863644700,6.442644775390625,-0.2404127207169309,-0.2190788042545318,1.669857750542462
2024-12-07 18:24:13.873618700,6.45261865234375,-0.3318986162919551,-0.1048404306560754,1.7373508857093751
2024-12-07 18:24:13.883592700,6.4625927734375,-0.4079062626302242,-0.0162380180954933,1.7681456908151507
2024-12-07 18:24:13.893566700,6.472566650390625,-0.5315092614233493,0.078445760205388,1.77026852818802
2024-12-07 18:24:13.903540700,6.482540771484375,-0.6829378402531147,-0.0281061505436897,1.6579941481389104
2024-12-07 18:24:13.913513500,6.492513427734375,-0.7553565952539444,-0.175953948277235,1.5755216166354715
2024-12-07 18:24:13.923487500,6.502487548828125,-0.6907249869979918,-0.2514741764247417,1.5425092816106971
2024-12-07 18:24:13.933461500,6.51246142578125,-0.5673895896324888,-0.1665770481228828,1.498211728592217
2024-12-07 18:24:13.943435500,6.522435546875,-0.3784370070397854,0.0271761762171983,1.4814219218328597
2024-12-07 18:24:13.953409500,6.532409423828125,-0.2204793187022209,0.2262058796554803,1.4244615788571535
2024-12-07 18:24:13.963383600,6.542383544921875,-0.2153098071098327,0.4086965362250804,1.231577100175619
2024-12-07 18:24:13.973357300,6.552357421875,-0.2969265255015343,0.3712684305846691,1.1080618527311832
2024-12-07 18:24:13.983331300,6.562331298828125,-0.4650807232806458,0.3510001340597867,0.8717696094777434
2024-12-07 18:24:13.993305300,6.572305419921875,-0.6848655934453011,0.2073836902856826,0.6245137814003974
2024-12-07 18:24:14.003278600,6.582278564453125,-0.9102548960208892,0.1792921527892351,0.3798438781630248
2024-12-07 18:24:14.013252600,6.592252685546875,-1.1363736088495702,0.2542594232290983,0.3601335077818482
2024-12-07 18:24:14.023226600,6.6022265625,-1.374451785671711,0.499521301010251,0.5065310701744631
2024-12-07 18:24:14.033200400,6.612200439453125,-1.56893624689579,0.4901975923478603,0.5965817453145981
2024-12-07 18:24:14.043174400,6.62217431640625,-1.5473790796041489,0.5655921482890844,0.7422624281421303
2024-12-07 18:24:14.053148400,6.6321484375,-1.3917583097815514,0.5835352167367935,0.9915584568101912
2024-12-07 18:24:14.063122400,6.642122314453125,-0.95643095626235,0.5723989056944847,1.4654130363181233
2024-12-07 18:24:14.073096400,6.652096435546875,-0.44887302725818,0.8115478535532951,2.0276935758411883
2024-12-07 18:24:14.083070500,6.662070556640625,-0.2655015509997494,0.9341051426857708,2.258219949044287
2024-12-07 18:24:14.093043500,6.67204345703125,-0.3181926739573478,1.2073866617709397,2.2268280548281965
2024-12-07 18:24:14.103017500,6.682017578125,-0.475046784967184,1.5598130292415615,2.0141583869636057
2024-12-07 18:24:14.112991500,6.691991455078125,-0.858031372308731,1.683059469681978,1.4536723296418783
2024-12-07 18:24:14.122965500,6.701965576171875,-1.424536543789506,1.560012351205945,0.7143439821902662
2024-12-07 18:24:14.132939500,6.711939453125,-1.8747697900176048,1.363418350481987,0.0591393675152212
2024-12-07 18:24:14.142913500,6.72191357421875,-2.0704022522330283,1.1306868684500455,-0.499255855007097
2024-12-07 18:24:14.152887600,6.731887451171875,-1.9767671062022447,0.8384685937047004,-1.0529026408933102
2024-12-07 18:24:14.162861600,6.741861572265625,-1.7653174816519022,0.5210089101970196,-1.53345430688709
2024-12-07 18:24:14.172835600,6.751835693359375,-1.7015560803592205,0.2674497441917657,-1.916348439466208
2024-12-07 18:24:14.182808600,6.76180859375,-1.9546704252064224,0.3609101181775331,-1.9949561122350392
2024-12-07 18:24:14.192782600,6.771782470703125,-2.194194051596522,0.95514442358315,-1.7082202144235372
2024-12-07 18:24:14.202756600,6.781756591796875,-1.75586576269567,1.640707351642847,-1.7205235234186051
2024-12-07 18:24:14.212730600,6.791730712890625,-0.3759351072214543,2.013589062643051,-2.179775650143623
2024-12-07 18:24:14.222704400,6.801704345703125,1.0333505298137664,2.0669290231645108,-2.4557658436656
2024-12-07 18:24:14.232678400,6.811678466796875,2.0506975809402763,1.9239654903411865,-2.254766739850491
2024-12-07 18:24:14.242652400,6.82165234375,2.7674796769976613,1.7316478517621754,-1.696948878824711
2024-12-07 18:24:14.252626400,6.83162646484375,2.9263872134059667,1.5786451554834842,-1.0241681293182074
2024-12-07 18:24:14.262599400,6.841599365234375,2.354957591135055,1.5494213990867136,-0.2933070928953588
2024-12-07 18:24:14.272573400,6.851573486328125,1.977479053863883,1.5844430281072854,0.4936906951606273
2024-12-07 18:24:14.282547500,6.86154736328125,1.5442917811132966,1.576440923437476,0.7533031698554754
2024-12-07 18:24:14.292521500,6.871521484375,1.0224985886707902,1.2857038271605967,0.5827459660552442
2024-12-07 18:24:14.302495500,6.88149560546875,0.958919996599108,0.7777256634503602,0.2078238352686166
2024-12-07 18:24:14.312469500,6.891469482421875,0.9547874268390236,0.363812269359827,-0.3294219239801168
2024-12-07 18:24:14.322443500,6.901443603515625,1.0918012574777007,0.1008025534421205,-0.7551195716276764
2024-12-07 18:24:14.332417500,6.91141748046875,1.1632957372404635,-0.0209171158224344,-1.1384025573939085
2024-12-07 18:24:14.342391600,6.9213916015625,1.092801228300482,-0.191772864177823,-1.5224617882296445
2024-12-07 18:24:14.352364500,6.931364501953125,1.1859699258632956,-0.5019119955390692,-1.640790938273072
2024-12-07 18:24:14.362338600,6.941338623046875,1.2776800951808691,-0.8728624462157487,-1.757799653367698
2024-12-07 18:24:14.372312600,6.9513125,1.266958210158348,-1.2133470314800738,-1.8754747234165667
2024-12-07 18:24:14.382286600,6.96128662109375,1.1323507100090384,-1.3789298078686,-1.844194911272824
2024-12-07 18:24:14.392260600,6.971260498046875,1.113331390631944,-1.3845610917538405,-1.817485768045485
2024-12-07 18:24:14.402234600,6.981234619140625,1.1463941406697034,-1.2927782955914735,-1.80319011618942
2024-12-07 18:24:14.412208600,6.991208740234375,1.0893468500629069,-1.13701957860291,-1.753331275781989
2024-12-07 18:24:14.422182700,7.0011826171875,1.0064210218340155,-0.9896201091587544,-1.8107877317115664
2024-12-07 18:24:14.432156700,7.01115673828125,0.9206073632091284,-0.922262144678831,-1.8766031429246064
2024-12-07 18:24:14.442129700,7.021129638671875,0.7128729597896337,-0.960129226258397,-1.9224203067258
2024-12-07 18:24:14.452103700,7.031103759765625,0.5876128414392471,-1.169094048255682,-1.9625667314141988
2024-12-07 18:24:14.462077700,7.04107763671875,0.5313882653921842,-1.5333534768611192,-2.1632067926585674
2024-12-07 18:24:14.472051700,7.0510517578125,0.7058996136456728,-1.964959179508686,-2.574648243677616
2024-12-07 18:24:14.482025700,7.061025634765625,0.763932700419426,-2.3565192874938248,-3.0893671138197183
2024-12-07 18:24:14.491999700,7.070999755859375,0.62283729955554,-2.6520138074308632,-3.389722810052335
2024-12-07 18:24:14.501973500,7.080973388671875,0.3589496317595243,-2.7803929345846177,-3.584198211187124
2024-12-07 18:24:14.511947500,7.090947509765625,-0.0704074151784181,-2.698627674567699,-3.624810207560658
2024-12-07 18:24:14.521920500,7.10092041015625,-0.5865871516533195,-2.3114982425063846,-3.3778067468091844
2024-12-07 18:24:14.531894500,7.11089453125,-1.0913228263109922,-1.774896041858196,-2.5449752822086213
2024-12-07 18:24:14.541868500,7.12086865234375,-1.336119278537482,-1.3529028016865252,-1.3884791419804094
2024-12-07 18:24:14.551842600,7.130842529296875,-1.6173327596656977,-0.820662303379178,0.0331263167932629
2024-12-07 18:24:14.561816600,7.140816650390625,-1.7679197731047869,-0.1896305914521217,1.4627859026849268
2024-12-07 18:24:14.571790300,7.150790283203125,-1.6524042191773651,0.4138227931976318,2.430882746821642
2024-12-07 18:24:14.581764400,7.160764404296875,-1.2183055306702852,0.7894546796888112,3.0757483383119104
2024-12-07 18:24:14.591738400,7.17073828125,-1.0074304180722684,1.1083926190555096,3.8285856442213055
2024-12-07 18:24:14.601712400,7.18071240234375,-1.2532416733644902,1.2544874356418847,4.443331699518859
2024-12-07 18:24:14.611685600,7.190685546875,-1.916539724254608,1.0874544604450465,5.074335646656155
2024-12-07 18:24:14.621659400,7.200659423828125,-2.5922324156850576,0.6356915204316377,5.475641488108039
2024-12-07 18:24:14.631633400,7.21063330078125,-2.399671615999937,0.1032376716345548,5.151433499383926
2024-12-07 18:24:14.641607400,7.220607421875,-1.5454916584223508,-0.1882861911058425,4.532274011558294
2024-12-07 18:24:14.651581400,7.23058154296875,-0.9628899231433868,-0.1086146884977817,3.909754399649799
2024-12-07 18:24:14.661555500,7.240555419921875,-0.8862170178294181,0.2571545601487159,3.386095559465885
2024-12-07 18:24:14.671529500,7.250529541015625,-1.1883793250925838,0.5239607457399368,2.9327655162662265
2024-12-07 18:24:14.681503500,7.26050341796875,-1.150634993109852,0.5379974543988705,2.4438711154714223
2024-12-07 18:24:14.691476500,7.2704765625,-0.7322767484396696,0.5736521206259727,1.7077203020773828
2024-12-07 18:24:14.701450500,7.280450439453125,-0.3436836005013436,0.8099737361043691,0.6656703329794108
2024-12-07 18:24:14.711424500,7.290424560546875,-0.1457363585375249,1.2872142317235469,-0.4527880452774465
2024-12-07 18:24:14.721398500,7.3003984375,0.0476812771726399,1.8428882125884296,-1.2326881301574408
2024-12-07 18:24:14.731372500,7.31037255859375,0.1428548848170787,2.171020096758008,-1.5807055951446294
2024-12-07 18:24:14.741346600,7.3203466796875,0.0426070426482707,2.462209028455615,-1.700183038440347
2024-12-07 18:24:14.751320600,7.330320556640625,-0.1580534768622368,2.7853654623001813,-1.7977742286205292
2024-12-07 18:24:14.761294600,7.340294677734375,-0.421821390736103,2.661657834088802,-1.6332982444301247
2024-12-07 18:24:14.771268600,7.3502685546875,-0.7140396654814481,1.7430799308806657,-1.2107573072478175
2024-12-07 18:24:14.781241300,7.360241455078125,-0.6699455991458148,0.4691588959723711,-0.7621075308188796
2024-12-07 18:24:14.791215400,7.37021533203125,-0.2943902850221842,-0.7193260814517736,-0.8619482534915208
2024-12-07 18:24:14.801189400,7.380189453125,0.1739589750677347,-1.7526666743934154,-1.2804348007164894
2024-12-07 18:24:14.811163400,7.390163330078125,0.4360270262211561,-2.3886685759484765,-1.79064832226336
2024-12-07 18:24:14.821137400,7.400137451171875,0.59177821749039,-2.557309570863843,-2.5335131002128124
2024-12-07 18:24:14.831111400,7.410111328125,0.6086329061795026,-2.3187819697737693,-3.204520264175534
2024-12-07 18:24:14.841085400,7.42008544921875,0.686628584529832,-1.824139672976732,-3.4901974467143413
2024-12-07 18:24:14.851059500,7.4300595703125,0.8262550818849355,-1.2244839270442724,-3.34196006514132
2024-12-07 18:24:14.861033500,7.440033447265625,0.9385621951598674,-0.5570055217295885,-2.789655268448591
2024-12-07 18:24:14.871006500,7.45000634765625,0.9518792843073606,0.0604039075583219,-1.8194183435432607
2024-12-07 18:24:14.880980500,7.45998046875,1.027594231309369,0.4730073880940675,-0.6939104851663113
2024-12-07 18:24:14.890954500,7.46995458984375,1.1722049468178302,0.7336731712341308,0.261247236289829
2024-12-07 18:24:14.900929000,7.479928955078125,1.4577612063907086,1.004874376913905,0.9736584237866104
2024-12-07 18:24:14.910903000,7.489903076171875,1.6996721663087606,1.1738175696462392,1.310464320538193
2024-12-07 18:24:14.920877000,7.499876953125,1.8316776672661303,1.1051508606553078,1.3507510304801165
2024-12-07 18:24:14.930850800,7.509850830078125,1.8615058192968368,0.7594324663907289,1.1374508096270262
2024-12-07 18:24:14.940824800,7.519824951171875,1.7386720513105391,0.2107300781041383,0.6805876238651574
2024-12-07 18:24:14.950798800,7.529798828125,1.3653157085359096,-0.0193909291684627,0.2691780292890965
2024-12-07 18:24:14.960771800,7.539771728515625,0.9012603462476284,0.098470311102271,-0.0381422452591359
2024-12-07 18:24:14.970745900,7.549745849609375,0.5889069729030132,0.2494815413028001,-0.462248239801079
2024-12-07 18:24:14.980719900,7.559719970703125,0.4567938468527048,0.328429405811429,-0.9471585393957792
2024-12-07 18:24:14.990694000,7.56969384765625,0.5353279429286718,0.3154348996818065,-1.293404026274383
2024-12-07 18:24:15.000668000,7.57966796875,0.5912888996034861,0.2785223423480987,-1.5211450065426528
2024-12-07 18:24:15.010642000,7.589641845703125,0.4347217888414859,0.270811914101243,-1.6588130633063614
2024-12-07 18:24:15.020616000,7.599615966796875,0.3387414679240435,0.2091898629248142,-1.7208653225935997
2024-12-07 18:24:15.030589700,7.609589599609375,0.3085182521611452,0.0853653303354978,-1.7948010580286382
2024-12-07 18:24:15.040563700,7.619563720703125,0.3564543443450704,-0.0259983646094799,-1.7335463788598775
2024-12-07 18:24:15.050537000,7.629536865234375,0.4706237443605437,-0.0351098918259143,-1.4186831415861845
2024-12-07 18:24:15.060511000,7.639510986328125,0.5583762986261397,-0.1234849253714084,-0.8527658529959619
2024-12-07 18:24:15.070485000,7.649485107421875,0.8863222317695617,-0.2210474739789962,-0.1410693896397948
2024-12-07 18:24:15.080458800,7.659458740234375,1.3240192370295525,-0.318117855155468,0.5366147678688168
2024-12-07 18:24:15.090432800,7.669432861328125,1.541568932020664,-0.4411041833549737,1.0338589177273214
2024-12-07 18:24:15.100406800,7.67940673828125,1.570829513296485,-0.628736294466257,1.276412997854501
2024-12-07 18:24:15.110380800,7.689380859375,1.4591858323663471,-0.7243021162986755,1.3932738289110362
2024-12-07 18:24:15.120354800,7.699354736328125,1.1578262197881937,-0.657280251905322,1.3761553747192024
2024-12-07 18:24:15.130328000,7.709328125,0.7725397852450608,-0.4984481188207864,1.219474501384422
2024-12-07 18:24:15.140301800,7.7193017578125,0.3345347734818235,-0.3036673049986362,0.9503497366525232
2024-12-07 18:24:15.150275800,7.72927587890625,0.3178980749249458,0.0280839387118816,0.7583455479368567
2024-12-07 18:24:15.160249900,7.739249755859375,0.4587053064972162,0.2469219199478626,0.5615016641050576
2024-12-07 18:24:15.170223900,7.749223876953125,0.3486129466623067,0.279763866841793,0.2632219704288989
2024-12-07 18:24:15.180198000,7.759197998046875,0.1681669476628303,0.2274912432909011,0.0523207735415548
2024-12-07 18:24:15.190172000,7.769171875,-0.0390501538842916,0.1528571503281593,-0.0641762657038867
2024-12-07 18:24:15.200146000,7.77914599609375,-0.2727712314754724,0.1376385384082794,-0.2639795838631689
2024-12-07 18:24:15.210120000,7.789119873046875,-0.5742307972967624,0.1023112044394016,-0.4582041520420462
2024-12-07 18:24:15.220092700,7.7990927734375,-0.7315981185257434,0.0851969880312681,-0.5857557423304766
2024-12-07 18:24:15.230066700,7.809066650390625,-0.9891863939166068,-0.0005021043032407,-0.6721396751239895
2024-12-07 18:24:15.240040700,7.819040771484375,-1.1298866579830646,-0.0073620532006025,-0.4456220991708338
2024-12-07 18:24:15.250014700,7.8290146484375,-1.3488742768228053,0.0083785367667675,-0.3087818715333938
2024-12-07 18:24:15.259988700,7.83898876953125,-1.4116016588926317,-0.0121451958239078,-0.1088249702475964
2024-12-07 18:24:15.269962800,7.848962646484375,-1.233698914635181,0.0056096565753221,0.0948296165123581
2024-12-07 18:24:15.279936800,7.858936767578125,-1.1352642593681812,0.0171919578194618,0.1905596889957785
2024-12-07 18:24:15.289910800,7.868910888671875,-1.093257009243965,-0.0228302559673786,0.2260187595855444
2024-12-07 18:24:15.299884800,7.878884765625,-1.1531342625796794,-0.0982470237404108,0.2564907624777406
2024-12-07 18:24:15.309857800,7.88885791015625,-1.2448854945600032,-0.1851116527229547,0.421474476994574
2024-12-07 18:24:15.319831800,7.898831787109375,-1.173041909098625,-0.2076379573076963,0.7349350078634918
2024-12-07 18:24:15.329805800,7.908805908203125,-1.020714335602522,-0.236378314101696,1.071128544870391
2024-12-07 18:24:15.339779800,7.91877978515625,-0.7813328210968524,-0.2321592351019382,1.4595086345799266
2024-12-07 18:24:15.349753900,7.92875390625,-0.4537339478254318,-0.239039642265439,1.6858876788452266
2024-12-07 18:24:15.359727900,7.938727783203125,-0.1064203933238983,-0.2701122413992882,1.7388760494500397
2024-12-07 18:24:15.369702000,7.948701904296875,0.1944389050493016,-0.2671259190648794,1.688887006791681
2024-12-07 18:24:15.379676000,7.958676025390625,0.3465489998698234,-0.2305366023361682,1.506139598982036
2024-12-07 18:24:15.389650000,7.96864990234375,0.2982522942125797,-0.133881231701374,1.2925681599721313
2024-12-07 18:24:15.399623000,7.978622802734375,0.1229904563853517,0.0097615155577659,1.0784851181782782
2024-12-07 18:24:15.409597000,7.988596923828125,-0.1459434619495645,0.1953968998938798,0.9408107778042556
2024-12-07 18:24:15.419571000,7.998571044921875,-0.3782125871667638,0.2495247959226369,0.9533006223473698
2024-12-07 18:24:15.429545000,8.008544921875,-0.4973965639412402,0.1835340281426906,0.9218689075775444
2024-12-07 18:24:15.439519000,8.01851904296875,-0.7165490179538726,0.149952076536417,0.7324280665438622
2024-12-07 18:24:15.449493000,8.028492919921876,-0.883550428968668,0.0400567005783319,0.7934729754194617
2024-12-07 18:24:15.459467000,8.038467041015625,-0.9526958613872528,0.0001624970853328,0.996036405941844
2024-12-07 18:24:15.469441000,8.04844091796875,-1.0548575012881307,-0.0680330872625112,1.085312114654109
2024-12-07 18:24:15.479413800,8.058413818359375,-1.0409843856930732,-0.0868541075885295,1.235202889457345
2024-12-07 18:24:15.489387800,8.0683876953125,-0.8505331985730678,-0.0560983193188905,1.5020488225370645
2024-12-07 18:24:15.499361800,8.07836181640625,-0.7206769115388393,0.3107727530896663,1.7826818734288217
2024-12-07 18:24:15.509335800,8.088335693359374,-0.6960989351212978,0.2610796246379613,1.8427502654224632
2024-12-07 18:24:15.519309800,8.098309814453126,-0.5876655214745551,0.1646224069237709,1.977244514455646
2024-12-07 18:24:15.529283800,8.108283935546876,-0.4151380405146628,0.2593757433295249,2.171634137003124
2024-12-07 18:24:15.539257900,8.1182578125,-0.5065034880477934,0.2018348239868879,2.091537248589844
2024-12-07 18:24:15.549231900,8.12823193359375,-0.6014718919763341,0.1618839218705892,2.044891671140492
2024-12-07 18:24:15.559206000,8.138205810546875,-0.5813654714822769,0.309148951280117,1.9616409948714075
2024-12-07 18:24:15.569179000,8.148178955078125,-0.7002513786256312,0.8373755377709865,1.860640434639156
2024-12-07 18:24:15.579153000,8.15815283203125,-0.7650655038416385,1.0758464402377603,1.5185481219172476
2024-12-07 18:24:15.589127000,8.168126953125,-0.8701835823953151,1.3955033415287732,1.064069054812938
2024-12-07 18:24:15.599101000,8.178100830078124,-1.2472796962201596,1.6407313170403242,0.5676951849829405
2024-12-07 18:24:15.609075000,8.188074951171876,-1.620645391345024,1.643907608988881,-0.0419610728949308
2024-12-07 18:24:15.619049000,8.198049072265626,-1.615181280720234,1.382167474615574,-0.6150125972792506
2024-12-07 18:24:15.629022700,8.208022705078125,-1.230174832162261,0.9555646948218344,-1.004353787105903
2024-12-07 18:24:15.638996700,8.217996826171875,-0.8820131363987922,0.4994546655148267,-1.1732322440389542
2024-12-07 18:24:15.648970800,8.227970703125,-0.6673404581487178,0.2031441530197858,-1.046930507681146
2024-12-07 18:24:15.658944000,8.237944091796875,-0.6260299581170081,0.0284872588157653,-0.8868477900136261
2024-12-07 18:24:15.668918000,8.24791796875,-0.9186989723045378,-0.0693038378506898,-0.8347256077840923
2024-12-07 18:24:15.678891800,8.257891845703124,-1.507487798720598,0.1544423736929893,-0.7867538962975144
2024-12-07 18:24:15.688865800,8.26786572265625,-2.049545342165231,0.6280851370811462,-0.8526115392170845
2024-12-07 18:24:15.698839800,8.27783984375,-2.140432066270709,1.2226479437887667,-1.316057610500604
2024-12-07 18:24:15.708813800,8.287813720703125,-1.853364598417282,1.769260666319728,-2.050026842071861
2024-12-07 18:24:15.718787800,8.297787841796875,-0.9932453139185904,2.03190564057827,-2.6779817769020795
2024-12-07 18:24:15.728761900,8.307761962890625,0.5681745659977198,2.104066036903858,-2.957591329964995
2024-12-07 18:24:15.738735900,8.31773583984375,2.120855843663215,2.187504198569059,-2.908654572838545
2024-12-07 18:24:15.748708900,8.327708984375,2.695870484814048,2.397821019697189,-2.2587400273956355
2024-12-07 18:24:15.758683000,8.337682861328124,2.501548520675301,2.562279760491848,-1.450189163701236
2024-12-07 18:24:15.768657000,8.347656982421874,1.8053661450542509,2.383773789644241,-0.9955210037656128
2024-12-07 18:24:15.778631000,8.357630859375,1.0754156476050614,2.1580501405477523,-0.6352410001851618
2024-12-07 18:24:15.788605000,8.36760498046875,1.048635923359543,1.8251222542732952,-0.1502529591791331
2024-12-07 18:24:15.798579000,8.377578857421875,1.2380746455013751,1.3135177167594432,-0.063259004728496
2024-12-07 18:24:15.808553000,8.387552978515625,1.3940059425778686,0.7769961801320314,-0.2364380814649164
2024-12-07 18:24:15.818526700,8.397526611328125,1.7345225304156542,0.2374538343787193,-0.2790527959629893
2024-12-07 18:24:15.828499700,8.407499755859375,1.8250138254627584,-0.0520195255726575,-0.3214814863696694
2024-12-07 18:24:15.838473700,8.4174736328125,1.7303741785645483,-0.2642559165865182,-0.3322305516600609
2024-12-07 18:24:15.848447700,8.42744775390625,1.6806784197643398,-0.4377548729270696,-0.4876768416985869
2024-12-07 18:24:15.858421800,8.437421875,1.513468918956816,-0.5661532893031835,-0.6441793627917766
2024-12-07 18:24:15.868395800,8.447395751953126,1.2610884413421153,-0.678832158499956,-0.9468515192732214
2024-12-07 18:24:15.878369800,8.457369873046876,1.1143509429380296,-0.8245511275112628,-1.1209653926417231
2024-12-07 18:24:15.888343800,8.46734375,0.9801032160118222,-0.9402864616692066,-1.145897004802525
2024-12-07 18:24:15.898317600,8.477317626953125,0.904427212780714,-0.9977028778493404,-1.1805275886788964
2024-12-07 18:24:15.908291600,8.48729150390625,0.998774306473136,-1.193346445980668,-1.4440528529033063
2024-12-07 18:24:15.918264300,8.497264404296875,1.028472694644332,-1.3440174844413997,-1.710848224839568
2024-12-07 18:24:15.928238300,8.50723828125,0.8996925854742527,-1.5102274528175592,-1.8569561931684613
2024-12-07 18:24:15.938212400,8.51721240234375,0.7570546313434838,-1.783572684788704,-1.91544579153806
2024-12-07 18:24:15.948186400,8.527186279296876,0.7443218448899686,-2.181032956728339,-2.3398989920824764
2024-12-07 18:24:15.958160400,8.537160400390626,0.8060622617490589,-2.5217273853510616,-2.8358944570541382
2024-12-07 18:24:15.968134400,8.547134521484375,0.9225498755790292,-2.7111083859562872,-3.117270143006742
2024-12-07 18:24:15.978108400,8.5571083984375,0.7725634583815931,-2.7902380367726085,-3.258232565140724
2024-12-07 18:24:15.988082400,8.56708251953125,0.4536480231076478,-2.7468361174196003,-3.228290723602474
2024-12-07 18:24:15.998056400,8.577056396484375,0.1758646625585854,-2.586151049944758,-3.108853027795255
2024-12-07 18:24:16.008029400,8.587029541015625,-0.1796669774509966,-2.173605437076092,-2.8844755326107143
2024-12-07 18:24:16.018003500,8.59700341796875,-0.6764351803608238,-1.631091382035613,-2.254113390508294
2024-12-07 18:24:16.027977500,8.6069775390625,-0.974328578133136,-1.2988456328064202,-1.1870792022794483
2024-12-07 18:24:16.037951500,8.616951416015626,-0.8943728517562151,-1.2144056006222963,0.0196089558333158
2024-12-07 18:24:16.047925500,8.626925537109376,-0.7197650573909282,-1.038705919367075,1.1490344260454175
2024-12-07 18:24:16.057899500,8.6368994140625,-0.4670410270355641,-0.8565870187193155,1.811167086417973
2024-12-07 18:24:16.067873500,8.64687353515625,-0.2501259766861796,-0.6451414858222008,2.3121923622503875
2024-12-07 18:24:16.077847600,8.65684765625,-0.4121463844180107,-0.2195610348135233,2.8972020354539154
2024-12-07 18:24:16.087820500,8.666820556640625,-0.9401765715539456,0.2567921565771103,3.341518166592717
2024-12-07 18:24:16.097794600,8.676794677734375,-1.6074040708474815,0.6773866358667612,3.620687574672699
2024-12-07 18:24:16.107768600,8.6867685546875,-2.550519764593244,1.1943500700652598,3.779822490096092
2024-12-07 18:24:16.117742600,8.69674267578125,-3.3903754287421703,1.38165251083076,3.563139641067385
2024-12-07 18:24:16.127716600,8.706716552734376,-3.6435832970917215,1.042390745359659,3.3086557614326475
2024-12-07 18:24:16.137690600,8.716690673828126,-2.8855910926371813,0.4837000470221042,3.2326047874093056
2024-12-07 18:24:16.147664600,8.72666455078125,-1.6656699434638025,0.1086275479793548,3.1259377258479595
2024-12-07 18:24:16.157638700,8.736638671875,-0.4417768949847668,0.0051467152386903,2.993487403732538
2024-12-07 18:24:16.167612700,8.74661279296875,0.3272686184037476,-0.0303758490413427,2.8760511108756064
2024-12-07 18:24:16.177585700,8.756585693359375,0.2573370771087706,0.0169487967133522,2.77475580548048
2024-12-07 18:24:16.187559700,8.7665595703125,-0.5984101297855376,0.2674953368991613,2.8099679886370894
2024-12-07 18:24:16.197533400,8.776533447265624,-1.258842562111467,0.7761883708804845,2.732212548783421
2024-12-07 18:24:16.207507500,8.786507568359376,-1.518607158628106,1.600648897498846,2.154228390302509
2024-12-07 18:24:16.217481500,8.7964814453125,-1.3621103366233407,2.7383196334868667,1.17980731158033
2024-12-07 18:24:16.227455500,8.80645556640625,-0.987734003151208,3.869070214822888,-0.0727919722273945
2024-12-07 18:24:16.237429500,8.816429443359375,-0.7717068415522574,4.263026278033852,-1.242119098586589
2024-12-07 18:24:16.247403300,8.8264033203125,-0.8355944265078753,3.427996426606178,-2.3232057775653896
2024-12-07 18:24:16.257376500,8.83637646484375,-0.6060089143514633,1.8604267918884752,-3.139587481015921
2024-12-07 18:24:16.267350500,8.8463505859375,0.106101098241657,0.3538204521775245,-3.061224722918868
2024-12-07 18:24:16.277324500,8.856324462890624,0.7526754664111882,-0.6982640042006969,-2.459245502474904
2024-12-07 18:24:16.287298600,8.866298583984374,1.0232068830706178,-1.2962398342221977,-2.2656970069266853
2024-12-07 18:24:16.297272300,8.876272216796876,1.0874245036982,-1.7941174596786498,-2.5133301438838243
2024-12-07 18:24:16.307246300,8.886246337890626,1.229005203860998,-2.318247716766596,-2.8684271918684243
2024-12-07 18:24:16.317220400,8.896220458984375,1.3678719688899814,-2.584880883878469,-3.180143655548989
2024-12-07 18:24:16.327194400,8.9061943359375,1.498220204159617,-2.4075199914127587,-3.316176804587245
2024-12-07 18:24:16.337168400,8.91616845703125,1.5997399659603833,-1.7604308786541225,-3.238665402622521
2024-12-07 18:24:16.347141600,8.9261416015625,1.698151240351796,-0.821296509629488,-2.896756629773974
2024-12-07 18:24:16.357115400,8.936115478515624,1.6402590233534573,0.0488502478867769,-2.276015279584378
2024-12-07 18:24:16.367089400,8.94608935546875,1.4760067649163304,0.5618588069796562,-1.434776052122563
2024-12-07 18:24:16.377063400,8.9560634765625,1.2118162417162208,0.8002788560420274,-0.6153548348456621
2024-12-07 18:24:16.387037400,8.966037353515626,1.0327519793987274,0.9069219522058964,0.3123576841935515
2024-12-07 18:24:16.397011500,8.976011474609376,1.1166221027404069,0.8091057210981846,1.163121988108754
2024-12-07 18:24:16.406985500,8.9859853515625,1.1624609669167547,0.3723088795483112,1.5219048849992454
2024-12-07 18:24:16.416959500,8.99595947265625,1.0288299105841665,-0.1472854876756668,1.4809845533289014
2024-12-07 18:24:16.426933500,9.00593359375,0.8941753564227372,-0.4005442094296216,1.2182960321895775
2024-12-07 18:24:16.436906500,9.015906494140625,0.7458223856460303,-0.2009323221892118,0.8003516290172934
2024-12-07 18:24:16.446880500,9.025880615234374,0.6212959153324366,0.2839046199083328,0.3682917528614401
2024-12-07 18:24:16.456854500,9.0358544921875,0.6743079590737819,0.7626824080973863,-0.0564765049815177
2024-12-07 18:24:16.466828500,9.04582861328125,0.930681013455987,0.9607195933669804,-0.4063886976741254
2024-12-07 18:24:16.476802600,9.055802490234376,1.1951958732396364,0.8537292912006378,-0.6841238351672887
2024-12-07 18:24:16.486776600,9.065776611328126,1.1964344751238822,0.436191276872158,-0.9076165103413164
2024-12-07 18:24:16.496750600,9.07575048828125,0.9734230806607752,0.1083253501623868,-0.9972750078260898
2024-12-07 18:24:16.506724600,9.085724609375,0.6698369511395692,-0.1113227784126996,-1.0499711174860595
2024-12-07 18:24:16.516698600,9.09569873046875,0.4776946691274643,-0.1349228497087955,-1.010269075564295
2024-12-07 18:24:16.526671400,9.10567138671875,0.3478443003773689,-0.0429927540302276,-0.9080306441001592
2024-12-07 18:24:16.536645400,9.115645263671874,0.3294442088771611,0.1229191081821918,-0.6212115980498493
2024-12-07 18:24:16.546619400,9.125619384765624,0.4836246436983347,0.2562146489500999,-0.1634681223221123
2024-12-07 18:24:16.556593400,9.135593505859376,0.6825275058865546,0.2914081274062395,0.2911523990795016
2024-12-07 18:24:16.566567400,9.1455673828125,0.7294611064970493,0.0978460417240858,0.6333414501741528
2024-12-07 18:24:16.576541400,9.15554150390625,0.895317950586602,-0.107802787593007,0.9317341757707296
2024-12-07 18:24:16.586515500,9.165515380859375,1.0144821632146834,-0.3256698779702186,0.9928554378181697
2024-12-07 18:24:16.596489500,9.175489501953123,1.068653898385167,-0.5544838942974806,0.8668849792413413
2024-12-07 18:24:16.606462500,9.18546240234375,1.0110708934664725,-0.699401483798027,0.675960110194981
2024-12-07 18:24:16.616436500,9.1954365234375,0.7505728681087493,-0.6847825913369655,0.4183174742683768
2024-12-07 18:24:16.626410500,9.205410400390624,0.5171616236517206,-0.5956172841966152,0.2034216547869145
2024-12-07 18:24:16.636384500,9.215384521484374,0.4851368383595719,-0.4377443515330553,0.0986744553722441
2024-12-07 18:24:16.646358500,9.225358642578126,0.3763754348674789,-0.1743085191577673,-0.0263153216041624
2024-12-07 18:24:16.656332500,9.23533251953125,0.2535287891332991,0.0349666839629411,-0.001828165275231
2024-12-07 18:24:16.666306600,9.245306640625,0.1999018100976944,0.1679910065740346,0.1584904069747775
2024-12-07 18:24:16.676280600,9.255280517578123,0.1711415795594453,0.1815197657108306,0.1085123241018503
2024-12-07 18:24:16.686254600,9.265254638671877,0.1120206975489854,0.0274549931585788,0.0853850579492747
2024-12-07 18:24:16.696227600,9.2752275390625,0.1016740755796432,-0.0576017096191644,0.1738509846486151
2024-12-07 18:24:16.706201600,9.28520166015625,0.0733621733307838,-0.1744417901486158,0.1270317311327904
2024-12-07 18:24:16.716175600,9.295175537109374,-0.03849368904531,-0.20306173543334,0.0131546651273965
2024-12-07 18:24:16.726149600,9.305149658203124,-0.2469669281333684,-0.0769675043463706,-0.1021216001514345
2024-12-07 18:24:16.736123600,9.31512353515625,-0.5155927303671837,0.0852682997018098,-0.2664726427879184
2024-12-07 18:24:16.746097700,9.32509765625,-0.8991840514302253,0.3047334729254246,-0.3353863853424787
2024-12-07 18:24:16.756071700,9.33507177734375,-1.2670154933035374,0.4168459404110908,-0.5487248923793435
2024-12-07 18:24:16.766045700,9.345045654296875,-1.3844038553655147,0.3753583302468061,-0.6401684466499835
2024-12-07 18:24:16.776019500,9.35501953125,-1.2626748337507248,0.2627840904682874,-0.6092731037791818
2024-12-07 18:24:16.785992400,9.364992431640625,-1.145175412529707,-0.0025900164932012,-0.7143519463010132
2024-12-07 18:24:16.795966500,9.374966552734374,-1.0163327595174312,-0.220874455499649,-0.7325598762299865
2024-12-07 18:24:16.805940500,9.3849404296875,-0.8663526259303093,-0.2820300582081079,-0.5955691342059523
2024-12-07 18:24:16.815914500,9.39491455078125,-0.7258674659192562,-0.2679068403095007,-0.2871225590415299
2024-12-07 18:24:16.825888500,9.404888427734376,-0.5275836124122143,-0.2487999887794256,0.1009607396785169
2024-12-07 18:24:16.835862300,9.4148623046875,-0.3668096610775217,-0.1778349397182464,0.5847828056450933
2024-12-07 18:24:16.845836300,9.424836181640623,-0.274625919431448,-0.057932549008727,1.0593808239314704
2024-12-07 18:24:16.855810300,9.434810302734377,-0.231008896023035,0.0089776717036962,1.4557013512514532
2024-12-07 18:24:16.865784300,9.444784423828125,-0.1580348452270031,-0.0517488919377326,1.6430618058145046
2024-12-07 18:24:16.875757600,9.454757568359376,-0.04306636725571,-0.1594423739373683,1.643859385932982
2024-12-07 18:24:16.885731600,9.464731689453124,0.0349929509153589,-0.2546276720196008,1.5101808371968566
2024-12-07 18:24:16.895705300,9.474705322265624,0.0078688336789608,-0.2911146974176168,1.2461369559258222
2024-12-07 18:24:16.905679400,9.484679443359376,-0.1633142469346523,-0.2507178050994872,0.9153365101341158
2024-12-07 18:24:16.915653400,9.4946533203125,-0.3684299557557329,-0.0969102221786975,0.61318596637398
2024-12-07 18:24:16.925627400,9.50462744140625,-0.5888087732255458,-0.0183569099456071,0.4539816389761865
2024-12-07 18:24:16.935601400,9.514601318359375,-0.7776642886519431,0.1806073270410299,0.3356216919356957
2024-12-07 18:24:16.945575400,9.524575439453123,-1.0099871898829935,0.3580360240459442,0.2240134841777384
2024-12-07 18:24:16.955549400,9.534549560546877,-1.0282312871038912,0.5087713599145413,0.442621565647982
2024-12-07 18:24:16.965522400,9.5445224609375,-0.794570999789238,0.6817120978504418,0.7945841515317559
2024-12-07 18:24:16.975496400,9.554496337890624,-0.5207517570981756,0.7106207969486713,0.9875348273172974
2024-12-07 18:24:16.985470500,9.564470458984376,-0.2708884499361738,0.6345937883228063,1.161034587375447
2024-12-07 18:24:16.995444500,9.574444580078126,-0.0344377281853929,0.4910930798828601,1.3134149870373308
2024-12-07 18:24:17.005418500,9.58441845703125,0.0429833651473745,0.4415051653712987,1.4946281710170208
2024-12-07 18:24:17.015392500,9.594392578125,-0.0076688906600698,0.3581207797199487,1.579037369671464
2024-12-07 18:24:17.025366500,9.604366455078123,-0.116240397603251,0.444134344831109,1.6393120978921651
2024-12-07 18:24:17.035340500,9.614340576171877,-0.4589934757888317,0.5896119063019752,1.496570098865032
2024-12-07 18:24:17.045313500,9.6243134765625,-0.7542413274884223,0.7117056695759296,1.313633452093601
2024-12-07 18:24:17.055287600,9.63428759765625,-0.8931248975217342,0.8008236304432154,1.0961682935807853
2024-12-07 18:24:17.065261600,9.644261474609374,-0.9339631038665772,0.8189373792827129,0.8261177923060953
2024-12-07 18:24:17.075235600,9.654235595703126,-0.9838964708149432,0.8423340369611978,0.3352954191233963
2024-12-07 18:24:17.085209300,9.664209228515626,-1.0206745881140231,0.8994926789879798,-0.1574810838017612
2024-12-07 18:24:17.095183400,9.674183349609375,-1.053799443602562,0.9047802640020848,-0.6293608561053872
2024-12-07 18:24:17.105157400,9.684157470703123,-0.8604360953629017,0.7001718836486339,-0.9404257240094244
2024-12-07 18:24:17.115131400,9.69413134765625,-0.5372124415010213,0.373458049583435,-1.0172007014583797
2024-12-07 18:24:17.125105400,9.70410546875,-0.3426338722527027,0.023644494959712,-0.9772403008613736
2024-12-07 18:24:17.135078400,9.714078369140625,-0.2711421689689159,-0.2565098325043916,-0.8127139016579836
2024-12-07 18:24:17.145052400,9.724052490234374,-0.3903167568605393,-0.3522282145500183,-0.5219418071329593
2024-12-07 18:24:17.155026400,9.7340263671875,-0.5582108789313585,-0.2732645679503679,-0.2041844558529555
2024-12-07 18:24:17.165000400,9.74400048828125,-0.7293786889106035,-0.0790226833105087,0.0322988529931753
2024-12-07 18:24:17.174974500,9.753974365234376,-0.8142587930124252,0.1692576655089855,0.1569695540830493
2024-12-07 18:24:17.184948500,9.763948486328124,-0.8928571134310215,0.5104787483543157,0.1942369162037968
2024-12-07 18:24:17.194922500,9.773922607421875,-0.9302424759082496,0.9967612130850552,0.3164692111656069
2024-12-07 18:24:17.204896500,9.783896484375,-1.1484833680339157,1.4786667779058218,0.2063474791057407
2024-12-07 18:24:17.214870500,9.79387060546875,-1.0472650733977555,1.7112743412971496,-0.3206023654475808
2024-12-07 18:24:17.224843500,9.803843505859374,-0.2083317847907543,1.8035136490553616,-1.1749959657758473
2024-12-07 18:24:17.234817500,9.813817626953124,0.8026227888196706,2.023428319612145,-1.5636488080121576
2024-12-07 18:24:17.244791600,9.82379150390625,1.3615461268693207,2.3294354657351968,-1.4510579093597828
2024-12-07 18:24:17.254765600,9.833765625,1.617136068049818,2.4977275010824203,-1.2317499725244938
2024-12-07 18:24:17.264739600,9.843739501953126,1.7389048371531068,2.366701658812165,-1.045490757201612
2024-12-07 18:24:17.274713600,9.853713623046875,1.7093920346818865,1.919883773985505,-0.8474024262666702
2024-12-07 18:24:17.284687600,9.8636875,1.7507172938913107,1.308609486451745,-0.4891878307834267
2024-12-07 18:24:17.294661600,9.87366162109375,1.8864901845581827,0.674789020588994,-0.0784897454775869
2024-12-07 18:24:17.304635600,9.8836357421875,1.86713184248507,0.0325958631783723,0.1703730794049799
2024-12-07 18:24:17.314608600,9.893608642578124,1.8959227604225275,-0.5139981546521186,0.0762723616890609
2024-12-07 18:24:17.324582700,9.903582763671874,1.732983045888692,-0.7221797173172235,-0.064614072599262
2024-12-07 18:24:17.334556700,9.913556640625,1.459635329699516,-0.7168623216867447,0.0775463271476328
2024-12-07 18:24:17.344530700,9.92353076171875,1.2869812997505068,-0.7443249136298894,-0.0085839962109923
2024-12-07 18:24:17.354504700,9.933504638671875,1.2477940754830836,-0.7877391079425812,-0.1386914084620773
2024-12-07 18:24:17.364478500,9.943478515625,1.2281868732154368,-0.7961369339317083,-0.2911547371670603
2024-12-07 18:24:17.374452500,9.953452392578123,1.282400693961978,-0.7321411393612622,-0.3902838044390082
2024-12-07 18:24:17.384426500,9.963426513671877,1.428116009711474,-0.6812544172108173,-0.4896700613424181
2024-12-07 18:24:17.394399500,9.9733994140625,1.1853665531426667,-0.6764087307453155,-0.5070937820911408
2024-12-07 18:24:17.404373500,9.98337353515625,0.6680183574102818,-0.7377817755967379,-0.6347226753994822
2024-12-07 18:24:17.414347500,9.993347412109374,0.4814161738686263,-0.9876257204711436,-1.1240882008373736
2024-12-07 18:24:17.424321500,10.003321533203126,0.4488140270799398,-1.2854495601385831,-1.7332038490325212
2024-12-07 18:24:17.434295300,10.01329541015625,0.5621013835638761,-1.4956529840201138,-2.235315751057863
2024-12-07 18:24:17.444269300,10.023269287109375,0.6169191615529358,-1.6338152540415525,-2.630652454972267
2024-12-07 18:24:17.454243300,10.033243408203123,0.5433429070800543,-1.6554852340579032,-2.916058127093315
2024-12-07 18:24:17.464217300,10.04321728515625,0.4626695339530706,-1.6946879481554031,-3.176540078099072
2024-12-07 18:24:17.474191400,10.05319140625,0.260939485514909,-1.741152762210369,-3.404719888176024
2024-12-07 18:24:17.484164400,10.063164306640624,-0.0072609309136867,-1.7346248217463491,-3.4819036656215783
2024-12-07 18:24:17.494138400,10.073138427734374,-0.3875931040503084,-1.6976473824828862,-3.498322300980985
2024-12-07 18:24:17.504112400,10.0831123046875,-0.8165196506164968,-1.572306600111723,-3.280195975145697
2024-12-07 18:24:17.514086400,10.09308642578125,-0.9311673356682062,-1.46438398553133,-2.636666600695252
2024-12-07 18:24:17.524060400,10.103060302734375,-0.7439817992806435,-1.3752023117780685,-1.8432313269376752
2024-12-07 18:24:17.534034400,10.113034423828124,-0.7055405710749327,-1.1848936749339103,-1.0696493391633033
2024-12-07 18:24:17.544008400,10.123008544921875,-1.0666699580263346,-0.7326151866137981,-0.2195586967259645
2024-12-07 18:24:17.553982500,10.132982421875,-1.3226087857097386,-0.4067360498070717,0.5155113356940448
2024-12-07 18:24:17.563956500,10.14295654296875,-1.3719966476045549,-0.2134440132379531,1.171376606234908
2024-12-07 18:24:17.573929500,10.152929443359374,-1.4602907248683272,0.0756973382800817,1.7767112745866178
2024-12-07 18:24:17.583903500,10.162903564453124,-1.5291392201669514,0.2752659709006548,2.4082480134263635
2024-12-07 18:24:17.593877500,10.17287744140625,-1.565898486635089,0.2949322098791599,2.9476857297614214
2024-12-07 18:24:17.603851500,10.1828515625,-1.5414539273388683,0.1324789636880159,3.1772195847958327
2024-12-07 18:24:17.613825500,10.192825439453124,-1.1735061656095087,-0.1829641193002462,3.0693992615461347
2024-12-07 18:24:17.623799600,10.202799560546875,-0.4367722916305065,-0.4356833273500204,2.8137688422247766
2024-12-07 18:24:17.633773600,10.212773681640623,0.2239114851079881,-0.4121440463304519,2.564393976166844
2024-12-07 18:24:17.643747600,10.22274755859375,0.5812971554864198,-0.1454670400768518,2.1161706084564327
2024-12-07 18:24:17.653721600,10.2327216796875,0.5060511411704123,0.2976169189184904,1.74879290169999
2024-12-07 18:24:17.663694300,10.2426943359375,-0.0711660515259951,0.6539572449624538,1.592693408449739
2024-12-07 18:24:17.673668400,10.25266845703125,-0.8681283303659408,0.7266764442145824,1.5945703082375229
2024-12-07 18:24:17.683642400,10.262642333984376,-1.6401351047128438,0.5040495920896529,1.7629073517702518
2024-12-07 18:24:17.693616400,10.272616455078126,-2.1932687534451483,0.1083013847649097,1.859614306461811
2024-12-07 18:24:17.703590400,10.28259033203125,-2.439940498024225,-0.0036111762344837,1.7704332172304391
2024-12-07 18:24:17.713564400,10.292564453125,-2.287683651676774,0.2374848140388727,1.2639774407818911
2024-12-07 18:24:17.723538400,10.302538330078123,-1.6016361549705267,0.7787579291075467,0.5058750539511442
2024-12-07 18:24:17.733512400,10.312512451171877,-0.5537923318367451,1.4796522818118334,-0.3612599545285105
2024-12-07 18:24:17.743485400,10.3224853515625,0.3659188131850213,2.164699661564826,-1.2402116575300692
2024-12-07 18:24:17.753459500,10.33245947265625,0.8666647606194019,2.7441145835012195,-1.9550502183042464
2024-12-07 18:24:17.763433500,10.34243359375,0.7647820837903767,3.1263807934403416,-2.47242121039033
2024-12-07 18:24:17.773407500,10.352407470703126,-0.0367547364234924,3.2575358150482177,-2.7957997625529765
2024-12-07 18:24:17.783381500,10.362381591796876,-1.3375614401698113,2.814613768616318,-2.791259196513891
2024-12-07 18:24:17.793355500,10.37235546875,-2.694862769076228,1.4396370822876692,-1.969928346223384
2024-12-07 18:24:17.803329500,10.38232958984375,-3.0461902353942394,-0.0011427402943372,-1.023178533758968
2024-12-07 18:24:17.813303600,10.392303466796877,-2.1378104855954647,-1.1636521494627,-0.5768842344149947
2024-12-07 18:24:17.823277600,10.402277587890625,-0.6054881053477525,-2.13298876452744,-0.5983909866936504
2024-12-07 18:24:17.833250600,10.41225048828125,0.8601333860892802,-2.7408862691044806,-1.0194755875878034
2024-12-07 18:24:17.843224600,10.422224609375,1.8969225851148368,-2.809696770480275,-1.5606512336313725
2024-12-07 18:24:17.853198600,10.432198486328126,2.3952841946959493,-2.342058215942979,-2.010011496417224
2024-12-07 18:24:17.863172600,10.442172607421876,2.4213977101176978,-1.5434651210308077,-2.119382848501205
2024-12-07 18:24:17.873146600,10.452146728515626,2.1486405071675776,-0.7197931144416332,-1.9280960142746568
2024-12-07 18:24:17.883120600,10.46212060546875,1.6774188334465026,0.0240039759218692,-1.452066355749965
2024-12-07 18:24:17.893094700,10.4720947265625,1.019732923349738,0.6254851837158203,-0.7309739952780306
2024-12-07 18:24:17.903069000,10.48206884765625,0.3354109352618455,1.0947235746651889,0.0790356889225542
2024-12-07 18:24:17.913043000,10.49204296875,-0.1156826541226357,1.3543378029257058,0.7363437056176364
2024-12-07 18:24:17.923016200,10.50201611328125,-0.1029529364090412,1.2772002027094362,1.09724841696769
2024-12-07 18:24:17.932990000,10.511989990234374,0.3102281248189508,1.0484662658810615,1.1775485728681088
2024-12-07 18:24:17.942964000,10.5219638671875,0.9359854765396564,0.7022463518351316,0.8383383914537728
2024-12-07 18:24:17.952938000,10.53193798828125,1.4770260249614715,0.3425777581512927,0.1531404973141849
2024-12-07 18:24:17.962912000,10.541912109375,1.7441192108005283,0.0641255584299564,-0.5141792103074491
2024-12-07 18:24:17.972886000,10.551885986328124,1.6185913814246653,-0.1279483345210552,-0.941171427810192
2024-12-07 18:24:17.982860000,10.561860107421875,1.23416770119071,-0.148974755936861,-1.06408849016577
2024-12-07 18:24:17.992834000,10.571833984375,0.8559171566337347,-0.0717144061237573,-1.0897408178165555
2024-12-07 18:24:18.002808000,10.58180810546875,0.599866210345365,0.0721259095340967,-1.0838597969539463
2024-12-07 18:24:18.012781000,10.591781005859374,0.5204162780661136,0.1790378857672214,-1.12825891065076
2024-12-07 18:24:18.022755000,10.601755126953124,0.4772638764947652,0.2956634467631578,-1.1889837207265197
2024-12-07 18:24:18.032728800,10.611728759765626,0.4152981264472007,0.3987316070497035,-1.1567341867677867
2024-12-07 18:24:18.042702800,10.621702880859376,0.4405126472026109,0.4595154538363218,-0.9713336341008544
2024-12-07 18:24:18.052676900,10.6316767578125,0.3995686423957347,0.3736415894567966,-0.7262422905810176
2024-12-07 18:24:18.062651000,10.64165087890625,0.3350240183034911,0.2416097850143909,-0.4482086085326969
2024-12-07 18:24:18.072625000,10.651625,0.2881780594438314,0.1169686753451824,-0.1072683884553611
2024-12-07 18:24:18.082599000,10.661598876953123,0.3907511662224307,-0.0234480956047773,0.2289065169163048
2024-12-07 18:24:18.092573000,10.671572998046877,0.5228372946679591,-0.2098614785760641,0.4347521839797496
2024-12-07 18:24:18.102546000,10.6815458984375,0.7081850942343473,-0.3769932379722595,0.5635746709868311
2024-12-07 18:24:18.112520000,10.69152001953125,0.9272691591858864,-0.5048749369978904,0.6714661597765982
2024-12-07 18:24:18.122494000,10.701493896484376,0.7999918557941913,-0.5999982757598161,0.6703387631818651
2024-12-07 18:24:18.132468000,10.711468017578126,0.4758353049963712,-0.6425035385340452,0.6011955227203667
2024-12-07 18:24:18.142442000,10.72144189453125,0.1956979469333775,-0.559552283602953,0.5307245407864452
2024-12-07 18:24:18.152416000,10.731416015625,-0.1376414427514188,-0.400623704406619,0.3653779843065887
2024-12-07 18:24:18.162390000,10.74139013671875,-0.2003559836059808,-0.264580910757184,0.2844308357395231
2024-12-07 18:24:18.172364000,10.751364013671877,-0.0826099124138243,-0.1439572200357914,0.2176375194050371
2024-12-07 18:24:18.182338000,10.761338134765625,-0.0342091618602164,-0.0849929898917675,0.1197959346603602
2024-12-07 18:24:18.192311000,10.77131103515625,-0.1371697518527507,-0.0016308160722255,0.1678115583539009
2024-12-07 18:24:18.202285000,10.78128515625,-0.2047428203880786,0.0795879159778356,0.2865384024780243
2024-12-07 18:24:18.212259000,10.791259033203126,-0.1608347050786018,0.0548918661385774,0.3615612024974077
2024-12-07 18:24:18.222233000,10.801233154296876,-0.0774041421979665,-0.0543774868756532,0.3974887673817575
2024-12-07 18:24:18.232207000,10.81120703125,-0.0050093548779026,-0.1381961722910404,0.470745142250508
2024-12-07 18:24:18.242181000,10.82118115234375,-0.0025075989067554,-0.1715396389663219,0.519059602760151
2024-12-07 18:24:18.252155100,10.831155029296877,-0.0156347915053367,-0.0907645590305328,0.5676083104170858
2024-12-07 18:24:18.262129200,10.841129150390625,-0.1298538758814335,0.0043026656299829,0.5696005071476101
2024-12-07 18:24:18.272102100,10.85110205078125,-0.2742401349842548,0.0302460851818323,0.5516754127480089
2024-12-07 18:24:18.282076200,10.861076171875,-0.5312134933471679,0.0730664052546024,0.3459474537800997
2024-12-07 18:24:18.292050200,10.87105029296875,-0.8552993169963359,-0.0499848048746585,0.174093561232835
2024-12-07 18:24:18.302024200,10.881024169921876,-1.0900666887700556,-0.1654237864345312,0.1391918322648853
2024-12-07 18:24:18.311998200,10.890998291015626,-1.220164894801378,-0.2911673043876886,0.0077451342340558
2024-12-07 18:24:18.321972200,10.90097216796875,-1.2338602426767349,-0.2353460484445095,-0.0605455810513347
2024-12-07 18:24:18.331946200,10.9109462890625,-1.1818249350130556,-0.0901297682583332,-0.0467464074753224
2024-12-07 18:24:18.341920300,10.920920166015623,-1.0124141247689724,0.000218026664853,0.0632297786340117
2024-12-07 18:24:18.351894000,10.93089404296875,-0.8080348769962787,0.0316746566802263,0.0747507781449705
2024-12-07 18:24:18.361867000,10.940866943359374,-0.5616729290187359,0.0124456400752067,0.2445361938551068
2024-12-07 18:24:18.371841000,10.950841064453124,-0.2787561876365915,-0.0434866750270128,0.4966010296493768
2024-12-07 18:24:18.381815000,10.96081494140625,-0.099054285002686,-0.1790478226393461,0.5934685817301273
2024-12-07 18:24:18.391789000,10.9707890625,0.0771171054175123,-0.2964689179271459,0.6740548610955477
2024-12-07 18:24:18.401763000,10.98076318359375,0.2984545205201022,-0.3646691784501075,0.7790927140198648
2024-12-07 18:24:18.411737000,10.990737060546875,0.4258148077538237,-0.3886678936749697,0.8042562352403998
2024-12-07 18:24:18.421710800,11.0007109375,0.4202934505164623,-0.3324737127661705,0.7638376425471156
2024-12-07 18:24:18.431684900,11.010684814453125,0.4114028725743293,-0.2778752766162157,0.7205771774914115
2024-12-07 18:24:18.441659000,11.020658935546876,0.2978278947880491,-0.1946551416158676,0.5924972524799407
2024-12-07 18:24:18.451632000,11.030632080078124,0.0585667917916551,-0.0463239442795515,0.4701621547307819
2024-12-07 18:24:18.461606100,11.040606201171874,-0.3141898680567741,0.0623415976226329,0.4183370557516813
2024-12-07 18:24:18.471580000,11.050579833984376,-0.6529799243628979,0.1473737504810094,0.4830141471171751
2024-12-07 18:24:18.481554000,11.060553955078126,-0.9348246891319753,0.252120657634735,0.5343431331424042
2024-12-07 18:24:18.491528000,11.07052783203125,-0.995116953009367,0.0666255585521459,0.6310390184506773
2024-12-07 18:24:18.501502000,11.080501953125,-0.8386755144536495,0.0509212089419364,0.8369865384534001
2024-12-07 18:24:18.511476000,11.09047607421875,-0.602070405858755,-0.092004329958558,1.0057100970856845
2024-12-07 18:24:18.521450000,11.100449951171877,-0.4722258823275566,-0.2813835769981145,1.1788589978795498
2024-12-07 18:24:18.531424000,11.110424072265625,-0.4570493559837341,-0.3988262995958328,1.282154317985475
2024-12-07 18:24:18.541397000,11.12039697265625,-0.5008019884705543,-0.394010423746705,1.3679123009003695
2024-12-07 18:24:18.551371000,11.13037109375,-0.581964058429934,-0.2298182249337434,1.4605496680654584
2024-12-07 18:24:18.561345000,11.140344970703126,-0.6266073926787823,-0.0302881707578897,1.495379573906213
2024-12-07 18:24:18.571319000,11.150319091796876,-0.5477005543002859,0.0735574036419391,1.543519043175131
2024-12-07 18:24:18.581293000,11.16029296875,-0.4469476486861705,0.3799620246499776,1.6309803228765725
2024-12-07 18:24:18.591267000,11.17026708984375,-0.459537008081004,0.2863993593335151,1.527583661288023
2024-12-07 18:24:18.601241000,11.180240966796877,-0.3057225204953924,0.1834539486438036,1.6138520779430865
2024-12-07 18:24:18.611215000,11.190215087890625,-0.1601450057813897,0.1296095457315444,1.799810995145142
2024-12-07 18:24:18.621189000,11.200189208984376,-0.0474070998737588,0.0738841513782739,1.9722534281700848
2024-12-07 18:24:18.631161900,11.210161865234374,-0.0554944351416081,0.223006206831336,2.2496920669347045
2024-12-07 18:24:18.641135900,11.220135986328126,-0.1726397822279483,0.4242793052822351,2.41229261264205
2024-12-07 18:24:18.651110000,11.23010986328125,-0.27047818863485,0.6782645877450704,2.423849194923043
2024-12-07 18:24:18.661084000,11.240083984375,-0.3702373339712619,0.8962176028400659,2.3062629722014067
2024-12-07 18:24:18.671058000,11.250057861328123,-0.6095896954476833,1.1470575730144976,1.783357142341882
2024-12-07 18:24:18.681032000,11.260031982421877,-0.981082582437992,1.1734528279870748,0.994660879804939
2024-12-07 18:24:18.691006000,11.270005859375,-1.1198737980127331,1.094109242159128,0.3924769305691122
2024-12-07 18:24:18.700980000,11.27997998046875,-1.3034218546807763,1.021776996397972,0.0568472379900515
2024-12-07 18:24:18.710954000,11.2899541015625,-1.504783800458908,0.8733569517344236,-0.4006611868727952
2024-12-07 18:24:18.720927000,11.299927001953124,-1.5385574752449989,0.710181236487627,-0.7816751317285001
2024-12-07 18:24:18.730901000,11.30990087890625,-1.404084707391262,0.5536322459042072,-0.9298520883511752
2024-12-07 18:24:18.740875000,11.319875,-1.1511959879934788,0.3280553118020295,-0.9454415794100612
2024-12-07 18:24:18.750849000,11.32984912109375,-0.9882838921189308,0.0974865607619285,-0.8311934881351888
2024-12-07 18:24:18.760823000,11.339822998046875,-0.8962865764230489,-0.0625643004626035,-0.6289202727310359
2024-12-07 18:24:18.770797000,11.349797119140623,-0.9545704230874776,-0.1100397528648376,-0.3836261731807142
2024-12-07 18:24:18.780771000,11.35977099609375,-1.224940950096771,-0.0357318231165409,-0.3139288059677928
2024-12-07 18:24:18.790745000,11.3697451171875,-1.6132073502987625,0.1625888552695512,-0.5596347742546349
2024-12-07 18:24:18.800718000,11.379718017578124,-1.7706652724206446,0.4336450995206832,-1.041267440418154
2024-12-07 18:24:18.810692000,11.389692138671874,-1.3916051650464534,0.7605109092772007,-1.3974172123260795
2024-12-07 18:24:18.820666000,11.399666015625,-0.7950871326178311,1.1813719305485486,-1.699329198089987
2024-12-07 18:24:18.830640000,11.40964013671875,0.0008938070345669,1.5752005679875611,-2.0467596569694577
