time,seconds_elapsed,z,y,x
2024-12-07 16:26:41.446979300,0.129979248046875,-0.0752342417836189,0.0129163218662142,-0.0171773768961429
2024-12-07 16:26:41.456856000,0.13985595703125,-0.0901479348540306,0.0150468489155173,-0.0065247397869825
2024-12-07 16:26:41.466766000,0.14976611328125,-0.0901479348540306,-0.010519478470087,-0.0097205303609371
2024-12-07 16:26:41.476713000,0.159712890625,-0.0858868807554245,-0.0296942237764596,-0.0182426404207944
2024-12-07 16:26:41.486698200,0.1696982421875,-0.080560564994812,-0.0328900143504142,-0.0246342215687036
2024-12-07 16:26:41.496722200,0.17972216796875,-0.0826910883188247,-0.0041278963908553,-0.005459476262331
2024-12-07 16:26:41.506783200,0.189783203125,-0.0848216190934181,-0.0030626328662037,0.0062584239058196
2024-12-07 16:26:41.516878800,0.19987890625,-0.0667121335864067,-0.0137152690440416,0.0009321057004854
2024-12-07 16:26:41.527004700,0.210004638671875,0.002530001103878,-0.0786963477730751,-0.0395479127764701
2024-12-07 16:26:41.537155800,0.22015576171875,0.0387489646673202,-0.186287984251976,-0.0917458310723304
2024-12-07 16:26:41.547326200,0.230326171875,0.044075284153223,-0.260856419801712,-0.1034637317061424
2024-12-07 16:26:41.557509400,0.24050927734375,0.0643152892589569,-0.2246374636888504,-0.0992026776075363
2024-12-07 16:26:41.567698700,0.25069873046875,0.0813595131039619,-0.1490037590265274,-0.1077247858047485
2024-12-07 16:26:41.577872400,0.260872314453125,0.0419447571039199,0.0320910662412643,-0.1822932362556457
2024-12-07 16:26:41.587900200,0.270900146484375,0.1047953143715858,0.0480700209736824,-0.1759016513824463
2024-12-07 16:26:41.597928000,0.280927978515625,0.2049300968647003,0.0395479127764701,-0.1237037405371666
2024-12-07 16:26:41.607955700,0.290955810546875,0.3434143662452698,0.0118510583415627,-0.1002679392695427
2024-12-07 16:26:41.617983500,0.3009833984375,0.4446144104003906,0.0342215932905674,-0.0906805694103241
2024-12-07 16:26:41.628011300,0.31101123046875,0.4957470595836639,0.0597879216074943,-0.0597879216074943
2024-12-07 16:26:41.638039000,0.3210390625,0.474441796541214,0.1119858399033546,-0.0203731674700975
2024-12-07 16:26:41.648066800,0.33106689453125,0.3838943839073181,0.1588574349880218,-0.0097205303609371
2024-12-07 16:26:41.658094600,0.341094482421875,0.2358227372169494,0.0949416235089302,-0.0278300121426582
2024-12-07 16:26:41.668122400,0.351122314453125,0.0770984590053558,0.0768321380019187,-0.0363521203398704
2024-12-07 16:26:41.678150100,0.361150146484375,-0.0294279083609581,0.1311605870723724,-0.0278300121426582
2024-12-07 16:26:41.688178000,0.371177978515625,-0.0933437272906303,0.1151816323399543,-0.0288952756673097
2024-12-07 16:26:41.698205700,0.381205810546875,-0.1146489977836608,0.073636345565319,-0.0448742322623729
2024-12-07 16:26:41.708233500,0.3912333984375,-0.0912131965160369,0.0800279304385185,-0.074701614677906
2024-12-07 16:26:41.718261200,0.40126123046875,-0.0443415977060794,0.0970721468329429,-0.0970721468329429
2024-12-07 16:26:41.728288800,0.411288818359375,-0.0027963169850409,0.1460742801427841,-0.1237037405371666
2024-12-07 16:26:41.738316500,0.421316650390625,0.0238352734595537,0.1780321896076202,-0.1375521719455719
2024-12-07 16:26:41.748344300,0.43134423828125,0.0430100187659263,0.2302301079034805,-0.1460742801427841
2024-12-07 16:26:41.758372000,0.4413720703125,0.0600542388856411,0.2696448564529419,-0.1492700725793838
2024-12-07 16:26:41.768400000,0.45139990234375,0.0728374049067497,0.2962764501571655,-0.1418132185935974
2024-12-07 16:26:41.778427600,0.461427734375,0.0984037294983863,0.3143859207630157,-0.1471395343542099
2024-12-07 16:26:41.788455400,0.471455322265625,0.151666909456253,0.2941459119319916,-0.1545963883399963
2024-12-07 16:26:41.798483200,0.481483154296875,0.2166479974985122,0.2291648387908935,-0.169510081410408
2024-12-07 16:26:41.808511000,0.491510986328125,0.2656501233577728,0.180162712931633,-0.1727058738470077
2024-12-07 16:26:41.818538800,0.501538818359375,0.3135869801044464,0.168444812297821,-0.1641837656497955
2024-12-07 16:26:41.828566500,0.51156640625,0.3519364893436432,0.1215732097625732,-0.1759016513824463
2024-12-07 16:26:41.838594300,0.52159423828125,0.3391533195972442,0.062983714044094,-0.1759016513824463
2024-12-07 16:26:41.848622000,0.5316220703125,0.2613890767097473,0.0661795064806938,-0.1641837656497955
2024-12-07 16:26:41.858649900,0.54164990234375,0.163384810090065,0.1034637317061424,-0.1514005959033966
2024-12-07 16:26:41.868677600,0.551677734375,0.0813595131039619,0.0800279304385185,-0.1727058738470077
2024-12-07 16:26:41.878705400,0.561705322265625,-0.0198405347764492,0.0256994850933551,-0.2004027217626571
2024-12-07 16:26:41.888733200,0.571733154296875,-0.0699079260230064,-0.010519478470087,-0.2110553532838821
2024-12-07 16:26:41.898760700,0.5817607421875,-0.1295626908540725,-0.0680437162518501,-0.2398174703121185
2024-12-07 16:26:41.908788500,0.59178857421875,-0.2925480306148529,-0.130894273519516,-0.2707101106643677
2024-12-07 16:26:41.918816300,0.601816162109375,-0.3788343966007232,-0.1735048145055771,-0.2728406488895416
2024-12-07 16:26:41.928844000,0.611843994140625,-0.5087965726852417,-0.0701742395758628,-0.289884865283966
2024-12-07 16:26:41.938871800,0.621871826171875,-0.6313018798828125,-0.0115847419947385,-0.2930806577205658
2024-12-07 16:26:41.948899600,0.631899658203125,-0.7570029497146606,-0.2182458937168121,-0.3037332892417907
2024-12-07 16:26:41.958927400,0.64192724609375,-0.8912261724472046,-0.6145239472389221,-0.3495396375656128
2024-12-07 16:26:41.968960500,0.65196044921875,-1.1106704473495483,-1.037433624267578,-0.4304996728897095
2024-12-07 16:26:41.978988800,0.66198876953125,-1.329049587249756,-1.201484203338623,-0.5348954796791077
2024-12-07 16:26:41.989016600,0.6720166015625,-1.3982917070388794,-1.0736526250839231,-0.5977460741996765
2024-12-07 16:26:41.999044400,0.68204443359375,-1.1756515502929688,-0.9554083347320556,-0.5061333775520325
2024-12-07 16:26:42.009072000,0.692072021484375,-0.7356976866722107,-0.7732482552528381,-0.1194426864385604
2024-12-07 16:26:42.019099600,0.702099609375,-0.3298322558403015,-0.4238417744636535,0.3780354261398315
2024-12-07 16:26:42.029127400,0.71212744140625,-0.0624510794878006,-0.2022669315338134,0.5133239030838013
2024-12-07 16:26:42.039155200,0.7221552734375,0.1261005848646164,-0.250203788280487,0.3215764760971069
2024-12-07 16:26:42.049183000,0.732182861328125,0.0728374049067497,-0.4259723126888275,0.0776310861110687
2024-12-07 16:26:42.059210800,0.742210693359375,-0.0539289712905883,-0.6592650413513184,-0.0310258027166128
2024-12-07 16:26:42.069238500,0.752238525390625,-0.1125184744596481,-0.807336688041687,-0.0512658134102821
2024-12-07 16:26:42.079266300,0.762266357421875,-0.107192151248455,-0.8478167057037354,-0.085354246199131
2024-12-07 16:26:42.089294000,0.772294189453125,-0.0422110706567764,-0.7711177468299866,-0.1151816323399543
2024-12-07 16:26:42.099321900,0.78232177734375,0.046205811202526,-0.6070671081542969,-0.1226384788751602
2024-12-07 16:26:42.109349600,0.792349609375,0.1452753245830536,-0.4291680753231048,-0.1173121556639671
2024-12-07 16:26:42.119377400,0.80237744140625,0.1985385119915008,-0.2874880135059356,-0.0981374159455299
2024-12-07 16:26:42.129405200,0.8124052734375,0.1740374416112899,-0.2992059290409088,-0.1002679392695427
2024-12-07 16:26:42.139433000,0.822432861328125,0.163384810090065,-0.4089280664920807,-0.1279647946357727
2024-12-07 16:26:42.149460700,0.832460693359375,0.1612542867660522,-0.5239765644073486,-0.1418132185935974
2024-12-07 16:26:42.159487700,0.84248779296875,0.1420795321464538,-0.5655218362808228,-0.1364869028329849
2024-12-07 16:26:42.169515500,0.852515625,0.1282311081886291,-0.5378249883651733,-0.1237037405371666
2024-12-07 16:26:42.179543300,0.862543212890625,0.1303616315126419,-0.4941491782665252,-0.1055942550301551
2024-12-07 16:26:42.189571000,0.872571044921875,0.1303616315126419,-0.4440817832946777,-0.0981374159455299
2024-12-07 16:26:42.199598800,0.882598876953125,0.1282311081886291,-0.3609912097454071,-0.0885500386357307
2024-12-07 16:26:42.209626600,0.892626708984375,0.1271658539772033,-0.2779006659984588,-0.0832237228751182
2024-12-07 16:26:42.219654400,0.902654296875,0.1229047924280166,-0.196940615773201,-0.0885500386357307
2024-12-07 16:26:42.229682200,0.91268212890625,0.1090563684701919,-0.0893489867448806,-0.0864195153117179
2024-12-07 16:26:42.239710000,0.9227099609375,0.0994689911603927,0.0118510583415627,-0.0704405605792999
2024-12-07 16:26:42.249737700,0.93273779296875,0.09733846783638,0.1173121556639671,-0.0363521203398704
2024-12-07 16:26:42.259765500,0.942765625,0.0632500275969505,0.180162712931633,-0.0203731674700975
2024-12-07 16:26:42.269793300,0.952793212890625,0.0366184376180172,0.1950764060020446,-0.0150468489155173
2024-12-07 16:26:42.279821000,0.962821044921875,0.0153131652623415,0.1908153444528579,-0.0246342215687036
2024-12-07 16:26:42.289848800,0.972848876953125,-0.0091878985986113,0.168444812297821,-0.0342215932905674
2024-12-07 16:26:42.299876600,0.982876708984375,-0.0283626448363065,0.1471395343542099,-0.047004759311676
2024-12-07 16:26:42.309904400,0.992904296875,-0.0464721247553825,0.1471395343542099,-0.0651142373681068
2024-12-07 16:26:42.319932000,1.002931884765625,-0.0422110706567764,0.1588574349880218,-0.0778974071145057
2024-12-07 16:26:42.329959700,1.012959716796875,-0.0241015907377004,0.1897500902414322,-0.0949416235089302
2024-12-07 16:26:42.339987500,1.022987548828125,-0.0177100077271461,0.2302301079034805,-0.1109205782413482
2024-12-07 16:26:42.350015200,1.03301513671875,-0.015579480677843,0.2270343154668808,-0.1066595241427421
2024-12-07 16:26:42.360043000,1.04304296875,-0.0241015907377004,0.2280995845794677,-0.0981374159455299
2024-12-07 16:26:42.370070800,1.05307080078125,-0.0390152819454669,0.234491154551506,-0.0928110927343368
2024-12-07 16:26:42.380098600,1.0630986328125,-0.0517984442412853,0.2707101106643677,-0.0885500386357307
2024-12-07 16:26:42.390126300,1.073126220703125,-0.0858868807554245,0.1812279820442199,-0.0619184486567974
2024-12-07 16:26:42.400154000,1.083154052734375,-0.0976047813892364,0.1364869028329849,-0.0427437052130699
2024-12-07 16:26:42.410182000,1.093181884765625,-0.0848216190934181,0.2195774614810943,-0.0502005480229854
2024-12-07 16:26:42.420209700,1.103209716796875,-0.0912131965160369,0.1961416751146316,-0.0299605391919612
2024-12-07 16:26:42.430237400,1.113237548828125,-0.0890826731920242,0.1716406047344207,-0.0235689580440521
2024-12-07 16:26:42.440265200,1.12326513671875,-0.0976047813892364,0.1652490198612213,-0.0225036945194005
2024-12-07 16:26:42.450293000,1.13329296875,-0.1050616279244422,0.1407479643821716,-0.0182426404207944
2024-12-07 16:26:42.460320800,1.14332080078125,-0.1093226820230484,0.114116370677948,-0.0320910662412643
2024-12-07 16:26:42.470348500,1.1533486328125,-0.1146489977836608,0.101333200931549,-0.0544616021215915
2024-12-07 16:26:42.480376300,1.163376220703125,-0.1221058443188667,0.1173121556639671,-0.074701614677906
2024-12-07 16:26:42.490403800,1.17340380859375,-0.1253016293048858,0.1407479643821716,-0.0874847769737243
2024-12-07 16:26:42.500431600,1.183431640625,-0.1253016293048858,0.157792180776596,-0.0917458310723304
2024-12-07 16:26:42.510459400,1.19345947265625,-0.1263668984174728,0.1833585053682327,-0.0896153002977371
2024-12-07 16:26:42.520487200,1.203487060546875,-0.1231711059808731,0.2078595608472824,-0.0917458310723304
2024-12-07 16:26:42.530515000,1.213514892578125,-0.1199753209948539,0.2089248299598693,-0.0960068851709365
2024-12-07 16:26:42.540542700,1.223542724609375,-0.1210405826568603,0.1854890286922454,-0.1034637317061424
2024-12-07 16:26:42.550570500,1.233570556640625,-0.12423637509346,0.1428784877061844,-0.113051101565361
2024-12-07 16:26:42.560598300,1.243598388671875,-0.1263668984174728,0.0832237228751182,-0.1173121556639671
2024-12-07 16:26:42.570626000,1.2536259765625,-0.118910051882267,0.0384826473891735,-0.1237037405371666
2024-12-07 16:26:42.580653800,1.26365380859375,-0.1018658354878425,0.0182426404207944,-0.1428784877061844
2024-12-07 16:26:42.590681600,1.273681640625,-0.0890826731920242,0.0129163218662142,-0.1705753356218338
2024-12-07 16:26:42.600709400,1.28370947265625,-0.12423637509346,-0.022237379103899,-0.2142511457204818
2024-12-07 16:26:42.610737200,1.293737060546875,-0.0443415977060794,0.0832237228751182,-0.2067943066358566
2024-12-07 16:26:42.620765000,1.303764892578125,-0.0102531621232628,0.2866890728473663,-0.1865542978048324
2024-12-07 16:26:42.630792700,1.313792724609375,-0.027297381311655,0.413455456495285,-0.1812279820442199
2024-12-07 16:26:42.640820500,1.323820556640625,-0.0454068630933761,0.4869586527347564,-0.1737711280584335
2024-12-07 16:26:42.650848000,1.333847900390625,-0.0837563574314117,0.5029376149177551,-0.1631184965372085
2024-12-07 16:26:42.660875800,1.343875732421875,-0.1402153223752975,0.4581965208053589,-0.1545963883399963
2024-12-07 16:26:42.670903600,1.353903564453125,-0.1924132406711578,0.40280282497406,-0.1535311192274093
2024-12-07 16:26:42.680931300,1.363931396484375,-0.2424806356430053,0.367649108171463,-0.1535311192274093
2024-12-07 16:26:42.690959000,1.373958984375,-0.3106575012207031,0.289884865283966,-0.167379543185234
2024-12-07 16:26:42.700987000,1.38398681640625,-0.3117227852344513,0.2408827394247055,-0.1503353267908096
2024-12-07 16:26:42.711014700,1.3940146484375,-0.3042659163475036,0.2163816839456558,-0.1066595241427421
2024-12-07 16:26:42.721042400,1.40404248046875,-0.323440670967102,0.1428784877061844,-0.0821584612131118
2024-12-07 16:26:42.731070200,1.4140703125,-0.258459597826004,0.0278300121426582,-0.047004759311676
2024-12-07 16:26:42.741098000,1.424097900390625,-0.1636511236429214,-0.0094542149454355,0.0062584239058196
2024-12-07 16:26:42.751125800,1.434125732421875,-0.1018658354878425,0.007590003311634,0.0307594873011112
2024-12-07 16:26:42.761153500,1.444153564453125,-0.0400805436074733,0.019307903945446,0.0339552797377109
2024-12-07 16:26:42.771181300,1.454181396484375,0.002530001103878,0.0438089668750762,0.0286289602518081
2024-12-07 16:26:42.781209000,1.464208984375,0.0280963294208049,0.1034637317061424,0.0126500055193901
2024-12-07 16:26:42.791236900,1.47423681640625,0.0451405458152294,0.1663142889738083,-0.0267647486180067
2024-12-07 16:26:42.801264600,1.4842646484375,0.044075284153223,0.2035985141992569,-0.0821584612131118
2024-12-07 16:26:42.811292400,1.49429248046875,0.0259658005088567,0.2142511457204818,-0.1386174261569976
2024-12-07 16:26:42.821320200,1.5043203125,-0.0059921080246567,0.2025332450866699,-0.1737711280584335
2024-12-07 16:26:42.831348000,1.514347900390625,-0.0486026518046855,0.1993374526500702,-0.1886848211288452
2024-12-07 16:26:42.841375700,1.524375732421875,-0.0922784656286239,0.2291648387908935,-0.1854890286922454
2024-12-07 16:26:42.851403500,1.534403564453125,-0.1423458606004715,0.2856238186359405,-0.1641837656497955
2024-12-07 16:26:42.861431600,1.544431640625,-0.1956090331077575,0.3442133069038391,-0.1290300637483596
2024-12-07 16:26:42.871459300,1.554459228515625,-0.2414153665304184,0.4059986174106598,-0.0960068851709365
2024-12-07 16:26:42.881487000,1.564487060546875,-0.2680469751358032,0.5071986317634583,-0.0438089668750762
2024-12-07 16:26:42.891515000,1.574514892578125,-0.2893522381782532,0.5657881498336792,-0.0011984215816482
2024-12-07 16:26:42.901542700,1.584542724609375,-0.3032006621360779,0.5647228956222534,0.0233026426285505
2024-12-07 16:26:42.911570400,1.5945703125,-0.3127880394458771,0.5253081321716309,0.0403468608856201
2024-12-07 16:26:42.921598200,1.60459814453125,-0.3223754167556762,0.4667186439037323,0.0584563426673412
2024-12-07 16:26:42.931626200,1.614626220703125,-0.3308975100517273,0.3985417485237121,0.0786963477730751
2024-12-07 16:26:42.941654000,1.624654052734375,-0.3468764722347259,0.3420827984809875,0.0978710949420929
2024-12-07 16:26:42.951681800,1.634681884765625,-0.3479417264461517,0.2888196110725403,0.1255679577589035
2024-12-07 16:26:42.961709600,1.64470947265625,-0.3106575012207031,0.2270343154668808,0.1660479754209518
2024-12-07 16:26:42.971737300,1.6547373046875,-0.27763432264328,0.1961416751146316,0.1905490309000015
2024-12-07 16:26:42.981765000,1.66476513671875,-0.2510027587413788,0.2025332450866699,0.196940615773201
2024-12-07 16:26:42.991793000,1.67479296875,-0.2211753576993942,0.2131858915090561,0.2065279930830001
2024-12-07 16:26:43.001821000,1.684821044921875,-0.1934785097837448,0.223838523030281,0.2225069403648376
2024-12-07 16:26:43.011848700,1.6948486328125,-0.1668469160795211,0.2323606312274933,0.2480732649564743
2024-12-07 16:26:43.021876500,1.70487646484375,-0.1412805914878845,0.2142511457204818,0.2768353819847107
2024-12-07 16:26:43.031904300,1.714904296875,-0.1125184744596481,0.2035985141992569,0.3119890987873077
2024-12-07 16:26:43.041932000,1.72493212890625,-0.0773647725582122,0.2067943066358566,0.3545996248722076
2024-12-07 16:26:43.051959800,1.734959716796875,-0.0379500165581703,0.1854890286922454,0.3982754349708557
2024-12-07 16:26:43.061987600,1.744987548828125,0.0057257921434938,0.1748363971710205,0.4334291517734527
2024-12-07 16:26:43.072015400,1.755015380859375,0.0376837030053138,0.1727058738470077,0.4579302072525024
2024-12-07 16:26:43.082043100,1.765043212890625,0.0547279193997383,0.1503353267908096,0.4941491782665252
2024-12-07 16:26:43.092071000,1.77507080078125,0.0664458200335502,0.1247690021991729,0.5538039207458496
2024-12-07 16:26:43.102098700,1.7850986328125,0.0760331898927688,0.1343563795089721,0.6581997871398926
2024-12-07 16:26:43.112126500,1.79512646484375,0.0525973923504352,0.1737711280584335,0.7966840267181396
2024-12-07 16:26:43.122154200,1.805154296875,-0.0187752712517976,0.2771016955375671,0.9266462326049804
2024-12-07 16:26:43.132182000,1.81518212890625,-0.0901479348540306,0.4017375409603119,1.0065410137176514
2024-12-07 16:26:43.142209800,1.825209716796875,-0.1263668984174728,0.5348954796791077,1.0438252687454224
2024-12-07 16:26:43.152237600,1.835237548828125,-0.1316932141780853,0.6776408553123474,1.076848387718201
2024-12-07 16:26:43.162265300,1.845265380859375,-0.1146489977836608,0.8257125020027161,1.1183936595916748
2024-12-07 16:26:43.172293000,1.855293212890625,-0.0784300342202186,0.9716535806655884,1.1482210159301758
2024-12-07 16:26:43.182321000,1.86532080078125,-0.0177100077271461,1.0430262088775637,1.121589422225952
2024-12-07 16:26:43.192348700,1.8753486328125,0.0984037294983863,0.9641967415809632,1.0076062679290771
2024-12-07 16:26:43.202376400,1.88537646484375,0.2677806615829468,0.8033419251441956,0.837164044380188
2024-12-07 16:26:43.212404200,1.895404296875,0.4318312406539917,0.671249270439148,0.6827008128166199
2024-12-07 16:26:43.222431700,1.905431640625,0.576707124710083,0.480567067861557,0.5452818274497986
2024-12-07 16:26:43.232459500,1.91545947265625,0.6757766008377075,0.289884865283966,0.4312986135482788
2024-12-07 16:26:43.242487300,1.9254873046875,0.6949513554573059,0.1279647946357727,0.3854922652244568
2024-12-07 16:26:43.252515000,1.93551513671875,0.6182523965835571,-0.0115847419947385,0.4291680753231048
2024-12-07 16:26:43.262542800,1.94554296875,0.5063996911048889,-0.241681694984436,0.4962796866893768
2024-12-07 16:26:43.272570600,1.955570556640625,0.3817638456821441,-0.495214432477951,0.5016059875488281
2024-12-07 16:26:43.282598400,1.965598388671875,0.2784332931041717,-0.7689871788024902,0.4803007543087005
2024-12-07 16:26:43.292626200,1.975626220703125,0.1825595498085022,-0.9884315133094788,0.4941491782665252
2024-12-07 16:26:43.302654000,1.985654052734375,0.0557931847870349,-1.066195726394653,0.5378249883651733
2024-12-07 16:26:43.312681700,1.995681640625,-0.0741689801216125,-1.0693914890289309,0.5495429039001465
2024-12-07 16:26:43.322709500,2.00570947265625,-0.1966743022203445,-0.995888352394104,0.4643217921257019
2024-12-07 16:26:43.332737300,2.0157373046875,-0.2488722205162048,-0.8254461884498596,0.3300985693931579
2024-12-07 16:26:43.342765000,2.02576513671875,-0.2307627350091934,-0.555934488773346,0.2054627239704132
2024-12-07 16:26:43.352792800,2.035792724609375,-0.1870869249105453,-0.3311638236045837,0.1330247968435287
2024-12-07 16:26:43.362820600,2.045820556640625,-0.1945437788963318,-0.2768353819847107,0.0840226709842681
2024-12-07 16:26:43.372848400,2.055848388671875,-0.2105227261781692,-0.239551156759262,0.0478037074208259
2024-12-07 16:26:43.382876200,2.065876220703125,-0.1966743022203445,-0.1884185075759887,0.0083889514207839
2024-12-07 16:26:43.392903700,2.075903564453125,-0.1583248078823089,-0.1617869138717651,-0.047004759311676
2024-12-07 16:26:43.402931500,2.085931396484375,-0.1050616279244422,-0.1521995365619659,-0.102398470044136
2024-12-07 16:26:43.412959200,2.095959228515625,-0.0443415977060794,-0.1479384899139404,-0.1450090110301971
2024-12-07 16:26:43.422987000,2.105987060546875,-0.0017310534603893,-0.1372858583927154,-0.1705753356218338
2024-12-07 16:26:43.433014800,2.116014892578125,0.0259658005088567,-0.119176372885704,-0.1737711280584335
2024-12-07 16:26:43.443042600,2.12604248046875,0.0472710728645324,-0.090414248406887,-0.1652490198612213
2024-12-07 16:26:43.453070300,2.1360703125,0.06964161247015,-0.036085806787014,-0.1556616425514221
2024-12-07 16:26:43.463098000,2.14609814453125,0.1005342528223991,0.0502005480229854,-0.1354216337203979
2024-12-07 16:26:43.473126000,2.1561259765625,0.1378184854984283,0.1311605870723724,-0.0874847769737243
2024-12-07 16:26:43.483153700,2.166153564453125,0.1665806025266647,0.1950764060020446,-0.0171773768961429
2024-12-07 16:26:43.493181400,2.176181396484375,0.1697763949632644,0.2632532715797424,0.0488689690828323
2024-12-07 16:26:43.503209200,2.186209228515625,0.1719069182872772,0.3154512047767639,0.1031974181532859
2024-12-07 16:26:43.513237000,2.196237060546875,0.1761679798364639,0.2834932804107666,0.1458079665899276
2024-12-07 16:26:43.523264800,2.2062646484375,0.1782985031604766,0.180162712931633,0.184157446026802
2024-12-07 16:26:43.533292500,2.21629248046875,0.163384810090065,0.0810931921005249,0.2161153554916381
2024-12-07 16:26:43.543320300,2.2263203125,0.1474058628082275,0.0129163218662142,0.2310290485620498
2024-12-07 16:26:43.553347800,2.236347900390625,0.1495363861322403,-0.0573910772800445,0.2288985252380371
2024-12-07 16:26:43.563375600,2.246375732421875,0.1591237634420395,-0.1500690132379531,0.2257027328014373
2024-12-07 16:26:43.573403400,2.2564033203125,0.1548627018928527,-0.2384859025478363,0.2203764170408249
2024-12-07 16:26:43.583431200,2.26643115234375,0.1388837546110153,-0.2874880135059356,0.2193111479282379
2024-12-07 16:26:43.593459000,2.276458984375,0.1303616315126419,-0.3396859467029571,0.229963794350624
2024-12-07 16:26:43.603486700,2.28648681640625,0.1218395307660102,-0.37590491771698,0.2544648647308349
2024-12-07 16:26:43.613514500,2.296514404296875,0.1346226930618286,-0.3982754349708557,0.2683132886886596
2024-12-07 16:26:43.623542300,2.306542236328125,0.1708416491746902,-0.4110586047172546,0.2672480046749115
2024-12-07 16:26:43.633570000,2.316570068359375,0.218778520822525,-0.4259723126888275,0.2459427416324615
2024-12-07 16:26:43.643597800,2.326597900390625,0.273106962442398,-0.4270375669002533,0.1980058848857879
2024-12-07 16:26:43.653625600,2.33662548828125,0.3125217258930206,-0.3822965025901794,0.129829004406929
2024-12-07 16:26:43.663653400,2.3466533203125,0.3380880355834961,-0.319445937871933,0.0563258156180381
2024-12-07 16:26:43.673681200,2.35668115234375,0.342349112033844,-0.2576606571674347,-0.0033289489801973
2024-12-07 16:26:43.683709000,2.366708984375,0.3210438191890716,-0.2150501012802124,-0.0512658134102821
2024-12-07 16:26:43.693736700,2.37673681640625,0.2794985473155975,-0.2086585164070129,-0.0810931921005249
2024-12-07 16:26:43.703764500,2.386764404296875,0.2315616905689239,-0.2470080107450485,-0.0928110927343368
2024-12-07 16:26:43.713792300,2.396792236328125,0.1921469271183014,-0.3130543529987335,-0.0864195153117179
2024-12-07 16:26:43.723819800,2.40681982421875,0.1729721873998642,-0.384427011013031,-0.0661795064806938
2024-12-07 16:26:43.733847600,2.41684765625,0.1676458716392517,-0.4185154438018799,-0.0523310750722885
2024-12-07 16:26:43.743875300,2.426875244140625,0.1569932252168655,-0.4238417744636535,-0.0672447681427002
2024-12-07 16:26:43.753903000,2.436903076171875,0.1388837546110153,-0.4046670198440552,-0.1162468940019607
2024-12-07 16:26:43.763931000,2.446930908203125,0.1058605760335922,-0.3876228034496307,-0.179097443819046
2024-12-07 16:26:43.773958700,2.456958740234375,0.0547279193997383,-0.4067975580692291,-0.235556423664093
2024-12-07 16:26:43.783986400,2.466986328125,-0.0006657897611148,-0.4664523303508758,-0.2611227631568908
2024-12-07 16:26:43.794014200,2.47701416015625,-0.0571247637271881,-0.5207807421684265,-0.2600574791431427
2024-12-07 16:26:43.804042000,2.4870419921875,-0.09653951972723,-0.5506081581115723,-0.2483395934104919
2024-12-07 16:26:43.814069800,2.49706982421875,-0.0954742506146431,-0.5335639119148254,-0.2483395934104919
2024-12-07 16:26:43.824097500,2.50709765625,-0.0752342417836189,-0.4739091694355011,-0.2739059031009674
2024-12-07 16:26:43.834125300,2.517125244140625,-0.0496679171919822,-0.3982754349708557,-0.3282343447208404
2024-12-07 16:26:43.844153000,2.527153076171875,-0.0262321177870035,-0.3545996248722076,-0.4038680791854858
2024-12-07 16:26:43.854180900,2.537180908203125,0.0078563196584582,-0.3322291076183319,-0.4731102287769317
2024-12-07 16:26:43.864208600,2.547208740234375,0.0249005369842052,-0.2757701277732849,-0.5125249624252319
2024-12-07 16:26:43.874236400,2.557236328125,0.002530001103878,-0.1117195263504982,-0.5029376149177551
2024-12-07 16:26:43.884264000,2.567263916015625,-0.027297381311655,0.060853186994791,-0.4816323220729828
2024-12-07 16:26:43.894291700,2.577291748046875,-0.0475373901426792,0.1844237744808197,-0.4709796905517578
2024-12-07 16:26:43.904319500,2.587319580078125,-0.0997353047132492,0.2419480085372924,-0.4869586527347564
2024-12-07 16:26:43.914347300,2.59734716796875,-0.1583248078823089,0.2323606312274933,-0.5359607934951782
2024-12-07 16:26:43.924375000,2.607375,-0.1998700946569442,0.1205079481005668,-0.5934849977493286
2024-12-07 16:26:43.934402800,2.61740283203125,-0.2808301150798797,-0.0605868697166442,-0.621181845664978
2024-12-07 16:26:43.944430600,2.6274306640625,-0.3522028028964996,-0.252334326505661,-0.6052029132843018
2024-12-07 16:26:43.954458400,2.637458251953125,-0.3788343966007232,-0.4685828387737274,-0.5423523783683777
2024-12-07 16:26:43.964486100,2.647486083984375,-0.3980091214179992,-0.6709829568862915,-0.4411523044109344
2024-12-07 16:26:43.974514000,2.657513916015625,-0.4182491302490234,-0.8211851119995117,-0.3346259295940399
2024-12-07 16:26:43.984541700,2.667541748046875,-0.4182491302490234,-0.9436904191970824,-0.2536658942699432
2024-12-07 16:26:43.994569500,2.677569580078125,-0.3980091214179992,-0.9767135977745056,-0.1982721984386444
2024-12-07 16:26:44.004597200,2.68759716796875,-0.3415501415729522,-0.8946883082389832,-0.1609879732131958
2024-12-07 16:26:44.014625000,2.697625,-0.2446111589670181,-0.7604650855064392,-0.1450090110301971
2024-12-07 16:26:44.024652800,2.70765283203125,-0.133823737502098,-0.5846965909004211,-0.1300953179597854
2024-12-07 16:26:44.034680600,2.7176806640625,-0.0422110706567764,-0.4014712274074554,-0.1119858399033546
2024-12-07 16:26:44.044708400,2.727708251953125,0.0398142300546169,-0.2320943176746368,-0.0949416235089302
2024-12-07 16:26:44.054736000,2.73773583984375,0.123970054090023,-0.0893489867448806,-0.0725710839033126
2024-12-07 16:26:44.064763600,2.747763671875,0.1814942955970764,-0.0062584239058196,-0.047004759311676
2024-12-07 16:26:44.074791400,2.75779150390625,0.1900164037942886,-0.0126500055193901,-0.0246342215687036
2024-12-07 16:26:44.084819200,2.767819091796875,0.1676458716392517,-0.1138500496745109,0.0051931603811681
2024-12-07 16:26:44.094847000,2.777846923828125,0.1335574239492416,-0.2864227592945099,0.0201068520545959
2024-12-07 16:26:44.104874800,2.787874755859375,0.112252153456211,-0.4898881316184997,-0.0118510583415627
2024-12-07 16:26:44.114902500,2.797902587890625,0.1026647835969924,-0.6805703043937683,-0.0970721468329429
2024-12-07 16:26:44.124930300,2.807930419921875,0.1047953143715858,-0.7807050943374634,-0.1993374526500702
2024-12-07 16:26:44.134958000,2.8179580078125,0.1250353157520294,-0.7647261619567871,-0.2888196110725403
2024-12-07 16:26:44.144985900,2.82798583984375,0.1612542867660522,-0.6752439737319946,-0.359127014875412
2024-12-07 16:26:44.155013600,2.838013671875,0.1996037811040878,-0.5399554967880249,-0.413455456495285
2024-12-07 16:26:44.165041400,2.84804150390625,0.2304964214563369,-0.3727091252803802,-0.4432828426361084
2024-12-07 16:26:44.175069200,2.858069091796875,0.2688459157943725,-0.140481635928154,-0.4283691346645355
2024-12-07 16:26:44.185097000,2.868096923828125,0.3061301410198211,0.1119858399033546,-0.3846933245658874
2024-12-07 16:26:44.195124700,2.878124755859375,0.3338269889354706,0.3122554123401642,-0.3399522602558136
2024-12-07 16:26:44.205152500,2.888152587890625,0.3540669977664947,0.4454133510589599,-0.2877543270587921
2024-12-07 16:26:44.215180000,2.898179931640625,0.3444796204566955,0.5061333775520325,-0.2376869469881057
2024-12-07 16:26:44.225207800,2.908207763671875,0.3050648868083954,0.4976112842559814,-0.1982721984386444
2024-12-07 16:26:44.235235600,2.918235595703125,0.2549974918365478,0.4475438892841339,-0.1631184965372085
2024-12-07 16:26:44.245263400,2.928263427734375,0.1964079886674881,0.40280282497406,-0.1332911103963852
2024-12-07 16:26:44.255291100,2.938291015625,0.1346226930618286,0.3655185997486114,-0.114116370677948
2024-12-07 16:26:44.265319000,2.94831884765625,0.068576343357563,0.3090596199035644,-0.0906805694103241
2024-12-07 16:26:44.275346700,2.9583466796875,0.0089215831831097,0.2387522161006927,-0.0704405605792999
2024-12-07 16:26:44.285374500,2.96837451171875,-0.0432763360440731,0.1535311192274093,-0.062983714044094
2024-12-07 16:26:44.295402200,2.97840234375,-0.0880174115300178,0.060853186994791,-0.0704405605792999
2024-12-07 16:26:44.305430000,2.988429931640625,-0.118910051882267,-0.0307594873011112,-0.0928110927343368
2024-12-07 16:26:44.315457800,2.998457763671875,-0.134889006614685,-0.1095889955759048,-0.1322258561849594
2024-12-07 16:26:44.325485600,3.008485595703125,-0.1306279599666595,-0.1479384899139404,-0.1876195520162582
2024-12-07 16:26:44.335513300,3.018513427734375,-0.1050616279244422,-0.128763735294342,-0.2430132627487182
2024-12-07 16:26:44.345541000,3.028541015625,-0.0677774026989936,-0.0584563426673412,-0.2941459119319916
2024-12-07 16:26:44.355569000,3.03856884765625,-0.0358194895088672,0.0544616021215915,-0.3346259295940399
2024-12-07 16:26:44.365596700,3.0485966796875,-0.0017310534603893,0.1780321896076202,-0.3601922690868377
2024-12-07 16:26:44.375624200,3.058624267578125,0.0057257921434938,0.2643185555934906,-0.378301739692688
2024-12-07 16:26:44.385652000,3.06865185546875,-0.01344895362854,0.302668035030365,-0.3729754388332367
2024-12-07 16:26:44.395679700,3.0786796875,-0.0592552907764911,0.2941459119319916,-0.3420827984809875
2024-12-07 16:26:44.405707500,3.08870751953125,-0.1221058443188667,0.2611227631568908,-0.289884865283966
2024-12-07 16:26:44.415735300,3.0987353515625,-0.191347986459732,0.234491154551506,-0.2153164148330688
2024-12-07 16:26:44.425762800,3.1087626953125,-0.2541985511779785,0.234491154551506,-0.1247690021991729
2024-12-07 16:26:44.435790600,3.11879052734375,-0.2968090772628784,0.2771016955375671,-0.0555268675088882
2024-12-07 16:26:44.445818400,3.128818359375,-0.3106575012207031,0.3612575232982635,-0.0235689580440521
2024-12-07 16:26:44.455846100,3.13884619140625,-0.27763432264328,0.4539354741573334,-0.0107857948169112
2024-12-07 16:26:44.465873700,3.148873779296875,-0.2339585274457931,0.5380913019180298,-0.021438430994749
2024-12-07 16:26:44.475901400,3.1589013671875,-0.1849564015865326,0.612659752368927,-0.0459394939243793
2024-12-07 16:26:44.485929200,3.16892919921875,-0.134889006614685,0.6371608376502991,-0.0715058222413063
2024-12-07 16:26:44.495957000,3.17895703125,-0.108257420361042,0.6094639897346497,-0.0949416235089302
2024-12-07 16:26:44.505984500,3.188984619140625,-0.107192151248455,0.566853404045105,-0.1354216337203979
2024-12-07 16:26:44.516012300,3.19901220703125,-0.1157142594456672,0.5338302254676819,-0.180162712931633
2024-12-07 16:26:44.526040000,3.2090400390625,-0.1327584832906723,0.5093291997909546,-0.2089248299598693
2024-12-07 16:26:44.536067600,3.219067626953125,-0.1593900769948959,0.5018723607063293,-0.2185122072696685
2024-12-07 16:26:44.546095400,3.229095458984375,-0.1934785097837448,0.5008070468902588,-0.2110553532838821
2024-12-07 16:26:44.556123100,3.239123046875,-0.2339585274457931,0.5199818015098572,-0.2046637833118438
2024-12-07 16:26:44.566151000,3.24915087890625,-0.2360890507698059,0.5316997170448303,-0.1972069293260574
2024-12-07 16:26:44.576178400,3.259178466796875,-0.2424806356430053,0.5093291997909546,-0.2174469381570816
2024-12-07 16:26:44.586206200,3.269206298828125,-0.2573943138122558,0.478436529636383,-0.2504701018333435
2024-12-07 16:26:44.596234000,3.27923388671875,-0.2424806356430053,0.4581965208053589,-0.2557964324951172
2024-12-07 16:26:44.606261800,3.28926171875,-0.2222406268119812,0.4496744275093078,-0.2387522161006927
2024-12-07 16:26:44.616289300,3.299289306640625,-0.2147837877273559,0.4763059914112091,-0.2270343154668808
2024-12-07 16:26:44.626317000,3.309317138671875,-0.212653249502182,0.5689839720726013,-0.2227732539176941
2024-12-07 16:26:44.636344800,3.3193447265625,-0.2211753576993942,0.68829345703125,-0.2035985141992569
2024-12-07 16:26:44.646372600,3.32937255859375,-0.1849564015865326,0.8118640780448914,-0.1503353267908096
2024-12-07 16:26:44.656400100,3.339400146484375,-0.1817606091499328,0.868323028087616,-0.102398470044136
2024-12-07 16:26:44.666428000,3.349427978515625,-0.1849564015865326,0.8640619516372681,-0.0683100298047065
2024-12-07 16:26:44.676455700,3.35945556640625,-0.1924132406711578,0.8235819339752197,-0.0406131781637668
2024-12-07 16:26:44.686483500,3.3694833984375,-0.2105227261781692,0.7617966532707214,-0.0225036945194005
2024-12-07 16:26:44.696511200,3.37951123046875,-0.2414153665304184,0.6808366179466248,-0.0107857948169112
2024-12-07 16:26:44.706539000,3.3895390625,-0.27763432264328,0.6073334217071533,0.0147805325686931
2024-12-07 16:26:44.716566800,3.39956689453125,-0.3127880394458771,0.5562008023262024,0.0595216043293476
2024-12-07 16:26:44.726594600,3.409594482421875,-0.3394196331501007,0.5380913019180298,0.1138500496745109
2024-12-07 16:26:44.736622300,3.419622314453125,-0.3511375188827514,0.5487439036369324,0.1575258672237396
2024-12-07 16:26:44.746650000,3.429650146484375,-0.3490070104598999,0.5657881498336792,0.1756353378295898
2024-12-07 16:26:44.756678000,3.439677978515625,-0.3372890949249267,0.5519397258758545,0.1724395453929901
2024-12-07 16:26:44.766705700,3.44970556640625,-0.3213101327419281,0.4922849535942077,0.1532648056745529
2024-12-07 16:26:44.776733400,3.4597333984375,-0.3021354079246521,0.3910849094390869,0.1255679577589035
2024-12-07 16:26:44.786761200,3.46976123046875,-0.2733732759952545,0.2707101106643677,0.1053279414772987
2024-12-07 16:26:44.796788700,3.479788818359375,-0.2350237965583801,0.168444812297821,0.0989363640546798
2024-12-07 16:26:44.806816500,3.48981640625,-0.1956090331077575,0.1173121556639671,0.1042626798152923
2024-12-07 16:26:44.816844300,3.49984423828125,-0.1593900769948959,0.1151816323399543,0.118111103773117
2024-12-07 16:26:44.826872000,3.5098720703125,-0.1316932141780853,0.1268995255231857,0.1266332119703292
2024-12-07 16:26:44.836899800,3.51989990234375,-0.107192151248455,0.1290300637483596,0.1138500496745109
2024-12-07 16:26:44.846927600,3.529927734375,-0.0741689801216125,0.114116370677948,0.0850879326462745
2024-12-07 16:26:44.856955400,3.539955322265625,-0.0443415977060794,0.0928110927343368,0.0978710949420929
2024-12-07 16:26:44.866983200,3.549983154296875,-0.0390152819454669,0.0416784398257732,0.1756353378295898
2024-12-07 16:26:44.877011000,3.560010986328125,-0.0262321177870035,-0.0328900143504142,0.2821617126464844
2024-12-07 16:26:44.887038700,3.570038818359375,0.016378428786993,-0.038216333836317,0.3961449265480041
2024-12-07 16:26:44.897066500,3.58006640625,0.0408794917166233,0.0310258027166128,0.4472775757312774
2024-12-07 16:26:44.907094300,3.59009423828125,0.0707068741321563,0.1705753356218338,0.4451470375061035
2024-12-07 16:26:44.917122000,3.6001220703125,0.1229047924280166,0.4251733422279358,0.4589954614639282
2024-12-07 16:26:44.927149800,3.61014990234375,0.2017343044281005,0.7873629927635193,0.5410207509994507
2024-12-07 16:26:44.937177600,3.620177490234375,0.3093259334564209,1.1037462949752808,0.694418728351593
2024-12-07 16:26:44.947205400,3.630205322265625,0.4914860129356384,1.1058768033981323,0.7519429922103882
2024-12-07 16:26:44.957233000,3.64023291015625,0.7098650336265564,0.8864325284957886,0.7221155762672424
2024-12-07 16:26:44.967260700,3.6502607421875,0.8334356546401978,0.8427566885948181,0.8669914603233337
2024-12-07 16:26:44.977288400,3.660288330078125,0.7407577037811279,0.8395609259605408,1.062999963760376
2024-12-07 16:26:44.987316200,3.670316162109375,0.4904207587242126,0.5817670822143555,1.087501049041748
2024-12-07 16:26:44.997344000,3.680343994140625,0.2219743132591247,0.1396826952695846,0.9575388431549072
2024-12-07 16:26:45.007371800,3.690371826171875,0.0451405458152294,-0.2597911655902862,0.7839008569717407
2024-12-07 16:26:45.017399600,3.700399658203125,0.0057257921434938,-0.4504733681678772,0.5974797606468201
2024-12-07 16:26:45.027427300,3.71042724609375,0.0131826372817158,-0.4984102249145508,0.3652522563934326
2024-12-07 16:26:45.037455000,3.720455078125,-0.0283626448363065,-0.5026713013648987,0.1031974181532859
2024-12-07 16:26:45.047483000,3.73048291015625,-0.0304931718856096,-0.4355596601963043,-0.101333200931549
2024-12-07 16:26:45.057510700,3.7405107421875,-0.0187752712517976,-0.3641870021820068,-0.1929458826780319
2024-12-07 16:26:45.067538400,3.750538330078125,-0.0209057983011007,-0.3450122475624084,-0.2046637833118438
2024-12-07 16:26:45.077566200,3.760566162109375,-0.0070573715493083,-0.3535343706607818,-0.1876195520162582
2024-12-07 16:26:45.087594000,3.770593994140625,0.018508955836296,-0.3769701719284057,-0.1652490198612213
2024-12-07 16:26:45.097621800,3.780621826171875,0.0451405458152294,-0.4291680753231048,-0.1386174261569976
2024-12-07 16:26:45.107649500,3.7906494140625,0.0664458200335502,-0.4792354702949524,-0.0970721468329429
2024-12-07 16:26:45.117677300,3.80067724609375,0.0792289823293685,-0.5048018097877502,-0.035286858677864
2024-12-07 16:26:45.127704800,3.810704833984375,0.0920121446251869,-0.4930838942527771,0.0435426495969295
2024-12-07 16:26:45.137732600,3.820732666015625,0.1069258376955986,-0.4483428299427032,0.140481635928154
2024-12-07 16:26:45.147760400,3.830760498046875,0.1197089999914169,-0.4036017656326294,0.2480732649564743
2024-12-07 16:26:45.157788200,3.8407880859375,0.1282311081886291,-0.37590491771698,0.3471427857875824
2024-12-07 16:26:45.167816000,3.85081591796875,0.1250353157520294,-0.3588607013225555,0.4153196513652801
2024-12-07 16:26:45.177843700,3.86084375,0.1186437383294105,-0.3407512009143829,0.4440817832946777
2024-12-07 16:26:45.187871500,3.87087158203125,0.1111868917942047,-0.3162501454353332,0.4376901984214782
2024-12-07 16:26:45.197899300,3.880899169921875,0.0952079370617866,-0.2704437971115112,0.4131891429424286
2024-12-07 16:26:45.207927000,3.890927001953125,0.068576343357563,-0.2257027328014373,0.3854922652244568
2024-12-07 16:26:45.217954800,3.900954833984375,0.0376837030053138,-0.2118543088436126,0.3577954173088074
2024-12-07 16:26:45.227982600,3.910982666015625,0.0195742193609476,-0.252334326505661,0.3162501454353332
2024-12-07 16:26:45.238010400,3.92101025390625,0.0121173737570643,-0.3514038324356079,0.2619217038154602
2024-12-07 16:26:45.248038100,3.9310380859375,0.0110521102324128,-0.5037365555763245,0.1980058848857879
2024-12-07 16:26:45.258066000,3.94106591796875,0.018508955836296,-0.664591372013092,0.1319595277309417
2024-12-07 16:26:45.268093700,3.95109375,0.044075284153223,-0.7817703485488892,0.0701742395758628
2024-12-07 16:26:45.278121500,3.96112158203125,0.085620567202568,-0.8339682817459106,0.022237379103899
2024-12-07 16:26:45.288149000,3.97114892578125,0.1324921697378158,-0.8542082905769348,-0.021438430994749
2024-12-07 16:26:45.298176800,3.9811767578125,0.1900164037942886,-0.9138630628585817,-0.0757668763399124
2024-12-07 16:26:45.308204500,3.99120458984375,0.2528669536113739,-0.907471477985382,-0.1237037405371666
2024-12-07 16:26:45.318232300,4.001232421875,0.285890132188797,-0.815858781337738,-0.1652490198612213
2024-12-07 16:26:45.328260000,4.011260009765625,0.2933469712734222,-0.6837661266326904,-0.2163816839456558
2024-12-07 16:26:45.338287900,4.021287841796875,0.3071953952312469,-0.5378249883651733,-0.2717753946781158
2024-12-07 16:26:45.348315600,4.031315673828125,0.3221091032028198,-0.4046670198440552,-0.3090596199035644
2024-12-07 16:26:45.358343400,4.041343505859375,0.3221091032028198,-0.3183806836605072,-0.3186469972133636
2024-12-07 16:26:45.368371200,4.05137109375,0.3071953952312469,-0.2832269668579101,-0.3069290816783905
2024-12-07 16:26:45.378399000,4.06139892578125,0.2997385561466217,-0.2832269668579101,-0.2824280261993408
2024-12-07 16:26:45.388426800,4.0714267578125,0.3039996027946472,-0.3013364672660827,-0.2675143182277679
2024-12-07 16:26:45.398454500,4.08145458984375,0.296542763710022,-0.2832269668579101,-0.2483395934104919
2024-12-07 16:26:45.408482300,4.091482421875,0.2486059069633484,-0.252334326505661,-0.2206427305936813
2024-12-07 16:26:45.418510000,4.101510009765625,0.1537974327802658,-0.2491385340690612,-0.1908153444528579
2024-12-07 16:26:45.428537900,4.111537841796875,0.0451405458152294,-0.2576606571674347,-0.1737711280584335
2024-12-07 16:26:45.438565600,4.121565673828125,-0.0432763360440731,-0.2118543088436126,-0.1663142889738083
2024-12-07 16:26:45.448593200,4.13159326171875,-0.0858868807554245,-0.1447426974773407,-0.1588574349880218
2024-12-07 16:26:45.458621000,4.141620849609375,-0.0720384567975997,-0.1490037590265274,-0.1460742801427841
2024-12-07 16:26:45.468648700,4.151648681640625,-0.0049268445000052,-0.2320943176746368,-0.1215732097625732
2024-12-07 16:26:45.478676500,4.161676513671875,0.0930774137377739,-0.3684480488300323,-0.0778974071145057
2024-12-07 16:26:45.488704300,4.171704345703125,0.1250353157520294,-0.4813660085201263,0.0371510684490203
2024-12-07 16:26:45.498732000,4.18173193359375,0.1324921697378158,-0.5655218362808228,0.1820269227027893
2024-12-07 16:26:45.508759800,4.191759765625,0.162319540977478,-0.5048018097877502,0.2725743353366852
2024-12-07 16:26:45.518787600,4.20178759765625,0.1804290264844894,-0.2896185517311096,0.2800311744213104
2024-12-07 16:26:45.528815400,4.2118154296875,0.1687111258506775,-0.0403468608856201,0.2225069403648376
2024-12-07 16:26:45.538843100,4.221843017578125,0.151666909456253,0.1908153444528579,0.1596563905477523
2024-12-07 16:26:45.548871000,4.231870849609375,0.1356879621744156,0.3324954211711883,0.1127847880125045
2024-12-07 16:26:45.558898700,4.241898681640625,0.1026647835969924,0.3793670237064361,0.079761616885662
2024-12-07 16:26:45.568926500,4.251926513671875,0.0557931847870349,0.3697796463966369,0.0595216043293476
2024-12-07 16:26:45.578954200,4.261954345703125,0.0067910556681454,0.2994722425937652,0.038216333836317
2024-12-07 16:26:45.588982000,4.27198193359375,-0.0230363253504037,0.1567269116640091,0.0030626328662037
2024-12-07 16:26:45.599009800,4.282009765625,-0.0283626448363065,-0.0211721155792474,-0.0395479127764701
2024-12-07 16:26:45.609037600,4.29203759765625,-0.0198405347764492,-0.2150501012802124,-0.0960068851709365
2024-12-07 16:26:45.619065000,4.302065185546875,-0.0219710618257522,-0.3940143883228302,-0.1514005959033966
2024-12-07 16:26:45.629092900,4.3120927734375,-0.0166447442024946,-0.5037365555763245,-0.1748363971710205
2024-12-07 16:26:45.639120600,4.32212060546875,0.0035952648613601,-0.5676523447036743,-0.1780321896076202
2024-12-07 16:26:45.649148400,4.3321484375,0.0270310640335083,-0.5868270993232727,-0.179097443819046
2024-12-07 16:26:45.659176200,4.34217626953125,0.0515321269631385,-0.5282375812530518,-0.1759016513824463
2024-12-07 16:26:45.669204000,4.352203857421875,0.0664458200335502,-0.4057323038578033,-0.1663142889738083
2024-12-07 16:26:45.679231700,4.362231689453125,0.0760331898927688,-0.2555301189422607,-0.1492700725793838
2024-12-07 16:26:45.689259500,4.372259521484375,0.0781637206673622,-0.1213068962097168,-0.1258342713117599
2024-12-07 16:26:45.699287300,4.382287353515625,0.0739026665687561,-0.0137152690440416,-0.0992026776075363
2024-12-07 16:26:45.709315000,4.392315185546875,0.0504668653011322,0.0715058222413063,-0.074701614677906
2024-12-07 16:26:45.719342800,4.4023427734375,0.002530001103878,0.1663142889738083,-0.0565921291708946
2024-12-07 16:26:45.729370600,4.41237060546875,-0.0571247637271881,0.2387522161006927,-0.0597879216074943
2024-12-07 16:26:45.739398400,4.4223984375,-0.1114532053470611,0.281362771987915,-0.0789626687765121
2024-12-07 16:26:45.749426200,4.43242626953125,-0.1380847990512848,0.2749711871147156,-0.101333200931549
2024-12-07 16:26:45.759454000,4.442453857421875,-0.1529984921216964,0.2312953621149063,-0.1268995255231857
2024-12-07 16:26:45.769481700,4.452481689453125,-0.1593900769948959,0.1524658650159835,-0.1524658650159835
2024-12-07 16:26:45.779509200,4.46250927734375,-0.1519332230091095,0.0459394939243793,-0.1641837656497955
2024-12-07 16:26:45.789537000,4.472537109375,-0.1561942845582962,-0.0371510684490203,-0.1631184965372085
2024-12-07 16:26:45.799564800,4.482564697265625,-0.1785648167133331,-0.0584563426673412,-0.1545963883399963
2024-12-07 16:26:45.809592600,4.492592529296875,-0.1860216706991195,-0.0275636967271566,-0.1450090110301971
2024-12-07 16:26:45.819620400,4.502620361328125,-0.1700427085161209,0.0374173857271671,-0.1439437568187713
2024-12-07 16:26:45.829648100,4.512648193359375,-0.1306279599666595,0.1375521719455719,-0.1567269116640091
2024-12-07 16:26:45.839676000,4.522676025390625,-0.0869521424174308,0.2557964324951172,-0.1769669204950332
2024-12-07 16:26:45.849703700,4.53270361328125,-0.0379500165581703,0.3697796463966369,-0.1886848211288452
2024-12-07 16:26:45.859731500,4.5427314453125,-0.0049268445000052,0.4550007283687591,-0.1876195520162582
2024-12-07 16:26:45.869759200,4.55275927734375,0.0110521102324128,0.5114597082138062,-0.1780321896076202
2024-12-07 16:26:45.879787000,4.562787109375,0.018508955836296,0.5444828867912292,-0.167379543185234
2024-12-07 16:26:45.889814800,4.572814697265625,0.0121173737570643,0.5498092174530029,-0.1620532274246215
2024-12-07 16:26:45.899842600,4.582842529296875,-0.0113184265792369,0.5221123695373535,-0.1482048034667968
2024-12-07 16:26:45.909870300,4.592870361328125,-0.0475373901426792,0.478436529636383,-0.1194426864385604
2024-12-07 16:26:45.919898000,4.602898193359375,-0.080560564994812,0.421977549791336,-0.0917458310723304
2024-12-07 16:26:45.929926000,4.61292578125,-0.1210405826568603,0.3719101548194885,-0.073636345565319
2024-12-07 16:26:45.939953700,4.62295361328125,-0.146606907248497,0.3410175144672394,-0.0587226599454879
2024-12-07 16:26:45.949981200,4.632981201171875,-0.1636511236429214,0.3431480526924133,-0.0565921291708946
2024-12-07 16:26:45.960009000,4.643009033203125,-0.1689774394035339,0.3601922690868377,-0.0693752914667129
2024-12-07 16:26:45.970036700,4.65303662109375,-0.1625858694314956,0.3804322779178619,-0.0992026776075363
2024-12-07 16:26:45.980064500,4.663064453125,-0.1743037700653076,0.3921501636505127,-0.1407479643821716
2024-12-07 16:26:45.990092300,4.67309228515625,-0.1966743022203445,0.3953459560871124,-0.1844237744808197
2024-12-07 16:26:46.000120000,4.6831201171875,-0.2190448343753814,0.3804322779178619,-0.2163816839456558
2024-12-07 16:26:46.010147800,4.69314794921875,-0.2446111589670181,0.3410175144672394,-0.2387522161006927
2024-12-07 16:26:46.020175600,4.703175537109375,-0.2680469751358032,0.2611227631568908,-0.2526006400585174
2024-12-07 16:26:46.030203400,4.713203369140625,-0.2957438230514526,0.1428784877061844,-0.2536658942699432
2024-12-07 16:26:46.040231200,4.723231201171875,-0.3245059251785278,-0.0062584239058196,-0.2387522161006927
2024-12-07 16:26:46.050259000,4.733259033203125,-0.3468764722347259,-0.1596563905477523,-0.2195774614810943
2024-12-07 16:26:46.060286700,4.74328662109375,-0.3639206886291504,-0.2874880135059356,-0.2121206223964691
2024-12-07 16:26:46.070314500,4.753314453125,-0.401204913854599,-0.3908185958862304,-0.2227732539176941
2024-12-07 16:26:46.080342300,4.76334228515625,-0.4182491302490234,-0.4366249442100525,-0.224903792142868
2024-12-07 16:26:46.090370000,4.7733701171875,-0.4203796684741974,-0.4792354702949524,-0.2163816839456558
2024-12-07 16:26:46.100397800,4.783397705078125,-0.4054659605026245,-0.440885990858078,-0.2185122072696685
2024-12-07 16:26:46.110425300,4.79342529296875,-0.3713775277137756,-0.3300985693931579,-0.2334259003400802
2024-12-07 16:26:46.120453000,4.803453125,-0.334093302488327,-0.1905490309000015,-0.2568616867065429
2024-12-07 16:26:46.130481000,4.81348095703125,-0.2925480306148529,-0.0435426495969295,-0.2771016955375671
2024-12-07 16:26:46.140508700,4.8235087890625,-0.2435459047555923,0.113051101565361,-0.29201540350914
2024-12-07 16:26:46.150536400,4.833536376953125,-0.2137185186147689,0.2483395934104919,-0.3122554123401642
2024-12-07 16:26:46.160564200,4.843564208984375,-0.203065887093544,0.3644533157348633,-0.3346259295940399
2024-12-07 16:26:46.170592000,4.853592041015625,-0.20093534886837,0.4464786350727081,-0.3420827984809875
2024-12-07 16:26:46.180619800,4.863619873046875,-0.1977395564317703,0.478436529636383,-0.3271690905094147
2024-12-07 16:26:46.190647600,4.8736474609375,-0.1732385009527206,0.5050681233406067,-0.2824280261993408
2024-12-07 16:26:46.200675300,4.88367529296875,-0.1402153223752975,0.508263885974884,-0.2227732539176941
2024-12-07 16:26:46.210703000,4.893703125,-0.1050616279244422,0.4848281145095825,-0.1492700725793838
2024-12-07 16:26:46.220731000,4.90373095703125,-0.0635163411498069,0.4443480968475342,-0.0544616021215915
2024-12-07 16:26:46.230758700,4.913758544921875,-0.0251668542623519,0.40280282497406,0.0573910772800445
2024-12-07 16:26:46.240786400,4.923786376953125,0.002530001103878,0.3271690905094147,0.1543300747871399
2024-12-07 16:26:46.250814200,4.933814208984375,0.0078563196584582,0.2025332450866699,0.2150501012802124
2024-12-07 16:26:46.260842000,4.943842041015625,-0.0081226350739598,0.0832237228751182,0.2384859025478363
2024-12-07 16:26:46.270869800,4.953869873046875,-0.0209057983011007,0.0022636852227151,0.240616425871849
2024-12-07 16:26:46.280897300,4.963897216796875,-0.0241015907377004,-0.024367906153202,0.2587259113788605
2024-12-07 16:26:46.290925000,4.973925048828125,-0.0326237007975578,0.0225036945194005,0.3322291076183319
2024-12-07 16:26:46.300952800,4.983952880859375,-0.0283626448363065,0.1119858399033546,0.4249070286750793
2024-12-07 16:26:46.310980600,4.993980712890625,0.0035952648613601,0.2110553532838821,0.4930838942527771
2024-12-07 16:26:46.321008400,5.00400830078125,0.0472710728645324,0.3378217220306396,0.5452818274497986
2024-12-07 16:26:46.331036200,5.0140361328125,0.0834900364279747,0.4731102287769317,0.6028060913085938
2024-12-07 16:26:46.341064000,5.02406396484375,0.1388837546110153,0.6243776679039001,0.6635261178016663
2024-12-07 16:26:46.351091700,5.034091796875,0.2091911435127258,0.7586008906364441,0.6997450590133667
2024-12-07 16:26:46.361119500,5.044119384765625,0.2890859246253967,0.8171903491020203,0.7189198136329651
2024-12-07 16:26:46.371147300,5.054147216796875,0.3775027990341186,0.7980156540870667,0.7274419069290161
2024-12-07 16:26:46.381175000,5.064175048828125,0.4595280885696411,0.7617966532707214,0.8105324506759644
2024-12-07 16:26:46.391202800,5.074202880859375,0.5234439373016357,0.8321040868759155,1.0022798776626587
2024-12-07 16:26:46.401230600,5.084230712890625,0.6075997352600098,0.876845121383667,1.0811094045639038
2024-12-07 16:26:46.411258400,5.09425830078125,0.6928208470344543,0.8512787818908691,0.9777788519859314
2024-12-07 16:26:46.421286100,5.1042861328125,0.6672545075416565,0.8331693410873413,0.8392946124076843
2024-12-07 16:26:46.431314000,5.11431396484375,0.5117260217666626,0.7681882381439209,0.7604650855064392
2024-12-07 16:26:46.441341400,5.124341552734375,0.2954775094985962,0.6222470998764038,0.7295724153518677
2024-12-07 16:26:46.451369200,5.134369140625,0.084555298089981,0.3910849094390869,0.6518082022666931
2024-12-07 16:26:46.461397000,5.14439697265625,-0.052863709628582,0.1045289933681488,0.4717786312103271
2024-12-07 16:26:46.471424800,5.1544248046875,-0.1146489977836608,-0.196940615773201,0.2267680019140243
2024-12-07 16:26:46.481452500,5.16445263671875,-0.0922784656286239,-0.4004059731960296,0.0158457960933446
2024-12-07 16:26:46.491480000,5.17447998046875,-0.0592552907764911,-0.3151848912239074,-0.1055942550301551
2024-12-07 16:26:46.501507800,5.1845078125,-0.0635163411498069,-0.1330247968435287,-0.1950764060020446
2024-12-07 16:26:46.511535600,5.19453564453125,-0.0145142171531915,0.0011984215816482,-0.2653838098049164
2024-12-07 16:26:46.521563400,5.2045634765625,0.0898816213011741,0.113051101565361,-0.2845585644245147
2024-12-07 16:26:46.531591000,5.2145908203125,0.1910816729068756,0.1471395343542099,-0.2515353858470917
2024-12-07 16:26:46.541618700,5.22461865234375,0.2507364153861999,0.0778974071145057,-0.1780321896076202
2024-12-07 16:26:46.551646500,5.234646484375,0.2976080179214477,-0.0403468608856201,-0.0619184486567974
2024-12-07 16:26:46.561674200,5.24467431640625,0.3242396116256714,-0.1703090220689773,0.0467384420335292
2024-12-07 16:26:46.571701800,5.25470166015625,0.3093259334564209,-0.2704437971115112,0.140481635928154
2024-12-07 16:26:46.581729500,5.2647294921875,0.273106962442398,-0.3119890987873077,0.2320943176746368
2024-12-07 16:26:46.591757300,5.27475732421875,0.2368880063295364,-0.3141196072101593,0.298140674829483
2024-12-07 16:26:46.601784800,5.284784912109375,0.1996037811040878,-0.2938795983791351,0.3471427857875824
2024-12-07 16:26:46.611812600,5.2948125,0.1580584943294525,-0.2352901101112365,0.3727091252803802
2024-12-07 16:26:46.621840400,5.30484033203125,0.1069258376955986,-0.1500690132379531,0.3673827946186065
2024-12-07 16:26:46.631868200,5.3148681640625,0.0525973923504352,-0.0850879326462745,0.3396859467029571
2024-12-07 16:26:46.641895700,5.324895751953125,-0.0006657897611148,-0.074435293674469,0.3034669756889343
2024-12-07 16:26:46.651923500,5.33492333984375,-0.0592552907764911,-0.1234374269843101,0.2576606571674347
2024-12-07 16:26:46.661951200,5.344951171875,-0.118910051882267,-0.2257027328014373,0.1980058848857879
2024-12-07 16:26:46.671979000,5.35497900390625,-0.1615206003189087,-0.3567301630973816,0.1138500496745109
2024-12-07 16:26:46.682006500,5.365006591796875,-0.191347986459732,-0.4803007543087005,0.024367906153202
2024-12-07 16:26:46.692034300,5.375034423828125,-0.2051964104175567,-0.5932186841964722,-0.0448742322623729
2024-12-07 16:26:46.702062000,5.38506201171875,-0.1966743022203445,-0.7103977203369141,-0.0960068851709365
2024-12-07 16:26:46.712089900,5.39508984375,-0.1753690242767334,-0.8499472141265869,-0.1407479643821716
2024-12-07 16:26:46.722117400,5.405117431640625,-0.1444763839244842,-0.9319725036621094,-0.157792180776596
2024-12-07 16:26:46.732145200,5.415145263671875,-0.1008005738258361,-0.9820399284362792,-0.1492700725793838
2024-12-07 16:26:46.742173000,5.4251728515625,-0.0145142171531915,-0.9841704368591307,-0.1183774247765541
2024-12-07 16:26:46.752200700,5.43520068359375,0.1175784766674041,-0.891492486000061,-0.0555268675088882
2024-12-07 16:26:46.762228500,5.445228515625,0.2997385561466217,-0.7487471699714661,0.0051931603811681
2024-12-07 16:26:46.772256300,5.45525634765625,0.5117260217666626,-0.6336987018585205,0.0062584239058196
2024-12-07 16:26:46.782283800,5.46528369140625,0.6768419146537781,-0.5026713013648987,-0.0555268675088882
2024-12-07 16:26:46.792311600,5.4753115234375,0.73649662733078,-0.2960101366043091,-0.1514005959033966
2024-12-07 16:26:46.802339300,5.48533935546875,0.7311703562736511,-0.1170458421111106,-0.2526006400585174
2024-12-07 16:26:46.812367000,5.4953671875,0.6480797529220581,-0.0286289602518081,-0.3623228073120117
2024-12-07 16:26:46.822395000,5.505394775390625,0.4957470595836639,-0.0478037074208259,-0.4720449447631836
2024-12-07 16:26:46.832422700,5.515422607421875,0.3103911876678467,-0.1447426974773407,-0.5402218103408813
2024-12-07 16:26:46.842450400,5.525450439453125,0.1218395307660102,-0.2448774725198745,-0.5721797347068787
2024-12-07 16:26:46.852478200,5.535478271484375,-0.0368847548961639,-0.3492733240127563,-0.5551354885101318
2024-12-07 16:26:46.862506000,5.545506103515625,-0.1423458606004715,-0.4579302072525024,-0.4795017838478088
2024-12-07 16:26:46.872533800,5.55553369140625,-0.1423458606004715,-0.4813660085201263,-0.3655185997486114
2024-12-07 16:26:46.882561500,5.5655615234375,-0.0539289712905883,-0.4217112362384796,-0.2419480085372924
2024-12-07 16:26:46.892589300,5.57558935546875,-0.0358194895088672,-0.4238417744636535,-0.1386174261569976
2024-12-07 16:26:46.902617000,5.5856171875,-0.1178447902202606,-0.440885990858078,-0.0480700209736824
2024-12-07 16:26:46.912644900,5.595644775390625,-0.1668469160795211,-0.3940143883228302,0.063782662153244
2024-12-07 16:26:46.922672600,5.605672607421875,-0.1956090331077575,-0.3098585605621338,0.195875346660614
2024-12-07 16:26:46.932700400,5.615700439453125,-0.2105227261781692,-0.1990711390972137,0.3226417303085327
2024-12-07 16:26:46.942728200,5.625728271484375,-0.20093534886837,-0.1063932031393051,0.4131891429424286
2024-12-07 16:26:46.952755700,5.635755615234375,-0.1625858694314956,-0.0605868697166442,0.4472775757312774
2024-12-07 16:26:46.962783500,5.645783447265625,-0.1221058443188667,-0.0446079149842262,0.4249070286750793
2024-12-07 16:26:46.972811300,5.655811279296875,-0.080560564994812,-0.0925447791814804,0.3588607013225555
2024-12-07 16:26:46.982839000,5.665839111328125,-0.0624510794878006,-0.2544648647308349,0.2683132886886596
2024-12-07 16:26:46.992866800,5.67586669921875,-0.0869521424174308,-0.4664523303508758,0.1681784987449646
2024-12-07 16:26:47.002894600,5.68589453125,-0.1210405826568603,-0.61878502368927,0.0435426495969295
2024-12-07 16:26:47.012922400,5.69592236328125,-0.12423637509346,-0.6880271434783936,-0.102398470044136
2024-12-07 16:26:47.022950100,5.7059501953125,-0.0901479348540306,-0.6656566262245178,-0.2174469381570816
2024-12-07 16:26:47.032978000,5.71597802734375,-0.0304931718856096,-0.5538039207458496,-0.2547311782836914
2024-12-07 16:26:47.043005700,5.726005615234375,0.0430100187659263,-0.4014712274074554,-0.2334259003400802
2024-12-07 16:26:47.053033500,5.736033447265625,0.1079910993576049,-0.2906838059425354,-0.1865542978048324
2024-12-07 16:26:47.063061200,5.746061279296875,0.1399490088224411,-0.2938795983791351,-0.1514005959033966
2024-12-07 16:26:47.073089000,5.756089111328125,0.1484711170196533,-0.3748396337032318,-0.1183774247765541
2024-12-07 16:26:47.083116800,5.76611669921875,0.1399490088224411,-0.449408084154129,-0.0821584612131118
2024-12-07 16:26:47.093144600,5.77614453125,0.112252153456211,-0.4962796866893768,-0.0565921291708946
2024-12-07 16:26:47.103172400,5.78617236328125,0.0675110816955566,-0.5111933946609497,-0.0502005480229854
2024-12-07 16:26:47.113199900,5.796199951171875,0.0153131652623415,-0.4760396778583526,-0.0800279304385185
2024-12-07 16:26:47.123227600,5.8062275390625,-0.0422110706567764,-0.3535343706607818,-0.1375521719455719
2024-12-07 16:26:47.133255400,5.81625537109375,-0.1018658354878425,-0.1756353378295898,-0.1833585053682327
2024-12-07 16:26:47.143283200,5.826283203125,-0.14554163813591,-0.0233026426285505,-0.2004027217626571
2024-12-07 16:26:47.153311000,5.83631103515625,-0.1764342933893203,0.0970721468329429,-0.2206427305936813
2024-12-07 16:26:47.163338800,5.8463388671875,-0.1892174482345581,0.1876195520162582,-0.2440785318613052
2024-12-07 16:26:47.173366500,5.856366455078125,-0.1849564015865326,0.235556423664093,-0.2579269707202911
2024-12-07 16:26:47.183394300,5.866394287109375,-0.1679121851921081,0.2323606312274933,-0.2547311782836914
2024-12-07 16:26:47.193422000,5.876422119140625,-0.1423458606004715,0.1514005959033966,-0.2312953621149063
2024-12-07 16:26:47.203449900,5.886449951171875,-0.1061268895864486,0.0512658134102821,-0.2046637833118438
2024-12-07 16:26:47.213477600,5.8964775390625,-0.0539289712905883,-0.0147805325686931,-0.2004027217626571
2024-12-07 16:26:47.223505400,5.90650537109375,-0.0027963169850409,-0.0531300231814384,-0.2099900990724563
2024-12-07 16:26:47.233533200,5.916533203125,0.0366184376180172,-0.0840226709842681,-0.2206427305936813
2024-12-07 16:26:47.243561000,5.92656103515625,0.0557931847870349,-0.1042626798152923,-0.223838523030281
2024-12-07 16:26:47.253588700,5.936588623046875,0.0568584464490413,-0.0968058332800865,-0.2142511457204818
2024-12-07 16:26:47.263616500,5.946616455078125,0.0472710728645324,-0.0616521313786506,-0.1940111368894577
2024-12-07 16:26:47.273644300,5.956644287109375,0.0270310640335083,-0.0296942237764596,-0.1844237744808197
2024-12-07 16:26:47.283671800,5.966671875,-0.0177100077271461,-0.0328900143504142,-0.1908153444528579
2024-12-07 16:26:47.293699600,5.976699462890625,-0.0837563574314117,-0.0765658244490623,-0.1982721984386444
2024-12-07 16:26:47.303727400,5.986727294921875,-0.1593900769948959,-0.1372858583927154,-0.1918806135654449
2024-12-07 16:26:47.313755100,5.996755126953125,-0.2137185186147689,-0.186287984251976,-0.180162712931633
2024-12-07 16:26:47.323783000,6.006782958984375,-0.2446111589670181,-0.2086585164070129,-0.1705753356218338
2024-12-07 16:26:47.333810700,6.016810791015625,-0.2520680129528045,-0.2001364082098007,-0.1588574349880218
2024-12-07 16:26:47.343838500,6.02683837890625,-0.2488722205162048,-0.1628521829843521,-0.1492700725793838
2024-12-07 16:26:47.353866200,6.0368662109375,-0.2435459047555923,-0.1319595277309417,-0.1471395343542099
2024-12-07 16:26:47.363894000,6.04689404296875,-0.2456764280796051,-0.1095889955759048,-0.1620532274246215
2024-12-07 16:26:47.373921800,6.056921875,-0.2637858986854553,-0.0829574093222618,-0.1972069293260574
2024-12-07 16:26:47.383949600,6.066949462890625,-0.2637858986854553,-0.0328900143504142,-0.23662169277668
2024-12-07 16:26:47.393977300,6.076977294921875,-0.2435459047555923,0.0512658134102821,-0.2771016955375671
2024-12-07 16:26:47.404005000,6.087005126953125,-0.2073269337415695,0.1407479643821716,-0.3197122514247894
2024-12-07 16:26:47.414033000,6.097032958984375,-0.1679121851921081,0.2099900990724563,-0.3633880615234375
2024-12-07 16:26:47.424060700,6.107060791015625,-0.1402153223752975,0.2579269707202911,-0.4059986174106598
2024-12-07 16:26:47.434088400,6.11708837890625,-0.1412805914878845,0.2930806577205658,-0.4358259737491607
2024-12-07 16:26:47.444116000,6.127115966796875,-0.1657816469669342,0.3261038362979889,-0.4464786350727081
2024-12-07 16:26:47.454143700,6.137143798828125,-0.2051964104175567,0.3367564678192138,-0.4422175586223602
2024-12-07 16:26:47.464171500,6.147171630859375,-0.2563290596008301,0.3261038362979889,-0.4294344186782837
2024-12-07 16:26:47.474199300,6.15719921875,-0.3000048696994781,0.3090596199035644,-0.4177165031433105
2024-12-07 16:26:47.484227000,6.16722705078125,-0.3298322558403015,0.3069290816783905,-0.4145207107067108
2024-12-07 16:26:47.494254800,6.1772548828125,-0.3404848873615265,0.3079943358898163,-0.4251733422279358
2024-12-07 16:26:47.504282600,6.18728271484375,-0.3308975100517273,0.3154512047767639,-0.4464786350727081
2024-12-07 16:26:47.514310400,6.197310302734375,-0.323440670967102,0.3388870060443878,-0.4826975762844085
2024-12-07 16:26:47.524338200,6.207338134765625,-0.3277017176151275,0.3932154476642608,-0.5359607934951782
2024-12-07 16:26:47.534366000,6.217365966796875,-0.3404848873615265,0.4731102287769317,-0.604137659072876
2024-12-07 16:26:47.544393700,6.227393798828125,-0.3745733201503753,0.5306344628334045,-0.6744450330734253
2024-12-07 16:26:47.554421500,6.23742138671875,-0.4182491302490234,0.5487439036369324,-0.7202513813972473
2024-12-07 16:26:47.564449300,6.24744921875,-0.4597944319248199,0.5796365737915039,-0.7021418809890747
2024-12-07 16:26:47.574477000,6.25747705078125,-0.4587291479110718,0.6052029132843018,-0.5892239809036255
2024-12-07 16:26:47.584504800,6.2675048828125,-0.4033354520797729,0.5498092174530029,-0.4251733422279358
2024-12-07 16:26:47.594532600,6.27753271484375,-0.3596596419811249,0.2888196110725403,-0.3016027808189392
2024-12-07 16:26:47.604560400,6.287560302734375,-0.3468764722347259,-0.0818921402096748,-0.2323606312274933
2024-12-07 16:26:47.614588000,6.297587890625,-0.325571209192276,-0.3524691164493561,-0.1876195520162582
2024-12-07 16:26:47.624615700,6.30761572265625,-0.2648511826992035,-0.4504733681678772,-0.157792180776596
2024-12-07 16:26:47.634643500,6.3176435546875,-0.1732385009527206,-0.4249070286750793,-0.101333200931549
2024-12-07 16:26:47.644671200,6.327671142578125,-0.0901479348540306,-0.3322291076183319,-0.0363521203398704
2024-12-07 16:26:47.654699000,6.337698974609375,-0.0198405347764492,-0.185222715139389,-0.0182426404207944
2024-12-07 16:26:47.664726800,6.347726806640625,0.0206394828855991,0.0821584612131118,0.0808268785476684
2024-12-07 16:26:47.674754600,6.357754638671875,-0.0070573715493083,0.3868238627910614,0.2906838059425354
2024-12-07 16:26:47.684782300,6.3677822265625,-0.0326237007975578,0.5338302254676819,0.4025365114212036
2024-12-07 16:26:47.694810000,6.37781005859375,-0.0539289712905883,0.633965015411377,0.497344970703125
2024-12-07 16:26:47.704838000,6.387837890625,-0.0517984442412853,0.6371608376502991,0.5601955056190491
2024-12-07 16:26:47.714865700,6.39786572265625,0.084555298089981,0.4976112842559814,0.5122586488723755
2024-12-07 16:26:47.724893400,6.4078935546875,0.3082606792449951,0.5700492262840271,0.4440817832946777
2024-12-07 16:26:47.734921200,6.417921142578125,0.4904207587242126,0.976979911327362,0.5740439295768738
2024-12-07 16:26:47.744949000,6.427948974609375,0.5905555486679077,1.332777976989746,0.8297072052955627
2024-12-07 16:26:47.754976800,6.437976806640625,0.6289049983024597,1.4318474531173706,0.995888352394104
2024-12-07 16:26:47.765004500,6.448004638671875,0.6054692268371582,1.3072116374969482,0.9948230981826782
2024-12-07 16:26:47.775032000,6.458031982421875,0.6033387184143066,1.02385151386261,0.8616651296615601
2024-12-07 16:26:47.785059800,6.468059814453125,0.6747113466262817,0.755405068397522,0.6805703043937683
2024-12-07 16:26:47.795087600,6.478087646484375,0.7450187802314758,0.4571312665939331,0.4611259996891022
2024-12-07 16:26:47.805115400,6.488115478515625,0.7503450512886047,0.2217079997062683,0.2565953731536865
2024-12-07 16:26:47.815143200,6.49814306640625,0.673646092414856,0.2515353858470917,0.1351553201675415
2024-12-07 16:26:47.825171000,6.5081708984375,0.5788376331329346,0.3399522602558136,0.1170458421111106
2024-12-07 16:26:47.835198700,6.51819873046875,0.4840291738510132,0.2802974879741668,0.1660479754209518
2024-12-07 16:26:47.845226500,6.5282265625,0.3924165070056915,0.1631184965372085,0.2363553643226623
2024-12-07 16:26:47.855254300,6.538254150390625,0.3103911876678467,0.0544616021215915,0.327968031167984
2024-12-07 16:26:47.865282000,6.548281982421875,0.2571280002593994,-0.0030626328662037,0.4185154438018799
2024-12-07 16:26:47.875309800,6.558309814453125,0.2443448454141616,-0.0009321057004854,0.5069323182106018
2024-12-07 16:26:47.885337600,6.568337646484375,0.2667153775691986,0.0139815853908658,0.5623260736465454
2024-12-07 16:26:47.895365400,6.578365478515625,0.2954775094985962,0.0129163218662142,0.5772397518157959
2024-12-07 16:26:47.905393200,6.58839306640625,0.3199785649776459,-0.0296942237764596,0.594283938407898
2024-12-07 16:26:47.915421000,6.5984208984375,0.331696480512619,-0.0882837250828743,0.6081323623657227
2024-12-07 16:26:47.925448700,6.60844873046875,0.3199785649776459,-0.1596563905477523,0.5900229215621948
2024-12-07 16:26:47.935476200,6.618476318359375,0.2933469712734222,-0.2363553643226623,0.564456582069397
2024-12-07 16:26:47.945504000,6.62850390625,0.2518016993999481,-0.3354249000549316,0.543151319026947
2024-12-07 16:26:47.955531800,6.63853173828125,0.1996037811040878,-0.4291680753231048,0.543151319026947
2024-12-07 16:26:47.965559600,6.6485595703125,0.1356879621744156,-0.5324986577033997,0.5538039207458496
2024-12-07 16:26:47.975587300,6.65858740234375,0.0589889734983444,-0.6464818716049194,0.5527386665344238
2024-12-07 16:26:47.985615000,6.668614990234375,-0.0091878985986113,-0.7732482552528381,0.5111933946609497
2024-12-07 16:26:47.995643000,6.678642822265625,-0.0603205524384975,-0.8968188166618347,0.4259723126888275
2024-12-07 16:26:48.005670700,6.688670654296875,-0.1008005738258361,-0.941559910774231,0.3269027769565582
2024-12-07 16:26:48.015698400,6.698698486328125,-0.1402153223752975,-0.9447556734085084,0.2257027328014373
2024-12-07 16:26:48.025726200,6.708726318359375,-0.1881521940231323,-0.9138630628585817,0.1245026886463165
2024-12-07 16:26:48.035754000,6.71875390625,-0.2265016883611679,-0.8851009011268616,0.024367906153202
2024-12-07 16:26:48.045781800,6.72878173828125,-0.2339585274457931,-0.8584693074226379,-0.0725710839033126
2024-12-07 16:26:48.055809500,6.7388095703125,-0.2158490419387817,-0.8201198577880859,-0.1545963883399963
2024-12-07 16:26:48.065837300,6.74883740234375,-0.1806953400373459,-0.8137282729148865,-0.224903792142868
2024-12-07 16:26:48.075865000,6.758864990234375,-0.1231711059808731,-0.8563387989997864,-0.3101248741149902
2024-12-07 16:26:48.085892900,6.768892822265625,-0.080560564994812,-0.7391598224639893,-0.3314301371574402
2024-12-07 16:26:48.095920600,6.778920654296875,-0.04114580899477,-0.4004059731960296,-0.2302301079034805
2024-12-07 16:26:48.105948200,6.7889482421875,0.0344879105687141,-0.0424773879349231,-0.060853186994791
2024-12-07 16:26:48.115976000,6.798975830078125,0.1090563684701919,0.1311605870723724,0.1000016257166862
2024-12-07 16:26:48.126003700,6.809003662109375,0.1644500792026519,0.007590003311634,0.1905490309000015
2024-12-07 16:26:48.136031500,6.819031494140625,0.2539322078227997,-0.2555301189422607,0.2054627239704132
2024-12-07 16:26:48.146059300,6.829059326171875,0.3743070065975189,-0.3290333151817322,0.1777658760547638
2024-12-07 16:26:48.156087000,6.839087158203125,0.4137217700481415,-0.2491385340690612,0.0435426495969295
2024-12-07 16:26:48.166114800,6.84911474609375,0.4020038545131683,-0.2842922210693359,-0.1908153444528579
2024-12-07 16:26:48.176142600,6.859142578125,0.3306311964988708,-0.5474123358726501,-0.3974764943122864
2024-12-07 16:26:48.186170400,6.86917041015625,0.112252153456211,-0.7743135094642639,-0.4837628602981567
2024-12-07 16:26:48.196198100,6.8791982421875,-0.146606907248497,-0.8190546035766602,-0.4464786350727081
2024-12-07 16:26:48.206226000,6.889225830078125,-0.27763432264328,-0.7732482552528381,-0.3474090993404388
2024-12-07 16:26:48.216253700,6.899253662109375,-0.3042659163475036,-0.6901576519012451,-0.2494048476219177
2024-12-07 16:26:48.226281500,6.909281494140625,-0.2478069514036178,-0.5250418186187744,-0.1918806135654449
2024-12-07 16:26:48.236309200,6.919309326171875,-0.1316932141780853,-0.2320943176746368,-0.1556616425514221
2024-12-07 16:26:48.246337000,6.9293369140625,0.0110521102324128,0.0395479127764701,-0.1311605870723724
2024-12-07 16:26:48.256364800,6.93936474609375,0.1303616315126419,0.1471395343542099,-0.1215732097625732
2024-12-07 16:26:48.266392300,6.949392333984375,0.2091911435127258,0.1258342713117599,-0.1087900474667549
2024-12-07 16:26:48.276420000,6.959420166015625,0.2358227372169494,0.0917458310723304,-0.085354246199131
2024-12-07 16:26:48.286447900,6.96944775390625,0.207060620188713,0.1055942550301551,-0.0533963404595851
2024-12-07 16:26:48.296475600,6.9794755859375,0.1580584943294525,0.1055942550301551,-0.0150468489155173
2024-12-07 16:26:48.306503400,6.98950341796875,0.1058605760335922,0.0544616021215915,0.0158457960933446
2024-12-07 16:26:48.316531200,6.99953125,0.0568584464490413,-0.036085806787014,0.0286289602518081
2024-12-07 16:26:48.326559000,7.00955908203125,0.0195742193609476,-0.1490037590265274,0.0179763231426477
2024-12-07 16:26:48.336586800,7.019586669921875,-0.0006657897611148,-0.2651174962520599,-0.0086552668362855
2024-12-07 16:26:48.346614300,7.0296142578125,-0.0049268445000052,-0.3577954173088074,-0.0182426404207944
2024-12-07 16:26:48.356642000,7.03964208984375,0.0035952648613601,-0.4142543971538543,-0.007590003311634
2024-12-07 16:26:48.366669800,7.049669921875,0.016378428786993,-0.4632565379142761,0.0083889514207839
2024-12-07 16:26:48.376697600,7.059697509765625,0.032357383519411,-0.4696480929851532,0.0083889514207839
2024-12-07 16:26:48.386725000,7.06972509765625,0.0504668653011322,-0.3918838500976562,-0.0065247397869825
2024-12-07 16:26:48.396753000,7.0797529296875,0.0600542388856411,-0.2257027328014373,-0.0416784398257732
2024-12-07 16:26:48.406780700,7.08978076171875,0.0664458200335502,-0.0456731803715229,-0.0917458310723304
2024-12-07 16:26:48.416808400,7.099808349609375,0.057923711836338,0.114116370677948,-0.1482048034667968
2024-12-07 16:26:48.426836000,7.1098359375,0.0249005369842052,0.2696448564529419,-0.1961416751146316
2024-12-07 16:26:48.436863700,7.11986376953125,-0.0326237007975578,0.359127014875412,-0.2270343154668808
2024-12-07 16:26:48.446891500,7.1298916015625,-0.107192151248455,0.3399522602558136,-0.2472743242979049
2024-12-07 16:26:48.456919000,7.1399189453125,-0.1956090331077575,0.2291648387908935,-0.2557964324951172
2024-12-07 16:26:48.466946800,7.14994677734375,-0.2840259075164795,0.1162468940019607,-0.2526006400585174
2024-12-07 16:26:48.476974600,7.159974609375,-0.3426154255867004,0.0533963404595851,-0.2419480085372924
2024-12-07 16:26:48.487002400,7.17000244140625,-0.3745733201503753,0.0342215932905674,-0.2387522161006927
2024-12-07 16:26:48.497030000,7.18002978515625,-0.3703122735023498,0.0544616021215915,-0.2387522161006927
2024-12-07 16:26:48.507057700,7.1900576171875,-0.3426154255867004,0.101333200931549,-0.2387522161006927
2024-12-07 16:26:48.517085400,7.20008544921875,-0.3053312003612518,0.1418132185935974,-0.234491154551506
2024-12-07 16:26:48.527113200,7.21011328125,-0.2733732759952545,0.1876195520162582,-0.23662169277668
2024-12-07 16:26:48.537140700,7.220140625,-0.2403501123189926,0.2035985141992569,-0.2515353858470917
2024-12-07 16:26:48.547168500,7.23016845703125,-0.2190448343753814,0.1972069293260574,-0.2771016955375671
2024-12-07 16:26:48.557196300,7.2401962890625,-0.1977395564317703,0.1748363971710205,-0.302668035030365
2024-12-07 16:26:48.567224000,7.25022412109375,-0.1881521940231323,0.1460742801427841,-0.3250385820865631
2024-12-07 16:26:48.577251600,7.26025146484375,-0.1849564015865326,0.1151816323399543,-0.3506048917770386
2024-12-07 16:26:48.587279400,7.270279296875,-0.1806953400373459,0.0970721468329429,-0.3772364854812622
2024-12-07 16:26:48.597307100,7.28030712890625,-0.1881521940231323,0.102398470044136,-0.4006722867488861
2024-12-07 16:26:48.607335000,7.2903349609375,-0.1966743022203445,0.1098553165793418,-0.4006722867488861
2024-12-07 16:26:48.617362700,7.30036279296875,-0.2222406268119812,0.1151816323399543,-0.3814975321292877
2024-12-07 16:26:48.627390500,7.310390380859375,-0.2382195889949798,0.0906805694103241,-0.3410175144672394
2024-12-07 16:26:48.637418200,7.320418212890625,-0.246741697192192,0.0406131781637668,-0.2973417043685913
2024-12-07 16:26:48.647445800,7.33044580078125,-0.2520680129528045,-0.0094542149454355,-0.2728406488895416
2024-12-07 16:26:48.657473500,7.3404736328125,-0.2510027587413788,-0.036085806787014,-0.2760364413261413
2024-12-07 16:26:48.667501300,7.350501220703125,-0.2478069514036178,-0.0414121225476264,-0.2909501194953918
2024-12-07 16:26:48.677529000,7.360529052734375,-0.246741697192192,-0.0233026426285505,-0.3037332892417907
2024-12-07 16:26:48.687556900,7.370556884765625,-0.2499374747276306,0.0299605391919612,-0.3186469972133636
2024-12-07 16:26:48.697584600,7.380584716796875,-0.246741697192192,0.1002679392695427,-0.3431480526924133
2024-12-07 16:26:48.707612400,7.3906123046875,-0.2392848432064056,0.180162712931633,-0.3751059472560882
2024-12-07 16:26:48.717640200,7.40064013671875,-0.2286322116851806,0.2802974879741668,-0.4017375409603119
2024-12-07 16:26:48.727668000,7.41066796875,-0.2147837877273559,0.4017375409603119,-0.4123901724815368
2024-12-07 16:26:48.737695700,7.42069580078125,-0.1998700946569442,0.5306344628334045,-0.4102596640586853
2024-12-07 16:26:48.747723500,7.4307236328125,-0.1828258782625198,0.6488786935806274,-0.4049333333969116
2024-12-07 16:26:48.757751300,7.440751220703125,-0.1679121851921081,0.7458177208900452,-0.4070638716220855
2024-12-07 16:26:48.767779000,7.450779052734375,-0.1583248078823089,0.8107987642288208,-0.42410808801651
2024-12-07 16:26:48.777806800,7.460806884765625,-0.1519332230091095,0.8139945864677429,-0.4390217661857605
2024-12-07 16:26:48.787834600,7.470834716796875,-0.1711079776287078,0.7277082204818726,-0.4251733422279358
2024-12-07 16:26:48.797862400,7.4808623046875,-0.2062616795301437,0.5924197435379028,-0.3538006842136383
2024-12-07 16:26:48.807890200,7.49089013671875,-0.2296974658966064,0.4922849535942077,-0.2046637833118438
2024-12-07 16:26:48.817917700,7.500917724609375,-0.2222406268119812,0.4368912577629089,0.0073236874304711
2024-12-07 16:26:48.827945500,7.510945556640625,-0.1540637612342834,0.3857586085796356,0.2107890397310257
2024-12-07 16:26:48.837973200,7.52097314453125,-0.0390152819454669,0.2131858915090561,0.2917490899562835
2024-12-07 16:26:48.848001000,7.5310009765625,0.0909468829631805,0.0342215932905674,0.2288985252380371
2024-12-07 16:26:48.858028800,7.54102880859375,0.1964079886674881,-0.0275636967271566,0.118111103773117
2024-12-07 16:26:48.868056600,7.551056640625,0.2241048365831375,-0.0893489867448806,0.038216333836317
2024-12-07 16:26:48.878084400,7.56108447265625,0.2241048365831375,-0.1894837766885757,-0.0278300121426582
2024-12-07 16:26:48.888112000,7.571112060546875,0.2209090441465377,-0.2597911655902862,-0.0672447681427002
2024-12-07 16:26:48.898140000,7.581139892578125,0.1793637722730636,-0.1703090220689773,0.0691089779138565
2024-12-07 16:26:48.908167700,7.591167724609375,0.0834900364279747,0.0885500386357307,0.3290333151817322
2024-12-07 16:26:48.918195500,7.601195556640625,-0.0251668542623519,0.2398174703121185,0.4153196513652801
2024-12-07 16:26:48.928223200,7.61122314453125,-0.0241015907377004,0.3016027808189392,0.2832269668579101
2024-12-07 16:26:48.938251000,7.6212509765625,0.0749679282307624,0.4251733422279358,0.0957405716180801
2024-12-07 16:26:48.948278800,7.63127880859375,0.1793637722730636,0.6904240250587463,0.0989363640546798
2024-12-07 16:26:48.958306600,7.641306640625,0.1878858804702758,0.892824113368988,0.2331595867872238
2024-12-07 16:26:48.968334300,7.651334228515625,0.09733846783638,0.7756450772285461,0.3162501454353332
2024-12-07 16:26:48.978361900,7.66136181640625,0.018508955836296,0.3964112401008606,0.3034669756889343
2024-12-07 16:26:48.988389600,7.6713896484375,0.0121173737570643,-0.052064761519432,0.2384859025478363
2024-12-07 16:26:48.998417400,7.68141748046875,0.002530001103878,-0.3524691164493561,0.1564605981111526
2024-12-07 16:26:49.008445200,7.691445068359375,-0.0251668542623519,-0.3471427857875824,0.1063932031393051
2024-12-07 16:26:49.018473000,7.701472900390625,-0.0262321177870035,-0.2246374636888504,0.074435293674469
2024-12-07 16:26:49.028500700,7.711500732421875,-0.0209057983011007,-0.1234374269843101,0.0424773879349231
2024-12-07 16:26:49.038528500,7.721528564453125,-0.0379500165581703,-0.0531300231814384,0.052064761519432
2024-12-07 16:26:49.048556300,7.731556396484375,-0.0486026518046855,0.0225036945194005,0.1085237339138984
2024-12-07 16:26:49.058584000,7.741583984375,-0.054994236677885,0.1300953179597854,0.1756353378295898
2024-12-07 16:26:49.068611800,7.75161181640625,-0.0336889624595642,0.3154512047767639,0.260856419801712
2024-12-07 16:26:49.078639600,7.7616396484375,-0.0347542278468608,0.4837628602981567,0.3290333151817322
2024-12-07 16:26:49.088667400,7.77166748046875,-0.0390152819454669,0.5487439036369324,0.3812312185764313
2024-12-07 16:26:49.098695200,7.781695068359375,-0.0251668542623519,0.5221123695373535,0.430233359336853
2024-12-07 16:26:49.108723000,7.791722900390625,0.0270310640335083,0.4667186439037323,0.4589954614639282
2024-12-07 16:26:49.118750700,7.801750732421875,0.113317422568798,0.4304996728897095,0.4643217921257019
2024-12-07 16:26:49.128778500,7.811778564453125,0.218778520822525,0.413455456495285,0.4600607454776764
2024-12-07 16:26:49.138806000,7.821805908203125,0.3125217258930206,0.378301739692688,0.451538622379303
2024-12-07 16:26:49.148833800,7.831833740234375,0.3817638456821441,0.2834932804107666,0.4440817832946777
2024-12-07 16:26:49.158861600,7.841861572265625,0.4286354482173919,0.1354216337203979,0.4344944059848785
2024-12-07 16:26:49.168889300,7.851889404296875,0.4350270330905914,-0.0605868697166442,0.4270375669002533
2024-12-07 16:26:49.178917000,7.861917236328125,0.417982816696167,-0.2747048735618591,0.4206459820270538
2024-12-07 16:26:49.188945000,7.87194482421875,0.3636543750762939,-0.4621912539005279,0.4174501895904541
2024-12-07 16:26:49.198972700,7.88197265625,0.275237500667572,-0.6091976165771484,0.4259723126888275
2024-12-07 16:26:49.209000400,7.89200048828125,0.1814942955970764,-0.7263766527175903,0.4504733681678772
2024-12-07 16:26:49.219028200,7.9020283203125,0.09733846783638,-0.8084019422531128,0.4803007543087005
2024-12-07 16:26:49.229056000,7.912055908203125,0.0504668653011322,-0.8275766968727112,0.5048018097877502
2024-12-07 16:26:49.239083800,7.922083740234375,0.0525973923504352,-0.7711177468299866,0.4962796866893768
2024-12-07 16:26:49.249111600,7.932111572265625,0.0813595131039619,-0.6677871346473694,0.449408084154129
2024-12-07 16:26:49.259139300,7.942139404296875,0.1250353157520294,-0.6081323623657227,0.3886880576610565
2024-12-07 16:26:49.269167400,7.95216748046875,0.1655153334140777,-0.5878923535346985,0.3428817391395569
2024-12-07 16:26:49.279195100,7.962195068359375,0.1729721873998642,-0.5878923535346985,0.3290333151817322
2024-12-07 16:26:49.289223000,7.972222900390625,0.1580584943294525,-0.5633913278579712,0.3300985693931579
2024-12-07 16:26:49.299250700,7.982250732421875,0.151666909456253,-0.5346291661262512,0.327968031167984
2024-12-07 16:26:49.309278500,7.992278564453125,0.1580584943294525,-0.5569997429847717,0.3109238147735595
2024-12-07 16:26:49.319306200,8.00230615234375,0.1612542867660522,-0.6560692191123962,0.2821617126464844
2024-12-07 16:26:49.329334000,8.012333984375,0.1484711170196533,-0.7924230098724365,0.2587259113788605
2024-12-07 16:26:49.339362000,8.022362060546875,0.1303616315126419,-0.9021451473236084,0.2651174962520599
2024-12-07 16:26:49.349389800,8.032389892578125,0.1271658539772033,-0.9809746742248536,0.2715090811252594
2024-12-07 16:26:49.359417600,8.04241748046875,0.1644500792026519,-1.0289114713668823,0.241681694984436
2024-12-07 16:26:49.369445400,8.0524453125,0.2432795912027359,-0.9990841150283812,0.1671132296323776
2024-12-07 16:26:49.379473200,8.06247314453125,0.3210438191890716,-0.8520777821540833,0.0563258156180381
2024-12-07 16:26:49.389501000,8.0725009765625,0.3679154217243194,-0.5889576077461243,-0.047004759311676
2024-12-07 16:26:49.399528700,8.08252880859375,0.3924165070056915,-0.3109238147735595,-0.114116370677948
2024-12-07 16:26:49.409556700,8.092556640625,0.386024922132492,-0.1639174371957779,-0.1641837656497955
2024-12-07 16:26:49.419584500,8.10258447265625,0.2986733019351959,-0.1063932031393051,-0.1854890286922454
2024-12-07 16:26:49.429612300,8.1126123046875,0.151666909456253,-0.118111103773117,-0.1322258561849594
2024-12-07 16:26:49.439640000,8.12264013671875,0.0067910556681454,-0.240616425871849,-0.0225036945194005
2024-12-07 16:26:49.449667800,8.132667724609375,-0.0677774026989936,-0.4227765202522278,0.107458472251892
2024-12-07 16:26:49.459695600,8.142695556640625,-0.0294279083609581,-0.4728438854217529,0.250203788280487
2024-12-07 16:26:49.469723400,8.152723388671875,-0.0304931718856096,-0.4877575933933258,0.2821617126464844
2024-12-07 16:26:49.479751400,8.16275146484375,-0.0027963169850409,-0.5708481669425964,0.2033322006464004
2024-12-07 16:26:49.489779200,8.172779296875,0.0344879105687141,-0.6454166173934937,0.0968058332800865
2024-12-07 16:26:49.499807000,8.182806884765625,0.0057257921434938,-0.6358292102813721,-0.0011984215816482
2024-12-07 16:26:49.509834800,8.192834716796876,-0.0699079260230064,-0.6017407774925232,-0.0960068851709365
2024-12-07 16:26:49.519862500,8.202862548828126,-0.1529984921216964,-0.5388902425765991,-0.2035985141992569
2024-12-07 16:26:49.529890300,8.212890380859376,-0.1966743022203445,-0.438755452632904,-0.3229080438613891
2024-12-07 16:26:49.539918000,8.22291796875,-0.1988048255443573,-0.3556649088859558,-0.3985417485237121
2024-12-07 16:26:49.549946000,8.232946044921874,-0.2094574570655822,-0.2587259113788605,-0.3889544010162353
2024-12-07 16:26:49.559974000,8.242973876953124,-0.2041311413049698,-0.1511342823505401,-0.3250385820865631
2024-12-07 16:26:49.570001700,8.253001708984375,-0.1615206003189087,-0.0712395086884498,-0.2621880173683166
2024-12-07 16:26:49.580029400,8.263029541015625,-0.1018658354878425,-0.0094542149454355,-0.2227732539176941
2024-12-07 16:26:49.590057200,8.27305712890625,-0.0198405347764492,0.060853186994791,-0.2110553532838821
2024-12-07 16:26:49.600085000,8.2830849609375,0.0877510905265808,0.1226384788751602,-0.223838523030281
2024-12-07 16:26:49.610112800,8.29311279296875,0.1836248189210891,0.1268995255231857,-0.2472743242979049
2024-12-07 16:26:49.620140800,8.303140869140625,0.2443448454141616,0.0448742322623729,-0.2653838098049164
2024-12-07 16:26:49.630168600,8.31316845703125,0.2688459157943725,-0.0616521313786506,-0.2621880173683166
2024-12-07 16:26:49.640196400,8.3231962890625,0.2432795912027359,-0.1202416345477104,-0.2323606312274933
2024-12-07 16:26:49.650224000,8.33322412109375,0.1836248189210891,-0.1170458421111106,-0.1822932362556457
2024-12-07 16:26:49.660252000,8.343251953125,0.1143826842308044,-0.0691089779138565,-0.1268995255231857
2024-12-07 16:26:49.670279700,8.35327978515625,0.0589889734983444,-0.0019973693415522,-0.0832237228751182
2024-12-07 16:26:49.680307500,8.363307373046876,0.0142479008063673,0.0555268675088882,-0.062983714044094
2024-12-07 16:26:49.690335500,8.37333544921875,-0.0230363253504037,0.0810931921005249,-0.0565921291708946
2024-12-07 16:26:49.700363300,8.38336328125,-0.0496679171919822,0.0587226599454879,-0.0619184486567974
2024-12-07 16:26:49.710391000,8.39339111328125,-0.0635163411498069,0.0011984215816482,-0.085354246199131
2024-12-07 16:26:49.720418800,8.403418701171875,-0.0731037184596061,-0.0392815954983234,-0.1247690021991729
2024-12-07 16:26:49.730446600,8.413446533203125,-0.0752342417836189,-0.0318247526884079,-0.1652490198612213
2024-12-07 16:26:49.740474400,8.423474365234375,-0.0667121335864067,-0.0169110596179962,-0.1950764060020446
2024-12-07 16:26:49.750502100,8.433502197265625,-0.0603205524384975,-0.0211721155792474,-0.2110553532838821
2024-12-07 16:26:49.760530200,8.4435302734375,-0.0560594983398914,-0.0414121225476264,-0.2078595608472824
2024-12-07 16:26:49.770558000,8.453557861328125,-0.0454068630933761,-0.0392815954983234,-0.1982721984386444
2024-12-07 16:26:49.780585700,8.463585693359375,-0.0283626448363065,0.0043942127376794,-0.2057290375232696
2024-12-07 16:26:49.790613500,8.473613525390626,-0.0049268445000052,0.085354246199131,-0.2494048476219177
2024-12-07 16:26:49.800641300,8.483641357421876,0.0067910556681454,0.1599227041006088,-0.3047985732555389
2024-12-07 16:26:49.810669000,8.4936689453125,0.0003994738799519,0.2110553532838821,-0.3399522602558136
2024-12-07 16:26:49.820696800,8.50369677734375,-0.0315584354102611,0.2110553532838821,-0.3388870060443878
2024-12-07 16:26:49.830724900,8.513724853515624,-0.0890826731920242,0.1386174261569976,-0.3058638274669647
2024-12-07 16:26:49.840752600,8.523752685546874,-0.1498026996850967,0.0704405605792999,-0.2664490640163421
2024-12-07 16:26:49.850780400,8.533780517578125,-0.1870869249105453,0.0544616021215915,-0.246209055185318
2024-12-07 16:26:49.860808200,8.54380810546875,-0.1998700946569442,0.0874847769737243,-0.2472743242979049
2024-12-07 16:26:49.870836000,8.5538359375,-0.1934785097837448,0.1482048034667968,-0.2653838098049164
2024-12-07 16:26:49.880863700,8.56386376953125,-0.1806953400373459,0.2131858915090561,-0.2856238186359405
2024-12-07 16:26:49.890891500,8.5738916015625,-0.1700427085161209,0.2824280261993408,-0.3133206665515899
2024-12-07 16:26:49.900919600,8.58391943359375,-0.1561942845582962,0.3506048917770386,-0.3303648829460144
2024-12-07 16:26:49.910947300,8.593947265625,-0.146606907248497,0.4123901724815368,-0.3292996287345886
2024-12-07 16:26:49.920975000,8.60397509765625,-0.1434111148118972,0.4486091434955597,-0.3154512047767639
2024-12-07 16:26:49.931003000,8.6140029296875,-0.1423458606004715,0.4677838981151581,-0.2984069883823395
2024-12-07 16:26:49.941030700,8.62403076171875,-0.1412805914878845,0.4944154918193817,-0.281362771987915
2024-12-07 16:26:49.951058400,8.634058349609376,-0.1434111148118972,0.5466133952140808,-0.2664490640163421
2024-12-07 16:26:49.961086200,8.644086181640626,-0.1444763839244842,0.6222470998764038,-0.2472743242979049
2024-12-07 16:26:49.971114000,8.654114013671874,-0.146606907248497,0.6936197876930237,-0.2376869469881057
2024-12-07 16:26:49.981142000,8.66414208984375,-0.1679121851921081,0.7362303137779236,-0.2408827394247055
2024-12-07 16:26:49.991169800,8.674169677734374,-0.2073269337415695,0.7383608818054199,-0.2440785318613052
2024-12-07 16:26:50.001197600,8.684197509765625,-0.2488722205162048,0.7138597965240479,-0.2312953621149063
2024-12-07 16:26:50.011225300,8.694225341796875,-0.2893522381782532,0.6989461183547974,-0.2025332450866699
2024-12-07 16:26:50.021253000,8.704253173828125,-0.3298322558403015,0.704272449016571,-0.167379543185234
2024-12-07 16:26:50.031281000,8.714281005859375,-0.3511375188827514,0.7181208729743958,-0.1364869028329849
2024-12-07 16:26:50.041308700,8.72430859375,-0.3532680571079254,0.7117292881011963,-0.1268995255231857
2024-12-07 16:26:50.051336700,8.734336669921875,-0.3351585865020752,0.6776408553123474,-0.1460742801427841
2024-12-07 16:26:50.061364500,8.744364501953125,-0.2904174923896789,0.6350302696228027,-0.1780321896076202
2024-12-07 16:26:50.071392300,8.754392333984375,-0.2627206444740295,0.5956155061721802,-0.2110553532838821
2024-12-07 16:26:50.081420000,8.764419921875,-0.2296974658966064,0.5849629044532776,-0.2387522161006927
2024-12-07 16:26:50.091447800,8.77444775390625,-0.1860216706991195,0.5807018280029297,-0.2675143182277679
2024-12-07 16:26:50.101475600,8.7844755859375,-0.1253016293048858,0.5892239809036255,-0.2856238186359405
2024-12-07 16:26:50.111503400,8.79450341796875,-0.0368847548961639,0.633965015411377,-0.289884865283966
2024-12-07 16:26:50.121531400,8.804531494140624,0.085620567202568,0.7234471440315247,-0.2888196110725403
2024-12-07 16:26:50.131559200,8.81455908203125,0.1942774504423141,0.7862977385520935,-0.2962764501571655
2024-12-07 16:26:50.141587000,8.8245869140625,0.2432795912027359,0.7649924755096436,-0.3261038362979889
2024-12-07 16:26:50.151614700,8.83461474609375,0.2283658981323242,0.6904240250587463,-0.3410175144672394
2024-12-07 16:26:50.161642500,8.844642578125,0.1782985031604766,0.6009418368339539,-0.3165164589881897
2024-12-07 16:26:50.171670500,8.85467041015625,0.1069258376955986,0.4773712754249573,-0.2717753946781158
2024-12-07 16:26:50.181698300,8.8646982421875,0.0568584464490413,0.3506048917770386,-0.2004027217626571
2024-12-07 16:26:50.191726000,8.87472607421875,0.0003994738799519,0.3037332892417907,-0.0011984215816482
2024-12-07 16:26:50.201754000,8.884754150390625,-0.0976047813892364,0.2888196110725403,0.1532648056745529
2024-12-07 16:26:50.211782000,8.894781982421875,-0.1529984921216964,0.2408827394247055,0.1223721578717231
2024-12-07 16:26:50.221809700,8.9048095703125,-0.1274321675300598,0.1428784877061844,-0.085354246199131
2024-12-07 16:26:50.231837700,8.914837646484376,-0.0123836901038885,0.167379543185234,-0.1727058738470077
2024-12-07 16:26:50.241865500,8.924865478515626,0.1058605760335922,0.4315649271011352,0.0371510684490203
2024-12-07 16:26:50.251893200,8.934893310546874,0.1495363861322403,0.8938893675804138,0.3183806836605072
2024-12-07 16:26:50.261921300,8.94492138671875,0.1665806025266647,1.2805800437927246,0.4920186400413513
2024-12-07 16:26:50.271949000,8.954948974609374,0.1793637722730636,1.2145336866378784,0.4717786312103271
2024-12-07 16:26:50.281976800,8.964976806640625,0.2336922138929367,0.7372955679893494,0.3684480488300323
2024-12-07 16:26:50.292004900,8.9750048828125,0.2816290855407715,0.3303648829460144,0.3418164849281311
2024-12-07 16:26:50.302032600,8.98503271484375,0.2209090441465377,0.1194426864385604,0.3343596160411834
2024-12-07 16:26:50.312060400,8.995060302734375,0.0994689911603927,0.0384826473891735,0.2597911655902862
2024-12-07 16:26:50.322088400,9.00508837890625,0.0504668653011322,0.085354246199131,0.1351553201675415
2024-12-07 16:26:50.332116200,9.0151162109375,0.0376837030053138,0.2142511457204818,-0.021438430994749
2024-12-07 16:26:50.342144000,9.02514404296875,0.0344879105687141,0.3474090993404388,-0.1418132185935974
2024-12-07 16:26:50.352172000,9.035172119140626,0.0451405458152294,0.4123901724815368,-0.1716406047344207
2024-12-07 16:26:50.362199800,9.04519970703125,0.06964161247015,0.4155859649181366,-0.1386174261569976
2024-12-07 16:26:50.372227600,9.0552275390625,0.1101216301321983,0.3740406930446625,-0.0842889845371246
2024-12-07 16:26:50.382255600,9.065255615234374,0.1655153334140777,0.2749711871147156,-0.0161121133714914
2024-12-07 16:26:50.392283400,9.075283447265624,0.2113216817378997,0.1268995255231857,0.0946753025054931
2024-12-07 16:26:50.402311400,9.0853115234375,0.2422143220901489,-0.036085806787014,0.2533995807170868
2024-12-07 16:26:50.412339200,9.095339111328125,0.2358227372169494,-0.2075932472944259,0.4227765202522278
2024-12-07 16:26:50.422367000,9.105366943359376,0.218778520822525,-0.3524691164493561,0.5548691749572754
2024-12-07 16:26:50.432395000,9.11539501953125,0.2113216817378997,-0.4749744236469269,0.6262418627738953
2024-12-07 16:26:50.442422800,9.1254228515625,0.2102564126253128,-0.5687175989151001,0.6571345329284668
2024-12-07 16:26:50.452450600,9.135450439453123,0.2102564126253128,-0.5932186841964722,0.6592650413513184
2024-12-07 16:26:50.462478600,9.145478515625,0.2145174592733383,-0.5495429039001465,0.6443513631820679
2024-12-07 16:26:50.472506400,9.15550634765625,0.2273006290197372,-0.5165197253227234,0.6123934388160706
2024-12-07 16:26:50.482534100,9.1655341796875,0.2379532605409622,-0.5250418186187744,0.5601955056190491
2024-12-07 16:26:50.492562200,9.175562255859376,0.2304964214563369,-0.5601955056190491,0.5026713013648987
2024-12-07 16:26:50.502590000,9.18558984375,0.1974732428789138,-0.6358292102813721,0.4643217921257019
2024-12-07 16:26:50.512617700,9.19561767578125,0.1559279710054397,-0.7370292544364929,0.4440817832946777
2024-12-07 16:26:50.522645800,9.205645751953124,0.1378184854984283,-0.8094671964645386,0.4323638677597046
2024-12-07 16:26:50.532673500,9.215673583984374,0.1569932252168655,-0.8446208834648132,0.4110586047172546
2024-12-07 16:26:50.542701300,9.225701416015625,0.1985385119915008,-0.8478167057037354,0.3705785870552063
2024-12-07 16:26:50.552729300,9.235729248046876,0.264584869146347,-0.8382292985916138,0.308793306350708
2024-12-07 16:26:50.562757000,9.245757080078125,0.3018690943717956,-0.7913577556610107,0.2363553643226623
2024-12-07 16:26:50.572785000,9.255784912109377,0.2656501233577728,-0.7466166615486145,0.1830921918153762
2024-12-07 16:26:50.582813000,9.26581298828125,0.1964079886674881,-0.7466166615486145,0.1330247968435287
2024-12-07 16:26:50.592840700,9.2758408203125,0.1250353157520294,-0.7625955939292908,0.0882837250828743
2024-12-07 16:26:50.602868500,9.285868408203124,0.0824247747659683,-0.7849661707878113,0.0701742395758628
2024-12-07 16:26:50.612896500,9.295896484375,0.0770984590053558,-0.8478167057037354,0.0616521313786506
2024-12-07 16:26:50.622924300,9.30592431640625,0.0866858288645744,-0.874448299407959,0.0233026426285505
2024-12-07 16:26:50.632952000,9.3159521484375,0.112252153456211,-0.807336688041687,-0.0395479127764701
2024-12-07 16:26:50.642980000,9.32597998046875,0.1559279710054397,-0.6518082022666931,-0.1087900474667549
2024-12-07 16:26:50.653008100,9.336008056640624,0.2102564126253128,-0.4323638677597046,-0.1727058738470077
2024-12-07 16:26:50.663036000,9.346035888671874,0.2816290855407715,-0.2555301189422607,-0.2280995845794677
2024-12-07 16:26:50.673064000,9.35606396484375,0.3285006880760193,-0.2139848321676254,-0.2643185555934906
2024-12-07 16:26:50.683091700,9.366091796875,0.294412225484848,-0.2278332561254501,-0.2408827394247055
2024-12-07 16:26:50.693119700,9.37611962890625,0.2134522050619125,-0.2161153554916381,-0.1663142889738083
2024-12-07 16:26:50.703147500,9.3861474609375,0.1442100703716278,-0.1639174371957779,-0.0842889845371246
2024-12-07 16:26:50.713175600,9.396175537109375,0.1250353157520294,-0.0968058332800865,0.0062584239058196
2024-12-07 16:26:50.723203300,9.406203369140623,0.1261005848646164,-0.1031974181532859,0.0818921402096748
2024-12-07 16:26:50.733231400,9.4162314453125,0.0888163596391677,-0.1777658760547638,0.0808268785476684
2024-12-07 16:26:50.743259400,9.42625927734375,0.0557931847870349,-0.2661827504634857,0.0094542149454355
2024-12-07 16:26:50.753287200,9.436287109375,0.016378428786993,-0.4057323038578033,-0.0619184486567974
2024-12-07 16:26:50.763315200,9.446315185546876,-0.0368847548961639,-0.5953491926193237,-0.0800279304385185
2024-12-07 16:26:50.773343000,9.456343017578124,-0.0997353047132492,-0.7231808304786682,-0.0715058222413063
2024-12-07 16:26:50.783371000,9.46637109375,-0.1604553312063217,-0.7135934829711914,-0.0842889845371246
2024-12-07 16:26:50.793398800,9.476398681640624,-0.2233058959245681,-0.6060018539428711,-0.1258342713117599
2024-12-07 16:26:50.803426800,9.4864267578125,-0.2627206444740295,-0.4920186400413513,-0.1375521719455719
2024-12-07 16:26:50.813454600,9.49645458984375,-0.2904174923896789,-0.3780354261398315,-0.1034637317061424
2024-12-07 16:26:50.823482600,9.506482666015623,-0.325571209192276,-0.2736395895481109,-0.0640489757061004
2024-12-07 16:26:50.833510400,9.516510498046877,-0.3415501415729522,-0.1990711390972137,-0.0246342215687036
2024-12-07 16:26:50.843538400,9.526538330078123,-0.3404848873615265,-0.140481635928154,0.0126500055193901
2024-12-07 16:26:50.853566500,9.53656640625,-0.323440670967102,-0.1149153187870979,0.0318247526884079
2024-12-07 16:26:50.863594200,9.54659423828125,-0.2914827764034271,-0.1458079665899276,0.022237379103899
2024-12-07 16:26:50.873622300,9.556622314453126,-0.2510027587413788,-0.2182458937168121,-0.0107857948169112
2024-12-07 16:26:50.883650000,9.566650146484376,-0.2105227261781692,-0.2704437971115112,-0.0480700209736824
2024-12-07 16:26:50.893678000,9.576677978515624,-0.1753690242767334,-0.3130543529987335,-0.0821584612131118
2024-12-07 16:26:50.903705900,9.586705810546874,-0.133823737502098,-0.3354249000549316,-0.1087900474667549
2024-12-07 16:26:50.913734000,9.59673388671875,-0.0869521424174308,-0.2842922210693359,-0.1332911103963852
2024-12-07 16:26:50.923761700,9.60676171875,-0.0368847548961639,-0.1660479754209518,-0.1727058738470077
2024-12-07 16:26:50.933789700,9.616789794921877,0.0110521102324128,-0.0030626328662037,-0.2323606312274933
2024-12-07 16:26:50.943817700,9.626817626953123,0.0557931847870349,0.1737711280584335,-0.3058638274669647
2024-12-07 16:26:50.953845500,9.636845458984377,0.0930774137377739,0.3399522602558136,-0.3836280703544616
2024-12-07 16:26:50.963873500,9.64687353515625,0.1026647835969924,0.4816323220729828,-0.4411523044109344
2024-12-07 16:26:50.973901300,9.6569013671875,0.0984037294983863,0.5359607934951782,-0.4560659825801849
2024-12-07 16:26:50.983929300,9.666929443359376,0.0930774137377739,0.491219699382782,-0.4315649271011352
2024-12-07 16:26:50.993957000,9.67695703125,0.0866858288645744,0.3825628161430359,-0.3932154476642608
2024-12-07 16:26:51.003985200,9.686985107421876,0.068576343357563,0.2376869469881057,-0.3527354300022125
2024-12-07 16:26:51.014013000,9.697012939453124,0.0387489646673202,0.085354246199131,-0.3314301371574402
2024-12-07 16:26:51.024041000,9.707041015625,-0.015579480677843,-0.0595216043293476,-0.3175817131996155
2024-12-07 16:26:51.034068700,9.71706884765625,-0.0773647725582122,-0.1894837766885757,-0.2877543270587921
2024-12-07 16:26:51.044096800,9.7270966796875,-0.1178447902202606,-0.2491385340690612,-0.2451438009738922
2024-12-07 16:26:51.054124800,9.737124755859377,-0.1423458606004715,-0.2107890397310257,-0.2046637833118438
2024-12-07 16:26:51.064152600,9.747152587890625,-0.1583248078823089,-0.1031974181532859,-0.1631184965372085
2024-12-07 16:26:51.074180600,9.7571806640625,-0.1668469160795211,0.0448742322623729,-0.1215732097625732
2024-12-07 16:26:51.084208400,9.76720849609375,-0.1785648167133331,0.1822932362556457,-0.1077247858047485
2024-12-07 16:26:51.094236400,9.777236328125,-0.1977395564317703,0.2973417043685913,-0.1247690021991729
2024-12-07 16:26:51.104264200,9.78726416015625,-0.2233058959245681,0.3644533157348633,-0.1524658650159835
2024-12-07 16:26:51.114292200,9.797292236328126,-0.2499374747276306,0.3804322779178619,-0.1652490198612213
2024-12-07 16:26:51.124320000,9.807320068359376,-0.2659164369106293,0.3687143921852112,-0.1524658650159835
2024-12-07 16:26:51.134348000,9.81734814453125,-0.2573943138122558,0.3324954211711883,-0.1354216337203979
2024-12-07 16:26:51.144375800,9.827375732421874,-0.2328932583332061,0.2632532715797424,-0.1290300637483596
2024-12-07 16:26:51.154403800,9.83740380859375,-0.191347986459732,0.1822932362556457,-0.1258342713117599
2024-12-07 16:26:51.164432000,9.847431884765625,-0.1402153223752975,0.1407479643821716,-0.1322258561849594
2024-12-07 16:26:51.174459600,9.857459716796876,-0.0901479348540306,0.169510081410408,-0.1492700725793838
2024-12-07 16:26:51.184487700,9.86748779296875,-0.0432763360440731,0.2856238186359405,-0.1759016513824463
2024-12-07 16:26:51.194515500,9.877515380859377,-0.003861580742523,0.4273038804531097,-0.2099900990724563
2024-12-07 16:26:51.204543500,9.88754345703125,0.0312921181321144,0.4720449447631836,-0.2387522161006927
2024-12-07 16:26:51.214571300,9.8975712890625,0.0483363382518291,0.4273038804531097,-0.2579269707202911
2024-12-07 16:26:51.224599300,9.907599365234375,0.0536626577377319,0.3431480526924133,-0.2621880173683166
2024-12-07 16:26:51.234627000,9.917626953125,0.0515321269631385,0.2664490640163421,-0.2515353858470917
2024-12-07 16:26:51.244655000,9.927655029296876,0.032357383519411,0.2078595608472824,-0.2302301079034805
2024-12-07 16:26:51.254683100,9.93768310546875,0.0035952648613601,0.1737711280584335,-0.2035985141992569
2024-12-07 16:26:51.264711000,9.9477109375,-0.0209057983011007,0.1514005959033966,-0.1812279820442199
2024-12-07 16:26:51.274739000,9.957739013671874,-0.0443415977060794,0.1247690021991729,-0.1588574349880218
2024-12-07 16:26:51.284766700,9.9677666015625,-0.0635163411498069,0.1428784877061844,-0.1226384788751602
2024-12-07 16:26:51.294794800,9.977794677734376,-0.0858868807554245,0.223838523030281,-0.0523310750722885
2024-12-07 16:26:51.304822500,9.987822509765625,-0.1316932141780853,0.3165164589881897,0.0829574093222618
2024-12-07 16:26:51.314850600,9.9978505859375,-0.1828258782625198,0.3740406930446625,0.239551156759262
2024-12-07 16:26:51.324878300,10.00787841796875,-0.1924132406711578,0.3910849094390869,0.2906838059425354
2024-12-07 16:26:51.334906400,10.01790625,-0.2062616795301437,0.4635228514671325,0.4600607454776764
2024-12-07 16:26:51.344934100,10.02793408203125,-0.3032006621360779,0.3900196552276611,0.6262418627738953
2024-12-07 16:26:51.354962200,10.037962158203126,-0.3660512268543243,0.0310258027166128,0.5857618451118469
2024-12-07 16:26:51.364990200,10.047990234375,-0.334093302488327,-0.4781702160835266,0.3119890987873077
2024-12-07 16:26:51.375018000,10.05801806640625,-0.2147837877273559,-0.5474123358726501,0.2842922210693359
2024-12-07 16:26:51.385046000,10.0680458984375,-0.2158490419387817,-0.2182458937168121,0.4174501895904541
2024-12-07 16:26:51.395073800,10.07807373046875,-0.2723080217838287,0.0778974071145057,0.4483428299427032
2024-12-07 16:26:51.405101800,10.088101806640625,-0.2723080217838287,0.2174469381570816,0.4504733681678772
2024-12-07 16:26:51.415129600,10.098129638671876,-0.2073269337415695,0.1311605870723724,0.3801659643650055
2024-12-07 16:26:51.425157600,10.10815771484375,-0.0858868807554245,-0.0701742395758628,0.2150501012802124
2024-12-07 16:26:51.435185400,10.118185302734377,0.057923711836338,-0.1660479754209518,0.0169110596179962
2024-12-07 16:26:51.445213400,10.12821337890625,0.1569932252168655,-0.0627174004912376,-0.1620532274246215
2024-12-07 16:26:51.455241500,10.138241455078123,0.2123869359493255,0.1354216337203979,-0.2845585644245147
2024-12-07 16:26:51.465269200,10.148269287109375,0.2390185296535492,0.3239732980728149,-0.3410175144672394
2024-12-07 16:26:51.475297300,10.15829736328125,0.2326269447803497,0.4507396817207336,-0.3452785909175873
2024-12-07 16:26:51.485325000,10.168324951171876,0.2166479974985122,0.4187817573547363,-0.3261038362979889
2024-12-07 16:26:51.495353000,10.17835302734375,0.1804290264844894,0.2781669795513153,-0.2909501194953918
2024-12-07 16:26:51.505380900,10.188380859375,0.1165132075548172,0.1620532274246215,-0.2312953621149063
2024-12-07 16:26:51.515409000,10.198408935546874,0.057923711836338,0.1002679392695427,-0.1588574349880218
2024-12-07 16:26:51.525436700,10.208436767578124,0.0174436923116445,0.0832237228751182,-0.0565921291708946
2024-12-07 16:26:51.535464700,10.218464599609376,0.0003994738799519,0.0651142373681068,0.0723047703504562
2024-12-07 16:26:51.545492500,10.228492431640625,0.016378428786993,0.0342215932905674,0.2288985252380371
2024-12-07 16:26:51.555520500,10.2385205078125,0.0770984590053558,0.047004759311676,0.4110586047172546
2024-12-07 16:26:51.565548500,10.248548583984377,0.1889511346817016,0.1034637317061424,0.5783050060272217
2024-12-07 16:26:51.575576300,10.258576416015623,0.3306311964988708,0.167379543185234,0.7093324065208435
2024-12-07 16:26:51.585604400,10.268604248046875,0.4872249662876129,0.1844237744808197,0.7924230098724365
2024-12-07 16:26:51.595632000,10.278632080078124,0.6246439814567566,0.0874847769737243,0.8265114426612854
2024-12-07 16:26:51.605660200,10.28866015625,0.7418229579925537,-0.0339552797377109,0.8403598666191101
2024-12-07 16:26:51.615688000,10.29868798828125,0.8281093239784241,-0.1681784987449646,0.8318377733230591
2024-12-07 16:26:51.625716000,10.308716064453124,0.8856335878372192,-0.2736395895481109,0.798814594745636
2024-12-07 16:26:51.635743700,10.31874365234375,0.916526198387146,-0.2885532975196838,0.7647261619567871
2024-12-07 16:26:51.645771800,10.328771728515624,0.8909598588943481,-0.2800311744213104,0.7519429922103882
2024-12-07 16:26:51.655799800,10.3387998046875,0.8142609000205994,-0.3205111920833587,0.7562040090560913
2024-12-07 16:26:51.665827600,10.34882763671875,0.7141261100769043,-0.505867063999176,0.7274419069290161
2024-12-07 16:26:51.675855600,10.358855712890623,0.5820333957672119,-0.7583345770835876,0.6507429480552673
2024-12-07 16:26:51.685883400,10.36888330078125,0.4520712494850158,-0.9298419952392578,0.5197154879570007
2024-12-07 16:26:51.695911400,10.378911376953123,0.3455449044704437,-0.992692530155182,0.3769701719284057
2024-12-07 16:26:51.705939200,10.388939208984375,0.2624543309211731,-0.9479514956474304,0.252334326505661
2024-12-07 16:26:51.715967200,10.39896728515625,0.2027995586395263,-0.865926206111908,0.1436774283647537
2024-12-07 16:26:51.725995000,10.4089951171875,0.1601890176534652,-0.8179892897605896,0.0531300231814384
2024-12-07 16:26:51.736023000,10.41902294921875,0.1069258376955986,-0.8265114426612854,-0.0011984215816482
2024-12-07 16:26:51.746050800,10.42905078125,0.0259658005088567,-0.8605998754501343,-0.0235689580440521
2024-12-07 16:26:51.756078800,10.439078857421874,-0.0773647725582122,-0.9053409099578856,-0.0310258027166128
2024-12-07 16:26:51.766107000,10.44910693359375,-0.1785648167133331,-0.9404946565628052,-0.0363521203398704
2024-12-07 16:26:51.776134700,10.459134765625,-0.2627206444740295,-0.9021451473236084,-0.0438089668750762
2024-12-07 16:26:51.786162700,10.46916259765625,-0.3277017176151275,-0.8052061796188354,-0.060853186994791
2024-12-07 16:26:51.796190500,10.4791904296875,-0.3713775277137756,-0.6986798048019409,-0.0651142373681068
2024-12-07 16:26:51.806218500,10.489218505859377,-0.3990744054317474,-0.5506081581115723,0.010519478470087
2024-12-07 16:26:51.816246300,10.499246337890623,-0.3767038583755493,-0.3098585605621338,0.1245026886463165
2024-12-07 16:26:51.826274300,10.5092744140625,-0.2968090772628784,-0.0882837250828743,0.186287984251976
2024-12-07 16:26:51.836302000,10.519302001953124,-0.1806953400373459,-0.1372858583927154,0.1617869138717651
2024-12-07 16:26:51.846330000,10.529330078125,0.018508955836296,-0.2885532975196838,0.2001364082098007
2024-12-07 16:26:51.856358100,10.539358154296876,0.207060620188713,-0.1767006069421768,0.3141196072101593
2024-12-07 16:26:51.866386000,10.549385986328126,0.3018690943717956,0.0374173857271671,0.2267680019140243
2024-12-07 16:26:51.876414000,10.5594140625,0.3540669977664947,0.0342215932905674,-0.0043942127376794
2024-12-07 16:26:51.886441700,10.569441650390624,0.2603237926959991,-0.1585911214351654,-0.2067943066358566
2024-12-07 16:26:51.896469800,10.5794697265625,-0.0059921080246567,-0.306662768125534,-0.3346259295940399
2024-12-07 16:26:51.906497500,10.58949755859375,-0.2808301150798797,-0.3609912097454071,-0.4358259737491607
2024-12-07 16:26:51.916525600,10.599525634765625,-0.4427502155303955,-0.4270375669002533,-0.5135902166366577
2024-12-07 16:26:51.926553300,10.60955322265625,-0.5386239290237427,-0.4771049618721008,-0.5615270733833313
2024-12-07 16:26:51.936581400,10.619581298828123,-0.5471460223197937,-0.4600607454776764,-0.5881586670875549
2024-12-07 16:26:51.946609200,10.629609130859375,-0.4736428558826446,-0.3791007101535797,-0.5956155061721802
2024-12-07 16:26:51.956637200,10.63963720703125,-0.3649859428405761,-0.3418164849281311,-0.5711144804954529
2024-12-07 16:26:51.966665200,10.649665283203126,-0.2307627350091934,-0.3343596160411834,-0.5061333775520325
2024-12-07 16:26:51.976693000,10.65969287109375,-0.0912131965160369,-0.262986958026886,-0.4273038804531097
2024-12-07 16:26:51.986721000,10.669720947265626,0.044075284153223,-0.1031974181532859,-0.3964112401008606
2024-12-07 16:26:51.996749000,10.6797490234375,0.151666909456253,0.167379543185234,-0.4102596640586853
2024-12-07 16:26:52.006776800,10.68977685546875,0.1985385119915008,0.4560659825801849,-0.4177165031433105
2024-12-07 16:26:52.016804900,10.699804931640625,0.2059953510761261,0.6147902607917786,-0.4049333333969116
2024-12-07 16:26:52.026833000,10.7098330078125,0.1868206113576889,0.6467481851577759,-0.3708449006080627
2024-12-07 16:26:52.036861000,10.71986083984375,0.1314269006252288,0.591354489326477,-0.3133206665515899
2024-12-07 16:26:52.046888700,10.729888671875,0.0547279193997383,0.4858933687210083,-0.2632532715797424
2024-12-07 16:26:52.056916700,10.739916748046875,-0.027297381311655,0.359127014875412,-0.2259690463542938
2024-12-07 16:26:52.066944800,10.74994482421875,-0.0976047813892364,0.2494048476219177,-0.1950764060020446
2024-12-07 16:26:52.076972800,10.759972900390624,-0.1508679687976837,0.1705753356218338,-0.1748363971710205
2024-12-07 16:26:52.087000600,10.77000048828125,-0.1806953400373459,0.1077247858047485,-0.1545963883399963
2024-12-07 16:26:52.097028600,10.780028564453126,-0.190282717347145,0.0427437052130699,-0.1439437568187713
2024-12-07 16:26:52.107056600,10.790056640625,-0.1870869249105453,-0.0616521313786506,-0.1482048034667968
2024-12-07 16:26:52.117084700,10.800084716796874,-0.1721732318401336,-0.1798963993787765,-0.1503353267908096
2024-12-07 16:26:52.127112400,10.810112548828124,-0.146606907248497,-0.2576606571674347,-0.1631184965372085
2024-12-07 16:26:52.137140500,10.820140380859376,-0.1253016293048858,-0.2661827504634857,-0.1908153444528579
2024-12-07 16:26:52.147168500,10.83016845703125,-0.1008005738258361,-0.262986958026886,-0.2057290375232696
2024-12-07 16:26:52.157196500,10.840196533203123,-0.0773647725582122,-0.2097237855195999,-0.2121206223964691
2024-12-07 16:26:52.167224300,10.850224365234377,-0.0475373901426792,-0.1468732208013534,-0.2206427305936813
2024-12-07 16:26:52.177252400,10.86025244140625,-0.0241015907377004,-0.0541952885687351,-0.23662169277668
2024-12-07 16:26:52.187280400,10.8702802734375,-0.003861580742523,0.0512658134102821,-0.2536658942699432
2024-12-07 16:26:52.197308400,10.880308349609376,0.0067910556681454,0.1556616425514221,-0.2643185555934906
2024-12-07 16:26:52.207336200,10.890336181640626,-0.0027963169850409,0.2536658942699432,-0.2728406488895416
2024-12-07 16:26:52.217364200,10.9003642578125,-0.0177100077271461,0.3292996287345886,-0.2781669795513153
2024-12-07 16:26:52.227392300,10.910392333984374,-0.0251668542623519,0.3804322779178619,-0.2749711871147156
2024-12-07 16:26:52.237420300,10.920420166015624,-0.052863709628582,0.4059986174106598,-0.2685796022415161
2024-12-07 16:26:52.247448000,10.930447998046876,-0.0784300342202186,0.42410808801651,-0.2547311782836914
2024-12-07 16:26:52.257476000,10.94047607421875,-0.108257420361042,0.4390217661857605,-0.2398174703121185
2024-12-07 16:26:52.267504000,10.950504150390625,-0.1253016293048858,0.4411523044109344,-0.2280995845794677
2024-12-07 16:26:52.277532200,10.9605322265625,-0.134889006614685,0.4379565119743347,-0.2334259003400802
2024-12-07 16:26:52.287560000,10.970559814453123,-0.135954275727272,0.4486091434955597,-0.2579269707202911
2024-12-07 16:26:52.297588000,10.980587890625,-0.1284974217414856,0.4741754829883575,-0.2834932804107666
2024-12-07 16:26:52.307616000,10.990615966796875,-0.1199753209948539,0.5221123695373535,-0.2994722425937652
2024-12-07 16:26:52.317644000,11.00064404296875,-0.1157142594456672,0.5870934128761292,-0.3079943358898163
2024-12-07 16:26:52.327671800,11.010671875,-0.0858868807554245,0.6350302696228027,-0.3133206665515899
2024-12-07 16:26:52.337699800,11.020699951171874,-0.0517984442412853,0.6861629486083984,-0.3186469972133636
2024-12-07 16:26:52.347728000,11.030727783203124,-0.027297381311655,0.7724493145942688,-0.3133206665515899
2024-12-07 16:26:52.357756000,11.040755859375,-0.0209057983011007,0.8747146129608154,-0.2962764501571655
2024-12-07 16:26:52.367783700,11.05078369140625,-0.0358194895088672,0.943956732749939,-0.2749711871147156
2024-12-07 16:26:52.377811700,11.060811767578125,-0.0454068630933761,0.9471525549888612,-0.2611227631568908
2024-12-07 16:26:52.387839700,11.07083984375,-0.0486026518046855,0.9077377915382384,-0.2621880173683166
2024-12-07 16:26:52.397867800,11.08086767578125,-0.0720384567975997,0.8661925196647644,-0.2589922249317169
2024-12-07 16:26:52.407895600,11.0908955078125,-0.1018658354878425,0.8448871970176697,-0.2302301079034805
2024-12-07 16:26:52.417923600,11.100923583984375,-0.1402153223752975,0.8502135276794434,-0.169510081410408
2024-12-07 16:26:52.427951600,11.11095166015625,-0.190282717347145,0.8352998495101929,-0.0981374159455299
2024-12-07 16:26:52.437979600,11.120979736328126,-0.2446111589670181,0.7511440515518188,-0.0342215932905674
2024-12-07 16:26:52.448007400,11.13100732421875,-0.2712427675724029,0.671249270439148,0.0190415866672992
2024-12-07 16:26:52.458035500,11.141035400390624,-0.2499374747276306,0.658466100692749,0.0659131854772567
2024-12-07 16:26:52.468063500,11.1510634765625,-0.1806953400373459,0.7191861271858215,0.0936100408434867
2024-12-07 16:26:52.478091500,11.161091552734376,-0.0837563574314117,0.8118640780448914,0.0563258156180381
2024-12-07 16:26:52.488119600,11.17111962890625,0.016378428786993,0.9183903932571412,-0.0810931921005249
2024-12-07 16:26:52.498147300,11.181147216796877,0.112252153456211,1.0867021083831787,-0.1908153444528579
2024-12-07 16:26:52.508175400,11.19117529296875,0.1687111258506775,1.3114726543426514,-0.1545963883399963
2024-12-07 16:26:52.518203400,11.201203369140623,0.2091911435127258,1.5351780652999878,-0.0683100298047065
2024-12-07 16:26:52.528231400,11.2112314453125,0.2571280002593994,1.5948327779769895,0.0126500055193901
2024-12-07 16:26:52.538259200,11.22125927734375,0.294412225484848,1.4211949110031128,0.130894273519516
2024-12-07 16:26:52.548287200,11.231287353515626,0.2880206704139709,1.1463568210601809,0.1607216447591781
2024-12-07 16:26:52.558315300,11.241315185546876,0.2848248779773712,1.005742073059082,0.1873532384634018
2024-12-07 16:26:52.568343300,11.25134326171875,0.294412225484848,0.725577712059021,0.2661827504634857
2024-12-07 16:26:52.578371000,11.26137109375,0.2869553864002228,0.2973417043685913,0.4781702160835266
2024-12-07 16:26:52.588399000,11.271399169921876,0.2826943397521972,-0.074435293674469,0.8616651296615601
2024-12-07 16:26:52.598427100,11.28142724609375,0.1484711170196533,-0.3609912097454071,1.208941102027893
2024-12-07 16:26:52.608455200,11.291455078125,-0.0869521424174308,-0.6070671081542969,1.3069453239440918
2024-12-07 16:26:52.618483000,11.30148291015625,-0.2808301150798797,-0.7359640002250671,1.2025494575500488
2024-12-07 16:26:52.628511000,11.311510986328123,-0.3490070104598999,-0.7327682375907898,0.9703220129013062
2024-12-07 16:26:52.638539000,11.3215390625,-0.2957438230514526,-0.6283723711967468,0.6283723711967468
2024-12-07 16:26:52.648567000,11.331567138671875,-0.1711079776287078,-0.3609912097454071,0.2661827504634857
2024-12-07 16:26:52.658594800,11.3415947265625,-0.0379500165581703,0.0065247397869825,0.0169110596179962
2024-12-07 16:26:52.668622800,11.351622802734376,0.1186437383294105,0.2781669795513153,-0.113051101565361
2024-12-07 16:26:52.678651000,11.36165087890625,0.2976080179214477,0.311190128326416,-0.1769669204950332
2024-12-07 16:26:52.688679000,11.371678955078124,0.5010733604431152,0.1822932362556457,-0.234491154551506
2024-12-07 16:26:52.698707000,11.38170703125,0.6800376772880554,0.0715058222413063,-0.2802974879741668
2024-12-07 16:26:52.708735000,11.39173486328125,0.8227829933166504,0.049135286360979,-0.2930806577205658
2024-12-07 16:26:52.718763000,11.401762939453125,0.899482011795044,0.019307903945446,-0.2653838098049164
2024-12-07 16:26:52.728791000,11.411791015625,0.925048291683197,-0.1127847880125045,-0.2163816839456558
2024-12-07 16:26:52.738819000,11.421819091796875,0.908004105091095,-0.3290333151817322,-0.1482048034667968
2024-12-07 16:26:52.748847000,11.43184716796875,0.8334356546401978,-0.5506081581115723,-0.0480700209736824
2024-12-07 16:26:52.758875100,11.441875244140626,0.6970819234848022,-0.7125282287597656,0.079761616885662
2024-12-07 16:26:52.768903200,11.451903076171876,0.5330312848091125,-0.7668566703796387,0.1948100924491882
2024-12-07 16:26:52.778931200,11.46193115234375,0.3604585826396942,-0.7263766527175903,0.262986958026886
2024-12-07 16:26:52.788959200,11.471959228515624,0.2134522050619125,-0.6219807863235474,0.2906838059425354
2024-12-07 16:26:52.798987000,11.481987060546874,0.0802942439913749,-0.5399554967880249,0.2885532975196838
2024-12-07 16:26:52.809015000,11.49201513671875,-0.0379500165581703,-0.4994754791259765,0.2768353819847107
2024-12-07 16:26:52.819043000,11.50204296875,-0.1391500681638717,-0.5197154879570007,0.2661827504634857
2024-12-07 16:26:52.829071000,11.512071044921877,-0.2360890507698059,-0.6134586930274963,0.250203788280487
2024-12-07 16:26:52.839099100,11.52209912109375,-0.3287670016288757,-0.7647261619567871,0.241681694984436
2024-12-07 16:26:52.849127200,11.532127197265623,-0.4086617529392242,-0.9223851561546326,0.241681694984436
