time,seconds_elapsed,z,y,x
2024-12-07 16:21:07.762520000,0.14752001953125,-0.0676442384719848,-0.0699079260230064,-0.0274305380880832
2024-12-07 16:21:07.772391400,0.157391357421875,-0.0846884623169899,-0.0784300342202186,-0.0295610651373863
2024-12-07 16:21:07.782295300,0.16729541015625,-0.1038632020354271,-0.0731037184596061,-0.0316915921866893
2024-12-07 16:21:07.792235300,0.1772353515625,-0.0996021479368209,-0.0603205524384975,-0.0370179116725921
2024-12-07 16:21:07.802213600,0.187213623046875,-0.0996021479368209,-0.0560594983398914,-0.046605285257101
2024-12-07 16:21:07.812230700,0.197230712890625,-0.115581102669239,-0.0656468719244003,-0.060453712940216
2024-12-07 16:21:07.822285000,0.20728515625,-0.1347558498382568,-0.0901479348540306,-0.0657800287008285
2024-12-07 16:21:07.832374500,0.21737451171875,-0.1699095517396927,-0.1103879436850547,-0.0647147670388221
2024-12-07 16:21:07.842495000,0.227494873046875,-0.1933453530073166,-0.1434111148118972,-0.0764326676726341
2024-12-07 16:21:07.852641800,0.237641845703125,-0.199736937880516,-0.1870869249105453,-0.088150568306446
2024-12-07 16:21:07.862808600,0.24780859375,-0.1837579756975174,-0.2169143110513687,-0.1126516312360763
2024-12-07 16:21:07.872989400,0.257989501953125,-0.1880190372467041,-0.2158490419387817,-0.1446095407009124
2024-12-07 16:21:07.883177700,0.268177734375,-0.2018674612045288,-0.1561942845582962,-0.1648495495319366
2024-12-07 16:21:07.893366300,0.2783662109375,-0.276435911655426,-0.0954742506146431,-0.1797632426023483
2024-12-07 16:21:07.903407000,0.288406982421875,-0.3403517305850982,-0.0837563574314117,-0.2085253596305847
2024-12-07 16:21:07.913434600,0.2984345703125,-0.4458128213882446,-0.1540637612342834,-0.2127864062786102
2024-12-07 16:21:07.923462100,0.308462158203125,-0.2988064587116241,-0.3181143403053283,-0.1882853507995605
2024-12-07 16:21:07.933490000,0.318489990234375,-0.0026631590444594,-0.7506113648414612,-0.2372874766588211
2024-12-07 16:21:07.943517400,0.328517333984375,-0.1496695429086685,-0.447011262178421,-0.1552621722221374
2024-12-07 16:21:07.953545000,0.338544921875,-0.2711096107959747,-0.3458112180233001,-0.1776327192783355
2024-12-07 16:21:07.963572500,0.348572509765625,-0.287088543176651,-0.2414153665304184,-0.1520663797855377
2024-12-07 16:21:07.973600000,0.35860009765625,-0.2828274965286255,-0.1817606091499328,-0.1424790173768997
2024-12-07 16:21:07.983627500,0.36862744140625,-0.3137201368808746,-0.1796300858259201,-0.1510011255741119
2024-12-07 16:21:07.993655000,0.378655029296875,-0.3627222776412964,-0.212653249502182,-0.1478053331375122
2024-12-07 16:21:08.003682600,0.3886826171875,-0.3723096549510956,-0.2371543198823928,-0.1392832249403
2024-12-07 16:21:08.013710300,0.39871044921875,-0.3201117217540741,-0.2733732759952545,-0.1296958476305008
2024-12-07 16:21:08.023737900,0.40873779296875,-0.2476737946271896,-0.2755038142204284,-0.1243695318698883
2024-12-07 16:21:08.033765400,0.418765380859375,-0.1976063996553421,-0.2275669425725937,-0.098803199827671
2024-12-07 16:21:08.043793000,0.42879296875,-0.1826927214860916,-0.0890826731920242,-0.072171613574028
2024-12-07 16:21:08.053820400,0.4388203125,-0.1890842914581298,-0.0102531621232628,-0.0828242450952529
2024-12-07 16:21:08.063848000,0.448847900390625,-0.2146506309509277,0.0003994738799519,-0.1094558387994766
2024-12-07 16:21:08.073875500,0.45887548828125,-0.2551306486129761,-0.0145142171531915,-0.1222390010952949
2024-12-07 16:21:08.083903000,0.468903076171875,-0.2806969583034515,-0.0976047813892364,-0.1243695318698883
2024-12-07 16:21:08.093930800,0.4789306640625,-0.2934801280498504,-0.1380847990512848,-0.1094558387994766
2024-12-07 16:21:08.103958300,0.488958251953125,-0.3083938360214233,-0.134889006614685,-0.1062600463628768
2024-12-07 16:21:08.113985800,0.49898583984375,-0.3318296372890472,-0.1029310971498489,-0.1137168928980827
2024-12-07 16:21:08.124013300,0.509013427734375,-0.3776359558105469,-0.1135837361216545,-0.1115863695740699
2024-12-07 16:21:08.134040800,0.519040771484375,-0.4277033507823944,-0.0954742506146431,-0.0732368752360344
2024-12-07 16:21:08.144068400,0.529068359375,-0.4820317924022674,-0.0539289712905883,-0.0071905297227203
2024-12-07 16:21:08.154095900,0.539095947265625,-0.5874928832054138,0.1292963773012161,0.0471379160881042
2024-12-07 16:21:08.164123400,0.549123291015625,-0.65353924036026,0.1569932252168655,0.0311589613556861
2024-12-07 16:21:08.174151200,0.559151123046875,-0.6940192580223083,0.0952079370617866,-0.0018642114009708
2024-12-07 16:21:08.184178700,0.5691787109375,-0.7036066055297852,-0.0400805436074733,-0.0625842362642288
2024-12-07 16:21:08.194206200,0.579206298828125,-0.8229161500930786,0.0483363382518291,-0.058323185890913
2024-12-07 16:21:08.204233700,0.589233642578125,-1.014663577079773,0.1282311081886291,-0.0551273934543132
2024-12-07 16:21:08.214261200,0.59926123046875,-1.227716326713562,0.1559279710054397,-0.058323185890913
2024-12-07 16:21:08.224288800,0.609288818359375,-1.4088112115859983,0.1367532163858413,-0.0519316010177135
2024-12-07 16:21:08.234316300,0.61931640625,-1.5472954511642456,0.1591237634420395,-0.0295610651373863
2024-12-07 16:21:08.244343800,0.62934375,-1.6186680793762207,0.2283658981323242,0.0205063242465257
2024-12-07 16:21:08.254371600,0.63937158203125,-1.6580828428268433,0.3263701498508453,0.076965294778347
2024-12-07 16:21:08.264399000,0.649399169921875,-1.6932365894317627,0.407330185174942,0.0908137261867523
2024-12-07 16:21:08.274426600,0.659426513671875,-1.7113460302352903,0.5000081062316895,0.0503337085247039
2024-12-07 16:21:08.284454100,0.6694541015625,-1.6069501638412476,0.342349112033844,-0.0966726765036583
2024-12-07 16:21:08.294481700,0.679481689453125,-1.3970932960510254,-0.0976047813892364,-0.2767022252082824
2024-12-07 16:21:08.304509200,0.68950927734375,-1.1446257829666138,-0.3841606974601745,-0.3331612050533294
2024-12-07 16:21:08.314536700,0.69953662109375,-0.943290948867798,-0.4789691567420959,-0.3661843836307525
2024-12-07 16:21:08.324564200,0.709564208984375,-0.8143940567970276,-0.5439502596855164,-0.3853591084480285
2024-12-07 16:21:08.334592000,0.719592041015625,-0.7824361324310303,-0.511992335319519,-0.3512706756591797
2024-12-07 16:21:08.344619500,0.72961962890625,-0.7568697929382324,-0.3713775277137756,-0.30546435713768
2024-12-07 16:21:08.354647000,0.73964697265625,-0.7185203433036804,-0.3042659163475036,-0.3384875357151031
2024-12-07 16:21:08.364674600,0.749674560546875,-0.7185203433036804,-0.5109270811080933,-0.3981422781944275
2024-12-07 16:21:08.374702000,0.7597021484375,-0.6812360882759094,-0.4779039025306701,-0.3502054214477539
2024-12-07 16:21:08.384729600,0.7697294921875,-0.5938844680786133,-0.4480765163898468,-0.2969422340393066
2024-12-07 16:21:08.394757000,0.779757080078125,-0.5033370852470398,-0.554602861404419,-0.2820285558700561
2024-12-07 16:21:08.404784600,0.78978466796875,-0.387223333120346,-0.5524723529815674,-0.2969422340393066
2024-12-07 16:21:08.414812400,0.7998125,-0.3584612011909485,-0.4874912798404693,-0.3012032806873321
2024-12-07 16:21:08.424840000,0.80983984375,-0.3648527860641479,-0.3500722646713257,-0.2830938100814819
2024-12-07 16:21:08.434867500,0.819867431640625,-0.3680485785007477,-0.1774995476007461,-0.2319611608982086
2024-12-07 16:21:08.444895000,0.82989501953125,-0.3307643532752991,0.0003994738799519,-0.1478053331375122
2024-12-07 16:21:08.454922500,0.839922607421875,-0.2583264410495758,0.1037300452589988,-0.0743021368980407
2024-12-07 16:21:08.464950000,0.849949951171875,-0.211454838514328,0.0952079370617866,-0.0679105594754219
2024-12-07 16:21:08.474977500,0.8599775390625,-0.1933453530073166,0.0089215831831097,-0.1073253154754638
2024-12-07 16:21:08.485005000,0.870005126953125,-0.1869537681341171,-0.202000617980957,-0.1446095407009124
2024-12-07 16:21:08.495032800,0.88003271484375,-0.1954758763313293,-0.4534028470516205,-0.1435442715883255
2024-12-07 16:21:08.505060400,0.890060302734375,-0.1656484901905059,-0.5322323441505432,-0.1243695318698883
2024-12-07 16:21:08.515088000,0.900087890625,-0.115581102669239,-0.4534028470516205,-0.1233042627573013
2024-12-07 16:21:08.525115400,0.910115478515625,-0.0921453014016151,-0.3053312003612518,-0.1669800728559494
2024-12-07 16:21:08.535143000,0.920142822265625,-0.0719052925705909,-0.2925480306148529,-0.1978727281093597
2024-12-07 16:21:08.545170400,0.93017041015625,-0.0463389679789543,-0.3479417264461517,-0.1808284968137741
2024-12-07 16:21:08.555198000,0.940197998046875,-0.0122505314648151,-0.3490070104598999,-0.1605884879827499
2024-12-07 16:21:08.565225500,0.9502255859375,-0.087884247303009,-0.134889006614685,-0.2223737835884094
2024-12-07 16:21:08.575253200,0.960253173828125,-0.1837579756975174,0.2091911435127258,-0.3470096290111542
2024-12-07 16:21:08.585280800,0.97028076171875,-0.1091895252466201,0.150601640343666,-0.3320959508419037
2024-12-07 16:21:08.595308300,0.980308349609375,-0.0953410938382148,-0.0304931718856096,-0.2202432602643966
2024-12-07 16:21:08.605335800,0.990335693359375,-0.1390169113874435,-0.1167795285582542,-0.0753674060106277
2024-12-07 16:21:08.615363300,1.00036328125,-0.1709748208522796,-0.0613858178257942,0.0652474015951156
2024-12-07 16:21:08.625390800,1.010390869140625,-0.1880190372467041,-0.0645816102623939,0.0737695097923278
2024-12-07 16:21:08.635418400,1.02041845703125,-0.1720400750637054,-0.1008005738258361,-0.018908429890871
2024-12-07 16:21:08.645446000,1.03044580078125,-0.1528653353452682,-0.0656468719244003,-0.099868468940258
2024-12-07 16:21:08.655473700,1.0404736328125,-0.1304948031902313,0.0451405458152294,-0.1254348009824752
2024-12-07 16:21:08.665501200,1.050501220703125,-0.1017326787114143,0.1250353157520294,-0.137152686715126
2024-12-07 16:21:08.675528700,1.06052880859375,-0.0793621391057968,0.141014277935028,-0.1499358564615249
2024-12-07 16:21:08.685556200,1.07055615234375,-0.0793621391057968,0.1165132075548172,-0.1680453419685363
2024-12-07 16:21:08.695583700,1.080583740234375,-0.0985368862748146,0.0749679282307624,-0.1968074589967727
2024-12-07 16:21:08.705611300,1.090611328125,-0.1315600574016571,0.0249005369842052,-0.2063948363065719
2024-12-07 16:21:08.715638800,1.100638671875,-0.1731053441762924,0.0909468829631805,-0.1872200816869735
2024-12-07 16:21:08.725666300,1.110666259765625,-0.2061285078525543,0.1484711170196533,-0.1627190262079239
2024-12-07 16:21:08.735694000,1.120694091796875,-0.2125200927257537,0.2027995586395263,-0.1446095407009124
2024-12-07 16:21:08.745721600,1.1307216796875,-0.2029327303171157,0.2155827283859253,-0.1510011255741119
2024-12-07 16:21:08.755749000,1.1407490234375,-0.1933453530073166,0.2315616905689239,-0.1659148186445236
2024-12-07 16:21:08.765776600,1.150776611328125,-0.1901495605707168,0.2549974918365478,-0.1605884879827499
2024-12-07 16:21:08.775804200,1.16080419921875,-0.1965411454439163,0.2826943397521972,-0.137152686715126
2024-12-07 16:21:08.785831700,1.170831787109375,-0.209324300289154,0.3263701498508453,-0.1147821545600891
2024-12-07 16:21:08.795859200,1.180859130859375,-0.2316948473453521,0.3881554305553436,-0.1083905771374702
2024-12-07 16:21:08.805886700,1.19088671875,-0.2700443267822265,0.4147870242595672,-0.1201084777712822
2024-12-07 16:21:08.815914500,1.20091455078125,-0.3265033066272735,0.3114564716815948,-0.1350221633911132
2024-12-07 16:21:08.825942000,1.21094189453125,-0.3467433154582977,0.4158523082733154,-0.0945421457290649
2024-12-07 16:21:08.835969500,1.220969482421875,-0.354200154542923,0.673646092414856,-0.0071905297227203
2024-12-07 16:21:08.845997000,1.2309970703125,-0.354200154542923,0.7450187802314758,0.0471379160881042
2024-12-07 16:21:08.856024600,1.241024658203125,-0.3265033066272735,0.6693850159645081,0.0439421236515045
2024-12-07 16:21:08.866052000,1.251052001953125,-0.2828274965286255,0.5884249806404114,0.0173105336725711
2024-12-07 16:21:08.876079600,1.26107958984375,-0.2327601015567779,0.5010733604431152,-0.0125168478116393
2024-12-07 16:21:08.886107100,1.271107177734375,-0.1752358675003051,0.3945470154285431,-0.0359526462852954
2024-12-07 16:21:08.896135000,1.281135009765625,-0.1294295340776443,0.2922817170619964,-0.0572579205036163
2024-12-07 16:21:08.906162400,1.291162353515625,-0.104928471148014,0.2134522050619125,-0.0796284601092338
2024-12-07 16:21:08.916190000,1.30118994140625,-0.1027979403734207,0.1644500792026519,-0.0945421457290649
2024-12-07 16:21:08.926217500,1.311217529296875,-0.1145158410072326,0.1420795321464538,-0.1062600463628768
2024-12-07 16:21:08.936245000,1.321244873046875,-0.1187768951058387,0.1186437383294105,-0.1137168928980827
2024-12-07 16:21:08.946272500,1.3312724609375,-0.1113200485706329,0.0802942439913749,-0.1041295230388641
2024-12-07 16:21:08.956300000,1.341300048828125,-0.0932105705142021,0.06964161247015,-0.0668452903628349
2024-12-07 16:21:08.966327600,1.35132763671875,-0.0793621391057968,0.096273198723793,-0.0210389569401741
2024-12-07 16:21:08.976355300,1.361355224609375,-0.076166346669197,0.1484711170196533,0.0023968431632965
2024-12-07 16:21:08.986382800,1.3713828125,-0.087884247303009,0.2102564126253128,-0.0007989477599039
2024-12-07 16:21:08.996410400,1.381410400390625,-0.1230379492044448,0.2592585384845733,-0.0114515842869877
2024-12-07 16:21:09.006438000,1.39143798828125,-0.1741705983877182,0.2880206704139709,-0.0071905297227203
2024-12-07 16:21:09.016465400,1.40146533203125,-0.2338253706693649,0.3221091032028198,0.0151800066232681
2024-12-07 16:21:09.026493000,1.411492919921875,-0.2796317040920257,0.3519364893436432,0.0450073890388011
2024-12-07 16:21:09.036520400,1.4215205078125,-0.2988064587116241,0.3732417523860931,0.0780305638909339
2024-12-07 16:21:09.046548000,1.4315478515625,-0.3009369671344757,0.4105259776115417,0.1153147891163826
2024-12-07 16:21:09.056575700,1.44157568359375,-0.297741174697876,0.4691154658794403,0.1568600684404373
2024-12-07 16:21:09.066603300,1.451603271484375,-0.2902843356132507,0.5490102767944336,0.1909485012292862
2024-12-07 16:21:09.076630800,1.461630859375,-0.2956106662750244,0.6448839902877808,0.2133190482854843
2024-12-07 16:21:09.086658300,1.471658203125,-0.3190464675426483,0.7471492886543274,0.2388853728771209
2024-12-07 16:21:09.096685800,1.481685791015625,-0.3552654385566711,0.8174566626548767,0.282561182975769
2024-12-07 16:21:09.106713300,1.49171337890625,-0.3957454562187195,0.8142609000205994,0.3358243703842163
2024-12-07 16:21:09.116740900,1.501740966796875,-0.4404865205287933,0.8504798412322998,0.4412854611873626
2024-12-07 16:21:09.126768400,1.511768310546875,-0.4830970466136932,0.8238482475280762,0.5435507893562317
2024-12-07 16:21:09.136796200,1.521796142578125,-0.4937497079372406,0.7290397882461548,0.5989444851875305
2024-12-07 16:21:09.146823700,1.53182373046875,-0.4639223217964172,0.6129260659217834,0.6309024095535278
2024-12-07 16:21:09.156851200,1.541851318359375,-0.4127896726131439,0.5191828608512878,0.6660560965538025
2024-12-07 16:21:09.166878700,1.551878662109375,-0.3403517305850982,0.4254396557807922,0.6884266138076782
2024-12-07 16:21:09.176906200,1.56190625,-0.2263685166835785,0.3018690943717956,0.6841655969619751
2024-12-07 16:21:09.186933800,1.571933837890625,-0.0782968774437904,0.2773680090904236,0.6788392663002014
2024-12-07 16:21:09.196961300,1.581961181640625,0.0782968774437904,0.2805638015270233,0.6745781898498535
2024-12-07 16:21:09.206988800,1.59198876953125,0.2327601015567779,0.2155827283859253,0.6554034352302551
2024-12-07 16:21:09.217016600,1.6020166015625,0.3669833242893219,0.207060620188713,0.6532729268074036
2024-12-07 16:21:09.227044000,1.612044189453125,0.4958802163600921,0.218778520822525,0.668186604976654
2024-12-07 16:21:09.237071600,1.622071533203125,0.6109287142753601,0.2241048365831375,0.7065361142158508
2024-12-07 16:21:09.247099100,1.63209912109375,0.6854971647262573,0.1079910993576049,0.7161234617233276
2024-12-07 16:21:09.257126700,1.642126708984375,0.7195855975151062,-0.1391500681638717,0.6799045205116272
2024-12-07 16:21:09.267154200,1.652154296875,0.6940192580223083,-0.2680469751358032,0.6127929091453552
2024-12-07 16:21:09.277181700,1.662181640625,0.623711884021759,-0.2552638053894043,0.4743086397647857
2024-12-07 16:21:09.287209200,1.672209228515625,0.5352949500083923,-0.1423458606004715,0.303866446018219
2024-12-07 16:21:09.297237000,1.682237060546875,0.4394212663173675,-0.0251668542623519,0.161121129989624
2024-12-07 16:21:09.307264500,1.692264404296875,0.3605917394161224,-0.0379500165581703,0.0759000331163406
2024-12-07 16:21:09.317292000,1.7022919921875,0.3062632977962494,-0.1998700946569442,0.0460726507008075
2024-12-07 16:21:09.327319600,1.712319580078125,0.2561959028244018,-0.4416849315166473,0.05459476262331
2024-12-07 16:21:09.337347000,1.72234716796875,0.199736937880516,-0.7122619152069092,0.0790958255529403
2024-12-07 16:21:09.347374600,1.73237451171875,0.116646371781826,-0.8294408917427063,0.0972053036093711
2024-12-07 16:21:09.357402000,1.742402099609375,0.0442084409296512,-0.7495461106300354,0.094009518623352
2024-12-07 16:21:09.367429600,1.7524296875,0.0410126484930515,-0.5940176248550415,0.0577905513346195
2024-12-07 16:21:09.377457400,1.76245751953125,0.0846884623169899,-0.4502070546150207,0.0151800066232681
2024-12-07 16:21:09.387485000,1.77248486328125,0.1464737504720688,-0.3404848873615265,0.0045273704454302
2024-12-07 16:21:09.397512400,1.782512451171875,0.210389569401741,-0.2446111589670181,0.0343547537922859
2024-12-07 16:21:09.407540000,1.7925400390625,0.2615222334861755,-0.1796300858259201,0.0833568796515464
2024-12-07 16:21:09.417567500,1.8025673828125,0.3105243444442749,-0.1774995476007461,0.1344895362854004
2024-12-07 16:21:09.427595000,1.812594970703125,0.3627222776412964,-0.2403501123189926,0.1760348230600357
2024-12-07 16:21:09.437622500,1.82262255859375,0.4234423041343689,-0.3021354079246521,0.2111885100603103
2024-12-07 16:21:09.447650000,1.832650146484375,0.4607265293598175,-0.3394196331501007,0.2506032586097717
2024-12-07 16:21:09.457677800,1.842677734375,0.4532696902751922,-0.3415501415729522,0.2900180220603943
2024-12-07 16:21:09.467705300,1.852705322265625,0.4287686049938202,-0.2904174923896789,0.3432812094688415
2024-12-07 16:21:09.477732900,1.86273291015625,0.408528596162796,-0.2179795652627945,0.4018706977367401
2024-12-07 16:21:09.487760400,1.872760498046875,0.3946801722049713,-0.1764342933893203,0.4530033767223358
2024-12-07 16:21:09.497788000,1.882787841796875,0.3936149179935455,-0.2328932583332061,0.4807002246379852
2024-12-07 16:21:09.507815400,1.8928154296875,0.3904191255569458,-0.3468764722347259,0.4892223179340362
2024-12-07 16:21:09.517843000,1.902843017578125,0.3787012100219726,-0.4075964987277984,0.4881570637226105
2024-12-07 16:21:09.527870500,1.912870361328125,0.3648527860641479,-0.4651207327842712,0.4572644233703613
2024-12-07 16:21:09.537898200,1.922898193359375,0.3616569936275482,-0.5141228437423706,0.4125233590602875
2024-12-07 16:21:09.547925800,1.93292578125,0.3510043621063232,-0.5194491744041443,0.3571296334266662
2024-12-07 16:21:09.557953300,1.942953369140625,0.3233075141906738,-0.5428850054740906,0.2644517123699188
2024-12-07 16:21:09.567980800,1.952980712890625,0.2849580347537994,-0.5961481928825378,0.1525990217924118
2024-12-07 16:21:09.578008300,1.96300830078125,0.2572611570358276,-0.7293061017990112,0.0428768619894981
2024-12-07 16:21:09.588035800,1.973035888671875,0.267913818359375,-0.7559376955032349,-0.005060002207756
2024-12-07 16:21:09.598063400,1.9830634765625,0.3009369671344757,-0.6515418887138367,-0.0167779028415679
2024-12-07 16:21:09.608091000,1.9930908203125,0.3286338448524475,-0.5641902685165405,-0.0391484387218952
2024-12-07 16:21:09.618118700,2.00311865234375,0.3488738536834717,-0.4768386483192444,-0.0636495053768158
2024-12-07 16:21:09.628146200,2.013146240234375,0.3456780612468719,-0.3671164810657501,-0.0668452903628349
2024-12-07 16:21:09.638173700,2.023173583984375,0.3147853910923004,-0.27763432264328,-0.0774979293346405
2024-12-07 16:21:09.648201200,2.033201171875,0.2711096107959747,-0.2147837877273559,-0.1073253154754638
2024-12-07 16:21:09.658228700,2.043228759765625,0.2263685166835785,-0.1806953400373459,-0.1541969180107116
2024-12-07 16:21:09.668256300,2.05325634765625,0.154995858669281,-0.2094574570655822,-0.1978727281093597
2024-12-07 16:21:09.678283800,2.06328369140625,0.0463389679789543,-0.2978743314743042,-0.2021337747573852
2024-12-07 16:21:09.688311300,2.073311279296875,-0.0474042333662509,-0.344745934009552,-0.1723063886165619
2024-12-07 16:21:09.698339000,2.083339111328125,-0.1038632020354271,-0.325571209192276,-0.1360874325037002
2024-12-07 16:21:09.708366600,2.09336669921875,-0.1134505793452262,-0.2861564457416534,-0.1019989922642707
2024-12-07 16:21:09.718394000,2.10339404296875,-0.0751010850071907,-0.2605901062488556,-0.0838895142078399
2024-12-07 16:21:09.728421600,2.113421630859375,-0.0250336956232786,-0.2339585274457931,-0.0977379381656646
2024-12-07 16:21:09.738449200,2.12344921875,0.0037284228019416,-0.1689774394035339,-0.138217955827713
2024-12-07 16:21:09.748476700,2.1334765625,0.0069242138415575,-0.0890826731920242,-0.1957421898841858
2024-12-07 16:21:09.758504200,2.143504150390625,-0.0143810594454407,-0.0304931718856096,-0.2713759243488312
2024-12-07 16:21:09.768531700,2.15353173828125,-0.061252661049366,-0.0358194895088672,-0.381098061800003
2024-12-07 16:21:09.778559500,2.1635595703125,-0.1272990107536316,-0.1625858694314956,-0.4812328517436981
2024-12-07 16:21:09.788587000,2.1735869140625,-0.1901495605707168,-0.379899650812149,-0.494016021490097
2024-12-07 16:21:09.798614500,2.183614501953125,-0.2263685166835785,-0.5854955315589905,-0.4226433634757995
2024-12-07 16:21:09.808642000,2.19364208984375,-0.2274337857961654,-0.6589987277984619,-0.3480748832225799
2024-12-07 16:21:09.818669600,2.203669677734375,-0.1709748208522796,-0.5588639378547668,-0.2926811873912811
2024-12-07 16:21:09.828697000,2.213697021484375,-0.0857537239789962,-0.4001396596431732,-0.2213085144758224
2024-12-07 16:21:09.838724600,2.223724609375,-0.0047936863265931,-0.2414153665304184,-0.1541969180107116
2024-12-07 16:21:09.848752000,2.233752197265625,0.0655137151479721,-0.108257420361042,-0.1222390010952949
2024-12-07 16:21:09.858780000,2.24377978515625,0.1059937328100204,-0.0113184265792369,-0.1211737394332885
2024-12-07 16:21:09.868807400,2.253807373046875,0.1177116334438324,-0.01344895362854,-0.1286305785179138
2024-12-07 16:21:09.878835000,2.2638349609375,0.0942758321762085,-0.0933437272906303,-0.1211737394332885
2024-12-07 16:21:09.888862500,2.273862548828125,0.035686332732439,-0.2350237965583801,-0.1137168928980827
2024-12-07 16:21:09.898890000,2.283889892578125,-0.021837905049324,-0.3958786129951477,-0.1073253154754638
2024-12-07 16:21:09.908917500,2.29391748046875,-0.0591221302747726,-0.5514070987701416,-0.1169126853346824
2024-12-07 16:21:09.918945000,2.303945068359375,-0.0825579315423965,-0.6515418887138367,-0.1350221633911132
2024-12-07 16:21:09.928972500,2.31397265625,-0.0814926698803901,-0.6430197358131409,-0.1424790173768997
2024-12-07 16:21:09.939000300,2.324000244140625,-0.0559263415634632,-0.5279712677001953,-0.1392832249403
2024-12-07 16:21:09.949027800,2.33402783203125,-0.0154463229700922,-0.3415501415729522,-0.138217955827713
2024-12-07 16:21:09.959055400,2.344055419921875,0.0420779138803482,-0.1774995476007461,-0.1573926955461502
2024-12-07 16:21:09.969083000,2.354082763671875,0.1134505793452262,-0.0336889624595642,-0.1733716577291488
2024-12-07 16:21:09.979110400,2.3641103515625,0.1922800838947296,0.0494015999138355,-0.1765674501657486
2024-12-07 16:21:09.989138000,2.374137939453125,0.2498043179512024,0.0802942439913749,-0.1893506050109863
2024-12-07 16:21:09.999165400,2.38416552734375,0.265783280134201,0.1079910993576049,-0.2106558829545974
2024-12-07 16:21:10.009193000,2.39419287109375,0.2583264410495758,0.1761679798364639,-0.2181127369403839
2024-12-07 16:21:10.019220700,2.404220703125,0.2316948473453521,0.2560627460479736,-0.2127864062786102
2024-12-07 16:21:10.029248300,2.414248291015625,0.1922800838947296,0.3135869801044464,-0.204264298081398
2024-12-07 16:21:10.039275800,2.42427587890625,0.1518000662326812,0.3135869801044464,-0.2021337747573852
2024-12-07 16:21:10.049303300,2.43430322265625,0.1102547869086265,0.2816290855407715,-0.204264298081398
2024-12-07 16:21:10.059330800,2.444330810546875,0.0644484534859657,0.3327617347240448,-0.2000032514333725
2024-12-07 16:21:10.069358300,2.4543583984375,0.0058589498512446,0.3881554305553436,-0.1840242892503738
2024-12-07 16:21:10.079385900,2.4643857421875,-0.0548610761761665,0.4233091473579407,-0.1659148186445236
2024-12-07 16:21:10.089413400,2.474413330078125,-0.1059937328100204,0.4584628343582153,-0.1467400640249252
2024-12-07 16:21:10.099441200,2.484441162109375,-0.144343227148056,0.4787028431892395,-0.1307611167430877
2024-12-07 16:21:10.109468700,2.49446875,-0.1720400750637054,0.4499407410621643,-0.1126516312360763
2024-12-07 16:21:10.119496200,2.50449609375,-0.1901495605707168,0.4020038545131683,-0.0934768840670585
2024-12-07 16:21:10.129523700,2.514523681640625,-0.1901495605707168,0.342349112033844,-0.0774979293346405
2024-12-07 16:21:10.139551200,2.52455126953125,-0.1763011366128921,0.2848248779773712,-0.0828242450952529
2024-12-07 16:21:10.149578800,2.534578857421875,-0.1400821655988693,0.2059953510761261,-0.1009337306022644
2024-12-07 16:21:10.159606300,2.544606201171875,-0.0974716246128082,0.1537974327802658,-0.127565324306488
2024-12-07 16:21:10.169633800,2.5546337890625,-0.0559263415634632,0.1356879621744156,-0.1510011255741119
2024-12-07 16:21:10.179661600,2.56466162109375,-0.0271642226725816,0.1495363861322403,-0.1627190262079239
2024-12-07 16:21:10.189689000,2.574689208984375,-0.0037284228019416,0.1729721873998642,-0.1669800728559494
2024-12-07 16:21:10.199716600,2.584716552734375,0.0111852679401636,0.2049300968647003,-0.1573926955461502
2024-12-07 16:21:10.209744100,2.594744140625,0.0090547408908605,0.2432795912027359,-0.1467400640249252
2024-12-07 16:21:10.219771400,2.604771484375,-0.0026631590444594,0.2475406378507614,-0.1296958476305008
2024-12-07 16:21:10.229799000,2.614798828125,-0.021837905049324,0.2283658981323242,-0.1126516312360763
2024-12-07 16:21:10.239826400,2.624826416015625,-0.0484694950282573,0.2091911435127258,-0.0956074148416519
2024-12-07 16:21:10.249854000,2.63485400390625,-0.0804274082183837,0.1985385119915008,-0.0849547758698463
2024-12-07 16:21:10.259881500,2.644881591796875,-0.0932105705142021,0.1772332340478897,-0.0774979293346405
2024-12-07 16:21:10.269909000,2.654908935546875,-0.0942758321762085,0.1537974327802658,-0.071106344461441
2024-12-07 16:21:10.279936500,2.6649365234375,-0.1038632020354271,0.1729721873998642,-0.0743021368980407
2024-12-07 16:21:10.289964000,2.674964111328125,-0.0974716246128082,0.1836248189210891,-0.0785631909966468
2024-12-07 16:21:10.299991600,2.684991455078125,-0.0857537239789962,0.1751027107238769,-0.0764326676726341
2024-12-07 16:21:10.310019000,2.69501904296875,-0.088949516415596,0.1953427195549011,-0.0838895142078399
2024-12-07 16:21:10.320046600,2.705046630859375,-0.1027979403734207,0.2304964214563369,-0.088150568306446
2024-12-07 16:21:10.330074000,2.71507421875,-0.1219726875424385,0.2486059069633484,-0.0785631909966468
2024-12-07 16:21:10.340101600,2.7251015625,-0.1475390195846557,0.2667153775691986,-0.044474758207798
2024-12-07 16:21:10.350129000,2.73512890625,-0.1773663908243179,0.2976080179214477,0.013049479573965
2024-12-07 16:21:10.360156400,2.745156494140625,-0.199736937880516,0.3189133107662201,0.0567252896726131
2024-12-07 16:21:10.370184000,2.755183837890625,-0.2135853618383407,0.3487406969070434,0.066312663257122
2024-12-07 16:21:10.380211500,2.76521142578125,-0.2029327303171157,0.3806985914707184,0.0695084556937217
2024-12-07 16:21:10.390239000,2.775239013671875,-0.1869537681341171,0.4350270330905914,0.0588558167219162
2024-12-07 16:21:10.400266500,2.7852666015625,-0.1720400750637054,0.5010733604431152,0.0279631707817316
2024-12-07 16:21:10.410294000,2.7952939453125,-0.1656484901905059,0.5458144545555115,-0.0071905297227203
2024-12-07 16:21:10.420321500,2.805321533203125,-0.1773663908243179,0.5671197175979614,-0.0348873846232891
2024-12-07 16:21:10.430349000,2.81534912109375,-0.2029327303171157,0.5777723789215088,-0.0529968664050102
2024-12-07 16:21:10.440376600,2.82537646484375,-0.2391516864299774,0.5841639637947083,-0.071106344461441
2024-12-07 16:21:10.450404000,2.835404052734375,-0.2785664498806,0.5830987095832825,-0.0902810916304588
2024-12-07 16:21:10.460431600,2.845431640625,-0.3201117217540741,0.5745765566825867,-0.098803199827671
2024-12-07 16:21:10.470459100,2.855459228515625,-0.3531349003314972,0.5564671158790588,-0.088150568306446
2024-12-07 16:21:10.480486700,2.865486572265625,-0.3680485785007477,0.5404881238937378,-0.0615189746022224
2024-12-07 16:21:10.490514200,2.87551416015625,-0.3403517305850982,0.5053344368934631,-0.0370179116725921
2024-12-07 16:21:10.500541700,2.885541748046875,-0.276435911655426,0.453136533498764,-0.0263652745634317
2024-12-07 16:21:10.510569200,2.8955693359375,-0.1954758763313293,0.4041343927383423,-0.0274305380880832
2024-12-07 16:21:10.520596700,2.9055966796875,-0.1177116334438324,0.3892207145690918,0.0013315795222297
2024-12-07 16:21:10.530624300,2.915624267578125,-0.0751010850071907,0.4595280885696411,0.092944249510765
2024-12-07 16:21:10.540651800,2.92565185546875,-0.0346210673451423,0.5799028873443604,0.1866874545812606
2024-12-07 16:21:10.550679600,2.935679443359375,0.0367515943944454,0.7151913642883301,0.2314285188913345
2024-12-07 16:21:10.560707000,2.94570703125,0.1091895252466201,0.8536756634712219,0.2016011476516723
2024-12-07 16:21:10.570734600,2.955734619140625,0.1752358675003051,0.925048291683197,0.1419463753700256
2024-12-07 16:21:10.580762000,2.96576220703125,0.2434127479791641,0.9133304357528688,0.1419463753700256
2024-12-07 16:21:10.590789600,2.97578955078125,0.2817622423171997,0.9612672924995422,0.2207758873701095
2024-12-07 16:21:10.600817200,2.985817138671875,0.2924148738384247,1.1402316093444824,0.3741738498210907
2024-12-07 16:21:10.610844700,2.9958447265625,0.3254380524158478,1.2925642728805542,0.5829655528068542
2024-12-07 16:21:10.620872200,3.0058720703125,0.3563306927680969,1.189233660697937,0.8162582516670227
2024-12-07 16:21:10.630900000,3.01589990234375,0.3265033066272735,0.8419577479362488,1.0655299425125122
2024-12-07 16:21:10.640927500,3.025927490234375,0.2498043179512024,0.5564671158790588,1.272191047668457
2024-12-07 16:21:10.650955000,3.035955078125,0.1901495605707168,0.3743070065975189,1.322258472442627
2024-12-07 16:21:10.660982500,3.045982421875,0.1741705983877182,0.3029343485832214,1.1028141975402832
2024-12-07 16:21:10.671010000,3.056010009765625,0.1731053441762924,0.3476754128932953,0.8801741003990173
2024-12-07 16:21:10.681037600,3.06603759765625,0.1528653353452682,0.2880206704139709,0.8876309394836426
2024-12-07 16:21:10.691065000,3.076065185546875,0.088949516415596,0.0877510905265808,0.915327787399292
2024-12-07 16:21:10.701092600,3.086092529296875,0.0442084409296512,-0.0922784656286239,0.802409827709198
2024-12-07 16:21:10.711120400,3.096120361328125,0.0367515943944454,-0.1284974217414856,0.613858163356781
2024-12-07 16:21:10.721148000,3.10614794921875,0.0463389679789543,0.0291615929454565,0.4316980838775635
2024-12-07 16:21:10.731175400,3.116175537109375,0.0591221302747726,0.2624543309211731,0.2804306447505951
2024-12-07 16:21:10.741203000,3.126202880859375,0.1059937328100204,0.4542017877101898,0.1813611388206482
2024-12-07 16:21:10.751230500,3.13623046875,0.2050632536411285,0.5639239549636841,0.1163800507783889
2024-12-07 16:21:10.761258000,3.146258056640625,0.3094590902328491,0.5809681415557861,0.0780305638909339
2024-12-07 16:21:10.771285500,3.156285400390625,0.3755054473876953,0.5170523524284363,0.0609863437712192
2024-12-07 16:21:10.781313000,3.16631298828125,0.4287686049938202,0.4115912318229675,0.0759000331163406
2024-12-07 16:21:10.791340800,3.1763408203125,0.4639223217964172,0.2560627460479736,0.1280979514122009
2024-12-07 16:21:10.801368300,3.186368408203125,0.4862928390502929,0.0621847659349441,0.1973400861024856
2024-12-07 16:21:10.811395800,3.196395751953125,0.4990760087966919,-0.1711079776287078,0.2569948434829712
2024-12-07 16:21:10.821423400,3.20642333984375,0.5033370852470398,-0.4534028470516205,0.3006706535816192
2024-12-07 16:21:10.831451000,3.216450927734375,0.4862928390502929,-0.7186535000801086,0.3656517565250397
2024-12-07 16:21:10.841478400,3.226478515625,0.4362254738807678,-0.8667251467704773,0.460460215806961
2024-12-07 16:21:10.851506000,3.236505859375,0.3627222776412964,-0.901878833770752,0.5456812977790833
2024-12-07 16:21:10.861533400,3.246533447265625,0.287088543176651,-0.8677904009819031,0.5850960612297058
2024-12-07 16:21:10.871561200,3.256561279296875,0.2050632536411285,-0.7420892715454102,0.5765739679336548
2024-12-07 16:21:10.881588700,3.266588623046875,0.1145158410072326,-0.6142576336860657,0.5179844498634338
2024-12-07 16:21:10.891616300,3.2766162109375,0.0133157959207892,-0.5482112765312195,0.4306328296661377
2024-12-07 16:21:10.901643800,3.286643798828125,-0.087884247303009,-0.5130575895309448,0.3464770019054413
2024-12-07 16:21:10.911671300,3.29667138671875,-0.1848232448101043,-0.5162534117698669,0.271908551454544
2024-12-07 16:21:10.921698800,3.30669873046875,-0.2572611570358276,-0.5641902685165405,0.1994706094264984
2024-12-07 16:21:10.931726300,3.316726318359375,-0.2881538271903991,-0.6195839643478394,0.1099884733557701
2024-12-07 16:21:10.941753900,3.32675390625,-0.2711096107959747,-0.6845650672912598,0.0034621069207787
2024-12-07 16:21:10.951781600,3.33678173828125,-0.2221074700355529,-0.7399587631225586,-0.126500055193901
2024-12-07 16:21:10.961809200,3.34680908203125,-0.1603221744298935,-0.7857651114463806,-0.2862896025180816
2024-12-07 16:21:10.971836700,3.356836669921875,-0.104928471148014,-0.8550072312355042,-0.4364917874336242
2024-12-07 16:21:10.981864200,3.3668642578125,-0.0687095075845718,-0.8241145610809326,-0.4929507374763489
2024-12-07 16:21:10.991891700,3.3768916015625,-0.0399473868310451,-0.6962829232215881,-0.4812328517436981
2024-12-07 16:21:11.001919200,3.386919189453125,-0.0047936863265931,-0.5226449966430664,-0.4673844277858734
2024-12-07 16:21:11.011946800,3.39694677734375,0.0601873956620693,-0.3170490860939026,-0.4556665122509002
2024-12-07 16:21:11.021974300,3.406974365234375,0.1379516422748565,-0.1316932141780853,-0.4322307109832763
2024-12-07 16:21:11.032002000,3.417001953125,0.2071937769651413,0.0110521102324128,-0.4087949097156524
2024-12-07 16:21:11.042029600,3.427029541015625,0.2572611570358276,0.1005342528223991,-0.3906854391098022
2024-12-07 16:21:11.052057000,3.43705712890625,0.2838927507400512,0.0909468829631805,-0.3523359596729278
2024-12-07 16:21:11.062084600,3.447084716796875,0.2572611570358276,0.0259658005088567,-0.2884201407432556
2024-12-07 16:21:11.072112000,3.457112060546875,0.1720400750637054,-0.0517984442412853,-0.2245043069124221
2024-12-07 16:21:11.082139600,3.4671396484375,0.0633831843733787,-0.1529984921216964,-0.1531316488981247
2024-12-07 16:21:11.092167200,3.477167236328125,-0.0463389679789543,-0.2382195889949798,-0.0700410827994346
2024-12-07 16:21:11.102194700,3.487194580078125,-0.1454084813594818,-0.2989396154880523,0.0055926339700818
2024-12-07 16:21:11.112222500,3.497222412109375,-0.2082590460777282,-0.3916175365447998,0.0737695097923278
2024-12-07 16:21:11.122250000,3.50725,-0.2178464084863662,-0.4768386483192444,0.1483379602432251
2024-12-07 16:21:11.132277500,3.517277587890625,-0.1464737504720688,-0.5087965726852417,0.2175800949335098
2024-12-07 16:21:11.142305000,3.527304931640625,-0.0442084409296512,-0.4225101768970489,0.2452769577503204
2024-12-07 16:21:11.152332500,3.53733251953125,0.0314252786338329,-0.20093534886837,0.2016011476516723
2024-12-07 16:21:11.162360000,3.547360107421875,0.104928471148014,0.0376837030053138,0.1089232042431831
2024-12-07 16:21:11.172387600,3.5573876953125,0.1336905807256698,0.2081258893013,-0.0039947386831045
2024-12-07 16:21:11.182415000,3.5674150390625,0.0836231932044029,0.2134522050619125,-0.1318263709545135
2024-12-07 16:21:11.192443000,3.57744287109375,0.007989477366209,0.0877510905265808,-0.2777675092220306
2024-12-07 16:21:11.202470400,3.587470458984375,-0.0410126484930515,-0.0677774026989936,-0.4066644012928009
2024-12-07 16:21:11.212498000,3.597497802734375,-0.0410126484930515,-0.2339585274457931,-0.4791023135185241
2024-12-07 16:21:11.222525400,3.607525390625,-0.0069242138415575,-0.3703122735023498,-0.5249086618423462
2024-12-07 16:21:11.232553000,3.617552978515625,0.0527305491268634,-0.4161186218261719,-0.550475001335144
2024-12-07 16:21:11.242580500,3.62758056640625,0.1198421567678451,-0.4480765163898468,-0.5313002467155457
2024-12-07 16:21:11.252608000,3.63760791015625,0.1752358675003051,-0.5087965726852417,-0.4684496819972992
2024-12-07 16:21:11.262635500,3.647635498046875,0.211454838514328,-0.5759081840515137,-0.3768370151519775
2024-12-07 16:21:11.272663300,3.657663330078125,0.221042200922966,-0.6217144727706909,-0.2671148478984833
2024-12-07 16:21:11.282690800,3.66769091796875,0.2050632536411285,-0.6131923794746399,-0.1669800728559494
2024-12-07 16:21:11.292718300,3.67771826171875,0.1645832359790802,-0.5716471076011658,-0.1115863695740699
2024-12-07 16:21:11.302745900,3.687745849609375,0.0974716246128082,-0.5343628525733948,-0.1094558387994766
2024-12-07 16:21:11.312773400,3.6977734375,0.0165115855634212,-0.5215796828269958,-0.1531316488981247
2024-12-07 16:21:11.322801000,3.70780078125,-0.0537958145141601,-0.5631250143051147,-0.2298306375741958
2024-12-07 16:21:11.332828400,3.717828369140625,-0.1027979403734207,-0.6291713118553162,-0.324639081954956
2024-12-07 16:21:11.342856000,3.72785595703125,-0.1304948031902313,-0.6749776601791382,-0.4119907021522522
2024-12-07 16:21:11.352883700,3.7378837890625,-0.1336905807256698,-0.6909566521644592,-0.4737760126590729
2024-12-07 16:21:11.362911200,3.7479111328125,-0.1059937328100204,-0.6781734824180603,-0.5206475853919983
2024-12-07 16:21:11.372938800,3.757938720703125,-0.0452737063169479,-0.616388201713562,-0.5526055097579956
2024-12-07 16:21:11.382966300,3.76796630859375,0.0420779138803482,-0.4960133731365204,-0.5579318404197693
2024-12-07 16:21:11.392993800,3.777993896484375,0.1294295340776443,-0.3415501415729522,-0.5291697382926941
2024-12-07 16:21:11.403021300,3.788021240234375,0.1826927214860916,-0.1806953400373459,-0.4737760126590729
2024-12-07 16:21:11.413048800,3.798048828125,0.1933453530073166,-0.0315584354102611,-0.4119907021522522
2024-12-07 16:21:11.423076600,3.80807666015625,0.1677790284156799,0.0792289823293685,-0.3512706756591797
2024-12-07 16:21:11.433104100,3.818104248046875,0.1123853176832199,0.1601890176534652,-0.3086601495742798
2024-12-07 16:21:11.443131600,3.828131591796875,0.0282294861972332,0.2368880063295364,-0.2884201407432556
2024-12-07 16:21:11.453159400,3.838159423828125,-0.0687095075845718,0.3178480267524719,-0.2713759243488312
2024-12-07 16:21:11.463187000,3.84818701171875,-0.1656484901905059,0.34021857380867,-0.2522011697292328
2024-12-07 16:21:11.473214500,3.85821435546875,-0.2540653645992279,0.3242396116256714,-0.2287653684616089
2024-12-07 16:21:11.483242200,3.8682421875,-0.311589628458023,0.2869553864002228,-0.2138516753911972
2024-12-07 16:21:11.493269800,3.878269775390625,-0.3318296372890472,0.2454101145267486,-0.2053295671939849
2024-12-07 16:21:11.503297300,3.88829736328125,-0.3201117217540741,0.1996037811040878,-0.1957421898841858
2024-12-07 16:21:11.513325000,3.898324951171875,-0.2849580347537994,0.1442100703716278,-0.19467693567276
2024-12-07 16:21:11.523352600,3.9083525390625,-0.2231727391481399,0.0920121446251869,-0.1989379823207855
2024-12-07 16:21:11.533380000,3.918380126953125,-0.143277958035469,0.0568584464490413,-0.2021337747573852
2024-12-07 16:21:11.543407900,3.928407958984375,-0.0591221302747726,0.032357383519411,-0.2074600905179977
2024-12-07 16:21:11.553435400,3.938435302734375,0.0026631590444594,0.0334226451814174,-0.2266348451375961
2024-12-07 16:21:11.563463000,3.948462890625,0.0324905402958393,0.0611195005476474,-0.2436790615320205
2024-12-07 16:21:11.573490700,3.95849072265625,0.0420779138803482,0.0792289823293685,-0.2404832690954208
2024-12-07 16:21:11.583518200,3.968518310546875,0.0410126484930515,0.0952079370617866,-0.2213085144758224
2024-12-07 16:21:11.593545700,3.978545654296875,0.0292947497218847,0.0952079370617866,-0.2106558829545974
2024-12-07 16:21:11.603573500,3.988573486328125,0.0058589498512446,0.0888163596391677,-0.204264298081398
2024-12-07 16:21:11.613601000,3.99860107421875,-0.0346210673451423,0.0664458200335502,-0.1914811432361602
2024-12-07 16:21:11.623628500,4.008628662109375,-0.0814926698803901,0.0568584464490413,-0.1627190262079239
2024-12-07 16:21:11.633656300,4.01865625,-0.1262337416410446,0.0749679282307624,-0.1243695318698883
2024-12-07 16:21:11.643683800,4.028683837890625,-0.1635179668664932,0.0930774137377739,-0.0902810916304588
2024-12-07 16:21:11.653711400,4.03871142578125,-0.1944106072187423,0.1175784766674041,-0.0700410827994346
2024-12-07 16:21:11.663739100,4.0487392578125,-0.2253032624721527,0.1676458716392517,-0.0657800287008285
2024-12-07 16:21:11.673766700,4.0587666015625,-0.2327601015567779,0.2518016993999481,-0.0348873846232891
2024-12-07 16:21:11.683794200,4.068794189453125,-0.2359558939933776,0.3359575271606445,-0.0039947386831045
2024-12-07 16:21:11.693822000,4.078822021484375,-0.2338253706693649,0.4190480709075928,0.0194410607218742
2024-12-07 16:21:11.703849500,4.088849365234375,-0.2253032624721527,0.4840291738510132,0.0450073890388011
2024-12-07 16:21:11.713877000,4.098876953125,-0.2199769467115402,0.5298355221748352,0.066312663257122
2024-12-07 16:21:11.723904500,4.108904541015625,-0.2146506309509277,0.547944962978363,0.0790958255529403
2024-12-07 16:21:11.733932300,4.118932373046875,-0.2146506309509277,0.5436839461326599,0.076965294778347
2024-12-07 16:21:11.743959800,4.128959716796875,-0.2071937769651413,0.4893554747104645,0.066312663257122
2024-12-07 16:21:11.753987300,4.1389873046875,-0.209324300289154,0.4499407410621643,0.0418115966022014
2024-12-07 16:21:11.764015000,4.14901513671875,-0.2146506309509277,0.4627238810062408,0.0023968431632965
2024-12-07 16:21:11.774042600,4.159042724609375,-0.2157158851623535,0.5159870982170105,-0.044474758207798
2024-12-07 16:21:11.784070100,4.169070068359375,-0.2221074700355529,0.6001428961753845,-0.098803199827671
2024-12-07 16:21:11.794098000,4.179097900390625,-0.2189116775989532,0.6704503297805786,-0.1318263709545135
2024-12-07 16:21:11.804125400,4.18912548828125,-0.2231727391481399,0.7333008646965027,-0.1478053331375122
2024-12-07 16:21:11.814153000,4.199153076171875,-0.2274337857961654,0.7588672041893005,-0.1627190262079239
2024-12-07 16:21:11.824180700,4.2091806640625,-0.2263685166835785,0.7450187802314758,-0.1786979734897613
2024-12-07 16:21:11.834208300,4.219208251953125,-0.2199769467115402,0.7237134575843811,-0.193611666560173
2024-12-07 16:21:11.844235800,4.22923583984375,-0.2125200927257537,0.7183871865272522,-0.1957421898841858
2024-12-07 16:21:11.854263600,4.239263671875,-0.2071937769651413,0.727974534034729,-0.1723063886165619
2024-12-07 16:21:11.864291000,4.249291015625,-0.2018674612045288,0.749279797077179,-0.1392832249403
2024-12-07 16:21:11.874318600,4.259318603515625,-0.199736937880516,0.7695198059082031,-0.1126516312360763
2024-12-07 16:21:11.884346400,4.269346435546875,-0.210389569401741,0.7769766449928284,-0.1126516312360763
2024-12-07 16:21:11.894374000,4.279373779296875,-0.2189116775989532,0.7524756193161011,-0.1137168928980827
2024-12-07 16:21:11.904401400,4.2894013671875,-0.2295643091201782,0.7013429403305054,-0.0966726765036583
2024-12-07 16:21:11.914429200,4.29942919921875,-0.2604569494724273,0.6683197617530823,-0.0732368752360344
2024-12-07 16:21:11.924456700,4.309456787109375,-0.2806969583034515,0.6576671600341797,-0.0359526462852954
2024-12-07 16:21:11.934484200,4.319484130859375,-0.276435911655426,0.652340829372406,0.0055926339700818
2024-12-07 16:21:11.944512000,4.329511962890625,-0.2508696019649505,0.6363618969917297,0.0513989701867103
2024-12-07 16:21:11.954539500,4.33953955078125,-0.2157158851623535,0.6086649894714355,0.092944249510765
2024-12-07 16:21:11.964567000,4.349567138671875,-0.1731053441762924,0.5671197175979614,0.1195758432149887
2024-12-07 16:21:11.974594800,4.3595947265625,-0.1198421567678451,0.5362271070480347,0.1302284747362136
2024-12-07 16:21:11.984622300,4.369622314453125,-0.0740358233451843,0.5074649453163147,0.1344895362854004
2024-12-07 16:21:11.994649900,4.37964990234375,-0.0484694950282573,0.4584628343582153,0.1451421678066253
2024-12-07 16:21:12.004677600,4.389677734375,-0.0431431792676448,0.386024922132492,0.1664474457502365
2024-12-07 16:21:12.014705200,4.399705078125,-0.0569916032254695,0.264584869146347,0.2079927325248718
2024-12-07 16:21:12.024732700,4.409732666015625,-0.0910800397396087,0.1261005848646164,0.2942790687084198
2024-12-07 16:21:12.034760400,4.419760498046875,-0.142212688922882,-0.0027963169850409,0.4199801981449127
2024-12-07 16:21:12.044788000,4.4297880859375,-0.1784316599369049,-0.108257420361042,0.5552686452865601
2024-12-07 16:21:12.054815500,4.4398154296875,-0.2008021920919418,-0.2094574570655822,0.6926876902580261
2024-12-07 16:21:12.064843300,4.44984326171875,-0.1965411454439163,-0.3021354079246521,0.8247803449630737
2024-12-07 16:21:12.074870800,4.459870849609375,-0.1677790284156799,-0.379899650812149,0.9558078050613404
2024-12-07 16:21:12.084898300,4.469898193359375,-0.116646371781826,-0.4459459781646728,1.0783131122589111
2024-12-07 16:21:12.094926000,4.479926025390625,-0.0314252786338329,-0.4960133731365204,1.145424723625183
2024-12-07 16:21:12.104953600,4.48995361328125,0.088949516415596,-0.5215796828269958,1.163534164428711
2024-12-07 16:21:12.114981000,4.499981201171875,0.2125200927257537,-0.5748428702354431,1.2466248273849487
2024-12-07 16:21:12.125009000,4.5100087890625,0.2838927507400512,-0.637693464756012,1.3765869140625
2024-12-07 16:21:12.135036400,4.520036376953125,0.3147853910923004,-0.5609944462776184,1.4191974401474
2024-12-07 16:21:12.145064000,4.53006396484375,0.3968107104301452,-0.3511375188827514,1.287104845046997
2024-12-07 16:21:12.155091700,4.540091796875,0.5715139508247375,-0.0123836901038885,0.9675257205963136
2024-12-07 16:21:12.165119200,4.550119140625,0.7760445475578308,0.3881554305553436,0.5435507893562317
2024-12-07 16:21:12.175147000,4.56014697265625,0.820785641670227,0.6235787272453308,0.3059969842433929
2024-12-07 16:21:12.185174500,4.570174560546875,0.662061333656311,0.5660544633865356,0.228232741355896
2024-12-07 16:21:12.195202300,4.580202392578125,0.4308991432189941,0.4478102028369903,0.1877527236938476
2024-12-07 16:21:12.205230000,4.59022998046875,0.2253032624721527,0.2443448454141616,0.170708492398262
2024-12-07 16:21:12.215257600,4.600257568359375,0.0793621391057968,-0.0933437272906303,0.1131842583417892
2024-12-07 16:21:12.225285400,4.610285400390625,-0.023968432098627,-0.4331628382205963,-0.0508663393557071
2024-12-07 16:21:12.235313000,4.62031298828125,-0.076166346669197,-0.5482112765312195,-0.261788547039032
2024-12-07 16:21:12.245340700,4.630340576171875,-0.1177116334438324,-0.3639206886291504,-0.4087949097156524
2024-12-07 16:21:12.255368200,4.6403681640625,-0.1336905807256698,-0.1572595387697219,-0.4450138807296753
2024-12-07 16:21:12.265396000,4.65039599609375,-0.076166346669197,0.0089215831831097,-0.3789675533771515
2024-12-07 16:21:12.275423500,4.660423583984375,0.007989477366209,0.09733846783638,-0.3129211962223053
2024-12-07 16:21:12.285451300,4.670451171875,0.0964063629508018,0.0898816213011741,-0.2969422340393066
2024-12-07 16:21:12.295478800,4.680478759765625,0.1805621832609176,0.0728374049067497,-0.2980075180530548
2024-12-07 16:21:12.305506600,4.690506591796875,0.2487390637397766,0.0941426753997802,-0.2862896025180816
2024-12-07 16:21:12.315534000,4.7005341796875,0.2966759204864502,0.1143826842308044,-0.2458095848560333
2024-12-07 16:21:12.325561900,4.710561767578125,0.3073285520076751,0.084555298089981,-0.1627190262079239
2024-12-07 16:21:12.335589400,4.72058935546875,0.3020022511482239,-0.0241015907377004,-0.0402137041091918
2024-12-07 16:21:12.345617200,4.7306171875,0.2892190814018249,-0.2478069514036178,0.1142495274543762
2024-12-07 16:21:12.355644700,4.740644775390625,0.2604569494724273,-0.5748428702354431,0.2814959287643432
2024-12-07 16:21:12.365672400,4.75067236328125,0.2295643091201782,-0.7420892715454102,0.4434159994125366
2024-12-07 16:21:12.375700200,4.7607001953125,0.1869537681341171,-0.6494113206863403,0.5616602301597595
2024-12-07 16:21:12.385727700,4.770727783203125,0.1624527126550674,-0.4065312445163727,0.635163426399231
2024-12-07 16:21:12.395755500,4.780755615234375,0.1518000662326812,-0.2158490419387817,0.6671213507652283
2024-12-07 16:21:12.405783000,4.790782958984375,0.1272990107536316,-0.2051964104175567,0.6362286806106567
2024-12-07 16:21:12.415810800,4.800810791015625,0.1070589944720268,-0.2786996066570282,0.559529721736908
2024-12-07 16:21:12.425838300,4.81083837890625,0.0996021479368209,-0.323440670967102,0.4636560082435608
2024-12-07 16:21:12.435866000,4.8208662109375,0.1017326787114143,-0.3319627940654754,0.3443464636802673
2024-12-07 16:21:12.445893600,4.8308935546875,0.116646371781826,-0.3937480747699737,0.2207758873701095
2024-12-07 16:21:12.455921400,4.84092138671875,0.1400821655988693,-0.4917523264884949,0.1067926809191703
2024-12-07 16:21:12.465949000,4.850948974609375,0.1901495605707168,-0.6238450407981873,-0.0007989477599039
2024-12-07 16:21:12.475976700,4.860976806640625,0.2689790725708008,-0.7772429585456848,-0.1062600463628768
2024-12-07 16:21:12.486004200,4.871004150390625,0.3882885873317718,-0.8294408917427063,-0.1723063886165619
2024-12-07 16:21:12.496032000,4.881031982421875,0.5118591785430908,-0.8560724854469299,-0.2106558829545974
2024-12-07 16:21:12.506059500,4.8910595703125,0.6130592226982117,-0.872051477432251,-0.2266348451375961
2024-12-07 16:21:12.516087300,4.90108740234375,0.6556697487831116,-0.8006787896156311,-0.1957421898841858
2024-12-07 16:21:12.526115000,4.911114990234375,0.65353924036026,-0.7165229320526123,-0.1616537570953369
2024-12-07 16:21:12.536142600,4.921142578125,0.6322339773178101,-0.6355628967285156,-0.1510011255741119
2024-12-07 16:21:12.546170400,4.93117041015625,0.5896234512329102,-0.600409209728241,-0.1712411344051361
2024-12-07 16:21:12.556198000,4.941197998046875,0.5150549411773682,-0.5780386924743652,-0.204264298081398
2024-12-07 16:21:12.566225700,4.9512255859375,0.4032022953033447,-0.5599291920661926,-0.238352745771408
2024-12-07 16:21:12.576253200,4.961253173828125,0.2593916952610016,-0.6110618710517883,-0.259658008813858
2024-12-07 16:21:12.586281000,4.971281005859375,0.1134505793452262,-0.7495461106300354,-0.2404832690954208
2024-12-07 16:21:12.596308500,4.98130859375,0.0015978955198079,-0.9199883341789246,-0.1755021810531616
2024-12-07 16:21:12.606336300,4.991336181640625,-0.0623179227113723,-1.0137314796447754,-0.1169126853346824
2024-12-07 16:21:12.616363800,5.00136376953125,-0.0900147780776023,-1.0020135641098022,-0.0806937217712402
2024-12-07 16:21:12.626391600,5.0113916015625,-0.0910800397396087,-0.922118842601776,-0.0572579205036163
2024-12-07 16:21:12.636419000,5.021419189453125,-0.077231615781784,-0.8230493068695068,-0.0455400198698043
2024-12-07 16:21:12.646446800,5.03144677734375,-0.0633831843733787,-0.7101313471794128,-0.0487358123064041
2024-12-07 16:21:12.656474400,5.041474365234375,-0.0569916032254695,-0.5567334294319153,-0.0860200375318527
2024-12-07 16:21:12.666502100,5.051502197265625,-0.0633831843733787,-0.3873564898967743,-0.1328916400671005
2024-12-07 16:21:12.676530000,5.061530029296875,-0.0782968774437904,-0.3191796243190765,-0.1424790173768997
2024-12-07 16:21:12.686557400,5.071557373046875,-0.0825579315423965,-0.3202448785305023,-0.1083905771374702
2024-12-07 16:21:12.696585200,5.081585205078125,-0.0527305491268634,-0.2637858986854553,-0.0572579205036163
2024-12-07 16:21:12.706612700,5.09161279296875,0.0292947497218847,-0.0976047813892364,0.0205063242465257
2024-12-07 16:21:12.716640500,5.101640625,0.0857537239789962,0.0291615929454565,0.0428768619894981
2024-12-07 16:21:12.726668000,5.11166796875,0.115581102669239,0.1143826842308044,0.0183757971972227
2024-12-07 16:21:12.736695800,5.12169580078125,0.1241032108664512,0.1324921697378158,-0.0348873846232891
2024-12-07 16:21:12.746723300,5.131723388671875,0.0751010850071907,0.1154479458928108,-0.1201084777712822
2024-12-07 16:21:12.756751000,5.141751220703125,-0.0324905402958393,0.0344879105687141,-0.1968074589967727
2024-12-07 16:21:12.766778600,5.151778564453125,-0.1688442826271057,-0.1370195299386978,-0.2426137924194336
2024-12-07 16:21:12.776806400,5.161806396484375,-0.2775011658668518,-0.3277017176151275,-0.2735064327716827
2024-12-07 16:21:12.786834000,5.171833984375,-0.3584612011909485,-0.4725775718688965,-0.3043990731239319
2024-12-07 16:21:12.796861700,5.18186181640625,-0.4106591343879699,-0.5450155138969421,-0.3438138365745544
2024-12-07 16:21:12.806889200,5.19188916015625,-0.4159854650497436,-0.5460807681083679,-0.3779022693634033
2024-12-07 16:21:12.816917000,5.2019169921875,-0.3584612011909485,-0.4896217882633209,-0.3885549008846283
2024-12-07 16:21:12.826944500,5.211944580078125,-0.2625874876976013,-0.3916175365447998,-0.391750693321228
2024-12-07 16:21:12.836972300,5.22197216796875,-0.1635179668664932,-0.2414153665304184,-0.3992075622081756
2024-12-07 16:21:12.847000000,5.232,-0.0782968774437904,-0.0347542278468608,-0.4034686088562011
2024-12-07 16:21:12.857027600,5.242027587890625,-0.0069242138415575,0.1857553422451019,-0.3928159773349762
2024-12-07 16:21:12.867055400,5.252055419921875,0.0474042333662509,0.3327617347240448,-0.3619233071804046
2024-12-07 16:21:12.877083000,5.262082763671875,0.0548610761761665,0.3540669977664947,-0.3331612050533294
2024-12-07 16:21:12.887110700,5.272110595703125,0.0165115855634212,0.3103911876678467,-0.3193127810955047
2024-12-07 16:21:12.897138200,5.28213818359375,-0.0335558056831359,0.2603237926959991,-0.3214432895183563
2024-12-07 16:21:12.907166000,5.292166015625,-0.0814926698803901,0.2273006290197372,-0.3278348743915558
2024-12-07 16:21:12.917193500,5.302193359375,-0.1198421567678451,0.2358227372169494,-0.3406180441379547
2024-12-07 16:21:12.927221200,5.31222119140625,-0.132625326514244,0.3146522343158722,-0.3640538454055786
2024-12-07 16:21:12.937248800,5.322248779296875,-0.1177116334438324,0.4350270330905914,-0.3896201848983764
2024-12-07 16:21:12.947276500,5.332276611328125,-0.0900147780776023,0.5372923612594604,-0.4055991172790527
2024-12-07 16:21:12.957304000,5.342303955078125,-0.0548610761761665,0.606534481048584,-0.4162517786026001
2024-12-07 16:21:12.967331800,5.352331787109375,-0.0303600132465362,0.6800376772880554,-0.4226433634757995
2024-12-07 16:21:12.977359600,5.362359619140625,-0.0271642226725816,0.7375619411468506,-0.4183822870254516
2024-12-07 16:21:12.987387100,5.37238720703125,-0.0431431792676448,0.7556713819503784,-0.391750693321228
2024-12-07 16:21:12.997415000,5.382414794921875,-0.0751010850071907,0.7258440256118774,-0.3427485823631286
2024-12-07 16:21:13.007442700,5.392442626953125,-0.115581102669239,0.643818736076355,-0.2798980176448822
2024-12-07 16:21:13.017470500,5.402470458984375,-0.1486042737960815,0.5362271070480347,-0.2277000993490219
2024-12-07 16:21:13.027498000,5.412498046875,-0.1688442826271057,0.4094607234001159,-0.2063948363065719
2024-12-07 16:21:13.037525800,5.42252587890625,-0.1752358675003051,0.2880206704139709,-0.2031990438699722
2024-12-07 16:21:13.047553500,5.432553466796875,-0.1635179668664932,0.1868206113576889,-0.2021337747573852
2024-12-07 16:21:13.057581300,5.442581298828125,-0.1262337416410446,0.1175784766674041,-0.192546397447586
2024-12-07 16:21:13.067608800,5.45260888671875,-0.076166346669197,0.0653805583715438,-0.1893506050109863
2024-12-07 16:21:13.077636600,5.46263671875,-0.0335558056831359,0.0387489646673202,-0.1968074589967727
2024-12-07 16:21:13.087664400,5.472664306640625,-0.0058589498512446,0.0451405458152294,-0.2074600905179977
2024-12-07 16:21:13.097692200,5.482692138671875,0.010120004415512,0.0568584464490413,-0.2063948363065719
2024-12-07 16:21:13.107719700,5.4927197265625,0.0122505314648151,0.0653805583715438,-0.2000032514333725
2024-12-07 16:21:13.117747500,5.50274755859375,0.0026631590444594,0.0760331898927688,-0.1989379823207855
2024-12-07 16:21:13.127775200,5.512775146484375,-0.0143810594454407,0.0792289823293685,-0.204264298081398
2024-12-07 16:21:13.137802800,5.522802734375,-0.0367515943944454,0.0866858288645744,-0.2149169445037841
2024-12-07 16:21:13.147830500,5.53283056640625,-0.0591221302747726,0.1218395307660102,-0.2159821987152099
2024-12-07 16:21:13.157858300,5.5428583984375,-0.0900147780776023,0.163384810090065,-0.2255695760250091
2024-12-07 16:21:13.167886000,5.552885986328125,-0.0985368862748146,0.163384810090065,-0.2085253596305847
2024-12-07 16:21:13.177913600,5.56291357421875,-0.1134505793452262,0.1186437383294105,-0.1797632426023483
2024-12-07 16:21:13.187941400,5.57294140625,-0.1475390195846557,0.1069258376955986,-0.1648495495319366
2024-12-07 16:21:13.197969200,5.58296923828125,-0.1688442826271057,0.1303616315126419,-0.1414137482643127
2024-12-07 16:21:13.207997000,5.592996826171875,-0.1901495605707168,0.1612542867660522,-0.1243695318698883
2024-12-07 16:21:13.218024400,5.6030244140625,-0.210389569401741,0.2038648277521133,-0.1233042627573013
2024-12-07 16:21:13.228052200,5.61305224609375,-0.2231727391481399,0.2549974918365478,-0.1328916400671005
2024-12-07 16:21:13.238080000,5.623080078125,-0.2263685166835785,0.3008038103580475,-0.1339569091796875
2024-12-07 16:21:13.248107800,5.633107666015625,-0.2231727391481399,0.3380880355834961,-0.1190432086586952
2024-12-07 16:21:13.258135300,5.64313525390625,-0.2125200927257537,0.3711112141609192,-0.0977379381656646
2024-12-07 16:21:13.268163000,5.6531630859375,-0.1922800838947296,0.4222438633441925,-0.0774979293346405
2024-12-07 16:21:13.278190800,5.66319091796875,-0.1709748208522796,0.4914860129356384,-0.060453712940216
2024-12-07 16:21:13.288218400,5.67321826171875,-0.1731053441762924,0.5873597264289856,-0.0561926588416099
2024-12-07 16:21:13.298246100,5.68324609375,-0.1624527126550674,0.6683197617530823,-0.0487358123064041
2024-12-07 16:21:13.308274000,5.69327392578125,-0.1475390195846557,0.7226482033729553,-0.0359526462852954
2024-12-07 16:21:13.318301700,5.7033017578125,-0.1507348120212555,0.7833682298660278,-0.0295610651373863
2024-12-07 16:21:13.328329200,5.7133291015625,-0.1581916511058807,0.8078693151473999,-0.0231694839894771
2024-12-07 16:21:13.338357000,5.72335693359375,-0.1752358675003051,0.7748461365699768,-0.030626330524683
2024-12-07 16:21:13.348384800,5.733384765625,-0.1965411454439163,0.7151913642883301,-0.0434094928205013
2024-12-07 16:21:13.358412500,5.74341259765625,-0.2189116775989532,0.6597976684570312,-0.0434094928205013
2024-12-07 16:21:13.368440000,5.753440185546875,-0.2370211631059646,0.6044039726257324,-0.0348873846232891
2024-12-07 16:21:13.378467800,5.7634677734375,-0.2476737946271896,0.5468797087669373,-0.030626330524683
2024-12-07 16:21:13.388495600,5.77349560546875,-0.2519348561763763,0.4904207587242126,-0.0316915921866893
2024-12-07 16:21:13.398523400,5.7835234375,-0.2487390637397766,0.4520712494850158,-0.0455400198698043
2024-12-07 16:21:13.408551000,5.793551025390625,-0.2391516864299774,0.4467449486255646,-0.0657800287008285
2024-12-07 16:21:13.418578700,5.80357861328125,-0.2008021920919418,0.463789165019989,-0.088150568306446
2024-12-07 16:21:13.428606500,5.8136064453125,-0.1773663908243179,0.5127912759780884,-0.1211737394332885
2024-12-07 16:21:13.438634200,5.82363427734375,-0.1635179668664932,0.5564671158790588,-0.1510011255741119
2024-12-07 16:21:13.448661800,5.833661865234375,-0.154995858669281,0.5724460482597351,-0.1637842804193496
2024-12-07 16:21:13.458689500,5.843689453125,-0.1528653353452682,0.5426186919212341,-0.1605884879827499
2024-12-07 16:21:13.468717300,5.85371728515625,-0.1603221744298935,0.4648544192314148,-0.1595232337713241
2024-12-07 16:21:13.478744800,5.863744873046875,-0.1858884990215301,0.3625891208648681,-0.1520663797855377
2024-12-07 16:21:13.488772600,5.873772705078125,-0.1976063996553421,0.2635195851325989,-0.1190432086586952
2024-12-07 16:21:13.498800400,5.88380029296875,-0.2167811542749405,0.1964079886674881,-0.0966726765036583
2024-12-07 16:21:13.508828200,5.893828125,-0.2434127479791641,0.1591237634420395,-0.098803199827671
2024-12-07 16:21:13.518855700,5.903855712890625,-0.2593916952610016,0.1484711170196533,-0.110521100461483
2024-12-07 16:21:13.528883500,5.913883544921875,-0.2380864173173904,0.1932121962308883,-0.1467400640249252
2024-12-07 16:21:13.538911200,5.9239111328125,-0.1869537681341171,0.2880206704139709,-0.2031990438699722
2024-12-07 16:21:13.548939000,5.93393896484375,-0.1518000662326812,0.3199785649776459,-0.2063948363065719
2024-12-07 16:21:13.558966500,5.943966552734375,-0.1347558498382568,0.2496711611747741,-0.1701758652925491
2024-12-07 16:21:13.568994300,5.953994384765625,-0.0846884623169899,0.1229047924280166,-0.1573926955461502
2024-12-07 16:21:13.579022000,5.96402197265625,-0.0037284228019416,-0.04114580899477,-0.0817589834332466
2024-12-07 16:21:13.589049900,5.9740498046875,0.0420779138803482,-0.3724428117275238,0.1994706094264984
2024-12-07 16:21:13.599077400,5.984077392578125,-0.0133157959207892,-0.6707166433334351,0.5233107805252075
2024-12-07 16:21:13.609105200,5.994105224609375,-0.1006674170494079,-0.7570029497146606,0.5179844498634338
2024-12-07 16:21:13.619133000,6.0041328125,-0.1027979403734207,-0.6291713118553162,0.293213814496994
2024-12-07 16:21:13.629160700,6.01416064453125,0.0026631590444594,-0.3916175365447998,0.226102203130722
2024-12-07 16:21:13.639188200,6.024188232421875,0.1059937328100204,-0.1774995476007461,0.3869570195674896
2024-12-07 16:21:13.649216000,6.034216064453125,0.154995858669281,-0.0177100077271461,0.5478118062019348
2024-12-07 16:21:13.659243800,6.044243896484375,0.1773663908243179,0.096273198723793,0.5669865608215332
2024-12-07 16:21:13.669271300,6.054271240234375,0.1805621832609176,0.1186437383294105,0.5339633822441101
2024-12-07 16:21:13.679299000,6.064299072265625,0.2018674612045288,0.0547279193997383,0.4753738939762115
2024-12-07 16:21:13.689326800,6.074326904296875,0.2561959028244018,-0.0603205524384975,0.3358243703842163
2024-12-07 16:21:13.699354600,6.084354736328125,0.311589628458023,-0.1327584832906723,0.1621863842010498
2024-12-07 16:21:13.709382100,6.094382080078125,0.3201117217540741,-0.0869521424174308,0.0641821324825286
2024-12-07 16:21:13.719410000,6.104409912109375,0.2689790725708008,-0.0656468719244003,0.0492684431374073
2024-12-07 16:21:13.729437700,6.114437744140625,0.1858884990215301,-0.108257420361042,0.0876179337501525
2024-12-07 16:21:13.739465500,6.124465576171875,0.1038632020354271,-0.1934785097837448,0.1408811211585998
2024-12-07 16:21:13.749493000,6.134492919921875,0.0537958145141601,-0.3191796243190765,0.1888179779052734
2024-12-07 16:21:13.759520800,6.144520751953125,0.0346210673451423,-0.4203796684741974,0.237820103764534
2024-12-07 16:21:13.769548500,6.154548583984375,-0.0005326318205334,-0.4352933466434479,0.2868222296237945
2024-12-07 16:21:13.779576300,6.164576416015625,-0.023968432098627,-0.3628554344177246,0.3336938321590423
2024-12-07 16:21:13.789603800,6.174603759765625,0.0111852679401636,-0.2179795652627945,0.3858917653560638
2024-12-07 16:21:13.799631600,6.184631591796875,0.0900147780776023,-0.0720384567975997,0.4391549229621887
2024-12-07 16:21:13.809659400,6.194659423828125,0.1901495605707168,-0.0006657897611148,0.4934833943843841
2024-12-07 16:21:13.819687000,6.20468701171875,0.2945453822612762,-0.0400805436074733,0.5328981280326843
2024-12-07 16:21:13.829714700,6.214714599609375,0.4095938801765442,-0.0837563574314117,0.6064013242721558
2024-12-07 16:21:13.839742500,6.224742431640625,0.4958802163600921,-0.09653951972723,0.689491868019104
2024-12-07 16:21:13.849770200,6.234770263671875,0.5608612895011902,-0.1540637612342834,0.7171887755393982
2024-12-07 16:21:13.859797800,6.2447978515625,0.6205160617828369,-0.1924132406711578,0.7044056057929993
2024-12-07 16:21:13.869825500,6.254825439453125,0.6673876643180847,-0.2499374747276306,0.6671213507652283
2024-12-07 16:21:13.879853300,6.264853271484375,0.6844319105148315,-0.3969438672065735,0.6106624007225037
2024-12-07 16:21:13.889881000,6.274881103515625,0.6503434777259827,-0.6174534559249878,0.5424855351448059
2024-12-07 16:21:13.899908600,6.28490869140625,0.5672528743743896,-0.7878956198692322,0.4892223179340362
2024-12-07 16:21:13.909936400,6.294936279296875,0.4554001986980438,-0.7996135354042053,0.4466117918491363
2024-12-07 16:21:13.919964200,6.304964111328125,0.343547523021698,-0.6792387366294861,0.3677822649478912
2024-12-07 16:21:13.929992000,6.314991943359375,0.221042200922966,-0.4832302331924438,0.2388853728771209
2024-12-07 16:21:13.940019500,6.32501953125,0.0729705616831779,-0.4534028470516205,0.0684431865811348
2024-12-07 16:21:13.950047200,6.335047119140625,-0.0399473868310451,-0.5737776160240173,-0.0700410827994346
2024-12-07 16:21:13.960075000,6.345074951171875,-0.1059937328100204,-0.692021906375885,-0.1328916400671005
2024-12-07 16:21:13.970102800,6.355102783203125,-0.1411474347114563,-0.7687208652496338,-0.1467400640249252
2024-12-07 16:21:13.980130300,6.36513037109375,-0.1475390195846557,-0.7953524589538574,-0.1510011255741119
2024-12-07 16:21:13.990158000,6.375157958984375,-0.1283642649650573,-0.8038745522499084,-0.1510011255741119
2024-12-07 16:21:14.000185900,6.385185791015625,-0.0910800397396087,-0.8230493068695068,-0.1456748098134994
2024-12-07 16:21:14.010213400,6.39521337890625,-0.0537958145141601,-0.7996135354042053,-0.1840242892503738
2024-12-07 16:21:14.020241200,6.4052412109375,-0.0207726415246725,-0.6984134912490845,-0.2767022252082824
2024-12-07 16:21:14.030269000,6.41526904296875,0.010120004415512,-0.5141228437423706,-0.3757717609405517
2024-12-07 16:21:14.040296700,6.425296630859375,0.0463389679789543,-0.3372890949249267,-0.4332959949970245
2024-12-07 16:21:14.050324200,6.43532421875,0.1113200485706329,-0.2573943138122558,-0.4162517786026001
2024-12-07 16:21:14.060352000,6.44535205078125,0.1880190372467041,-0.2733732759952545,-0.3299654126167297
2024-12-07 16:21:14.070379800,6.4553798828125,0.2167811542749405,-0.314918577671051,-0.249005377292633
2024-12-07 16:21:14.080407600,6.465407470703125,0.2061285078525543,-0.1892174482345581,-0.1691105961799621
2024-12-07 16:21:14.090435000,6.47543505859375,0.199736937880516,-0.0017310534603893,-0.0945421457290649
2024-12-07 16:21:14.100462800,6.485462890625,0.1560611277818679,0.0003994738799519,-0.0796284601092338
2024-12-07 16:21:14.110490600,6.49549072265625,0.0644484534859657,-0.0475373901426792,-0.1350221633911132
2024-12-07 16:21:14.120518400,6.505518310546875,-0.049534760415554,-0.09653951972723,-0.2181127369403839
2024-12-07 16:21:14.130546000,6.5155458984375,-0.1869537681341171,-0.2286322116851806,-0.2660495936870575
2024-12-07 16:21:14.140573700,6.52557373046875,-0.2966759204864502,-0.4704470634460449,-0.2607232630252838
2024-12-07 16:21:14.150601500,6.5356015625,-0.3478085696697235,-0.6344976425170898,-0.1797632426023483
2024-12-07 16:21:14.160629200,6.545629150390625,-0.3307643532752991,-0.6792387366294861,-0.0370179116725921
2024-12-07 16:21:14.170657000,6.555656982421875,-0.2753706574440002,-0.6153228878974915,0.1376853287220001
2024-12-07 16:21:14.180684800,6.565684814453125,-0.2157158851623535,-0.4853607416152954,0.3028011918067932
2024-12-07 16:21:14.190712600,6.575712646484375,-0.1656484901905059,-0.3596596419811249,0.4231759905815124
2024-12-07 16:21:14.200740400,6.585740234375,-0.1379516422748565,-0.3010701239109039,0.4221107065677643
2024-12-07 16:21:14.210768100,6.59576806640625,-0.1006674170494079,-0.246741697192192,0.2814959287643432
2024-12-07 16:21:14.220796000,6.6057958984375,-0.0229031685739755,-0.1380847990512848,0.0950747802853584
2024-12-07 16:21:14.230823700,6.61582373046875,0.0719052925705909,-0.0464721247553825,-0.1179779469966888
2024-12-07 16:21:14.240851500,6.6258515625,0.1304948031902313,-0.0315584354102611,-0.3555317521095276
2024-12-07 16:21:14.250879200,6.635879150390625,0.1251684725284576,-0.1444763839244842,-0.5334307551383972
2024-12-07 16:21:14.260907000,6.645906982421875,0.0921453014016151,-0.3404848873615265,-0.6229129433631897
2024-12-07 16:21:14.270934800,6.655934814453125,0.0388821214437484,-0.5503418445587158,-0.638891875743866
2024-12-07 16:21:14.280962600,6.665962646484375,-0.0324905402958393,-0.6344976425170898,-0.5707150101661682
2024-12-07 16:21:14.290990300,6.675990234375,-0.0910800397396087,-0.5322323441505432,-0.4322307109832763
2024-12-07 16:21:14.301017900,6.686017822265625,-0.1464737504720688,-0.3383543491363525,-0.2905506491661072
2024-12-07 16:21:14.311045600,6.696045654296875,-0.199736937880516,-0.1519332230091095,-0.1978727281093597
2024-12-07 16:21:14.321073400,6.706073486328125,-0.2530001103878021,-0.0027963169850409,-0.1755021810531616
2024-12-07 16:21:14.331101200,6.71610107421875,-0.2700443267822265,0.0451405458152294,-0.1914811432361602
2024-12-07 16:21:14.341129000,6.72612890625,-0.2785664498806,-0.0230363253504037,-0.2277000993490219
2024-12-07 16:21:14.351156700,6.73615673828125,-0.3510043621063232,-0.1157142594456672,-0.2628538012504577
2024-12-07 16:21:14.361184500,6.7461845703125,-0.4404865205287933,-0.2137185186147689,-0.2735064327716827
2024-12-07 16:21:14.371212300,6.75621240234375,-0.4681833684444427,-0.3106575012207031,-0.259658008813858
2024-12-07 16:21:14.381240000,6.766239990234375,-0.4170507192611694,-0.3767038583755493,-0.249005377292633
2024-12-07 16:21:14.391267800,6.776267822265625,-0.3073285520076751,-0.3948133289813995,-0.2575274705886841
2024-12-07 16:21:14.401295600,6.786295654296875,-0.1688442826271057,-0.3617901504039764,-0.2788327634334564
2024-12-07 16:21:14.411323400,6.796323486328125,-0.0367515943944454,-0.336223840713501,-0.2990727722644806
2024-12-07 16:21:14.421351200,6.80635107421875,0.061252661049366,-0.334093302488327,-0.3150517344474792
2024-12-07 16:21:14.431379000,6.81637890625,0.1304948031902313,-0.3181143403053283,-0.3171822428703308
2024-12-07 16:21:14.441406700,6.82640673828125,0.1635179668664932,-0.2723080217838287,-0.3022685647010803
2024-12-07 16:21:14.451434500,6.8364345703125,0.1592569202184677,-0.2083922028541565,-0.280963271856308
2024-12-07 16:21:14.461462000,6.8464619140625,0.1209074258804321,-0.1274321675300598,-0.2532664239406585
2024-12-07 16:21:14.471489800,6.85648974609375,0.0559263415634632,-0.0496679171919822,-0.2234390527009964
2024-12-07 16:21:14.481517600,6.866517578125,-0.0250336956232786,-0.0059921080246567,-0.192546397447586
2024-12-07 16:21:14.491545300,6.87654541015625,-0.1198421567678451,0.0494015999138355,-0.1552621722221374
2024-12-07 16:21:14.501573000,6.886572998046875,-0.1933453530073166,0.1197089999914169,-0.1286305785179138
2024-12-07 16:21:14.511601000,6.896600830078125,-0.2476737946271896,0.1996037811040878,-0.1254348009824752
2024-12-07 16:21:14.521628700,6.906628662109375,-0.2796317040920257,0.3050648868083954,-0.1350221633911132
2024-12-07 16:21:14.531656400,6.916656494140625,-0.2966759204864502,0.4201133549213409,-0.1541969180107116
2024-12-07 16:21:14.541684200,6.926684326171875,-0.2998717129230499,0.5287702679634094,-0.1701758652925491
2024-12-07 16:21:14.551712000,6.9367119140625,-0.2934801280498504,0.6193176507949829,-0.1712411344051361
2024-12-07 16:21:14.561739800,6.94673974609375,-0.2732401192188263,0.6597976684570312,-0.1499358564615249
2024-12-07 16:21:14.571767600,6.956767578125,-0.2540653645992279,0.6864292621612549,-0.1254348009824752
2024-12-07 16:21:14.581795300,6.96679541015625,-0.221042200922966,0.6864292621612549,-0.1233042627573013
2024-12-07 16:21:14.591823000,6.976822998046875,-0.1890842914581298,0.7056040167808533,-0.1478053331375122
2024-12-07 16:21:14.601851000,6.986850830078125,-0.1858884990215301,0.7258440256118774,-0.1808284968137741
2024-12-07 16:21:14.611878700,6.996878662109375,-0.198671668767929,0.7450187802314758,-0.192546397447586
2024-12-07 16:21:14.621906400,7.006906494140625,-0.2061285078525543,0.7844334840774536,-0.1861548274755478
2024-12-07 16:21:14.631934000,7.016933837890625,-0.2039979845285415,0.8632630109786987,-0.1861548274755478
2024-12-07 16:21:14.641961700,7.026961669921875,-0.1933453530073166,0.9847030639648438,-0.2085253596305847
2024-12-07 16:21:14.651989500,7.036989501953125,-0.1773663908243179,1.1072083711624146,-0.2543317079544067
2024-12-07 16:21:14.662017300,7.047017333984375,-0.1784316599369049,1.2169305086135864,-0.3118559420108795
2024-12-07 16:21:14.672045000,7.057045166015625,-0.210389569401741,1.2659326791763306,-0.3597927987575531
2024-12-07 16:21:14.682072800,7.06707275390625,-0.2530001103878021,1.2233221530914309,-0.3597927987575531
2024-12-07 16:21:14.692100600,7.0771005859375,-0.2849580347537994,1.10081684589386,-0.3342264592647552
2024-12-07 16:21:14.702128400,7.08712841796875,-0.3265033066272735,0.9463536143302916,-0.3448790907859802
2024-12-07 16:21:14.712156200,7.09715625,-0.3936149179935455,0.8302398324012756,-0.372575968503952
2024-12-07 16:21:14.722184000,7.107183837890625,-0.456465482711792,0.7663240432739258,-0.3342264592647552
2024-12-07 16:21:14.732211700,7.117211669921875,-0.4830970466136932,0.6246439814567566,-0.2031990438699722
2024-12-07 16:21:14.742239500,7.127239501953125,-0.4735096991062164,0.3689807057380676,-0.0924116224050521
2024-12-07 16:21:14.752267300,7.137267333984375,-0.4372907280921936,0.0707068741321563,-0.0263652745634317
2024-12-07 16:21:14.762295000,7.147294921875,-0.3850927948951721,-0.0933437272906303,0.0215715896338224
2024-12-07 16:21:14.772322800,7.15732275390625,-0.3020022511482239,-0.0720384567975997,0.0279631707817316
2024-12-07 16:21:14.782350600,7.1673505859375,-0.1826927214860916,-0.0230363253504037,0.0641821324825286
2024-12-07 16:21:14.792378000,7.177378173828125,-0.0708400309085846,0.0131826372817158,0.1515337526798248
2024-12-07 16:21:14.802406000,7.187406005859375,0.0015978955198079,0.0387489646673202,0.2548643350601196
2024-12-07 16:21:14.812433700,7.19743359375,0.0537958145141601,0.0494015999138355,0.3358243703842163
2024-12-07 16:21:14.822461400,7.20746142578125,0.1081242561340332,0.0067910556681454,0.3890875577926636
2024-12-07 16:21:14.832489200,7.2174892578125,0.1283642649650573,-0.0816258266568183,0.4615254700183868
2024-12-07 16:21:14.842517000,7.22751708984375,0.0900147780776023,-0.1828258782625198,0.5328981280326843
2024-12-07 16:21:14.852544800,7.237544677734375,0.049534760415554,-0.2360890507698059,0.5339633822441101
2024-12-07 16:21:14.862572500,7.247572509765625,0.0814926698803901,-0.1593900769948959,0.4519380927085876
2024-12-07 16:21:14.872600300,7.257600341796875,0.1464737504720688,0.0494015999138355,0.3315632939338684
2024-12-07 16:21:14.882628000,7.267628173828125,0.2061285078525543,0.2155827283859253,0.1984053552150726
2024-12-07 16:21:14.892655900,7.27765576171875,0.2402169555425644,0.2283658981323242,0.0631168708205223
2024-12-07 16:21:14.902683600,7.28768359375,0.2860232889652252,0.1111868917942047,-0.0679105594754219
2024-12-07 16:21:14.912711400,7.29771142578125,0.3456780612468719,-0.0209057983011007,-0.1520663797855377
2024-12-07 16:21:14.922739200,7.3077392578125,0.3744401633739471,-0.1114532053470611,-0.1680453419685363
2024-12-07 16:21:14.932767000,7.31776708984375,0.3467433154582977,-0.14554163813591,-0.127565324306488
2024-12-07 16:21:14.942794800,7.327794677734375,0.2934801280498504,-0.146606907248497,-0.0561926588416099
2024-12-07 16:21:14.952822300,7.337822265625,0.2444780021905899,-0.1391500681638717,0.0556600242853164
2024-12-07 16:21:14.962850000,7.34785009765625,0.210389569401741,-0.12423637509346,0.1802958697080612
2024-12-07 16:21:14.972877800,7.3578779296875,0.1965411454439163,-0.0848216190934181,0.293213814496994
2024-12-07 16:21:14.982905600,7.367905517578125,0.1837579756975174,-0.0560594983398914,0.3976096510887146
2024-12-07 16:21:14.992933400,7.377933349609375,0.1816274523735046,-0.0645816102623939,0.492418110370636
2024-12-07 16:21:15.002961200,7.387961181640625,0.198671668767929,-0.0986700430512428,0.5488771200180054
2024-12-07 16:21:15.012989000,7.397989013671875,0.2316948473453521,-0.1263668984174728,0.559529721736908
2024-12-07 16:21:15.023016700,7.4080166015625,0.2817622423171997,-0.133823737502098,0.5169191956520081
2024-12-07 16:21:15.033044500,7.41804443359375,0.3584612011909485,-0.1157142594456672,0.4285022914409637
2024-12-07 16:21:15.043072300,7.428072265625,0.4735096991062164,-0.0017310534603893,0.3454117476940155
2024-12-07 16:21:15.053100000,7.43810009765625,0.6194508075714111,0.1751027107238769,0.2772348523139953
2024-12-07 16:21:15.063127800,7.4481279296875,0.7760445475578308,0.34021857380867,0.2548643350601196
2024-12-07 16:21:15.073155600,7.458155517578125,0.9060067534446716,0.3327617347240448,0.2814959287643432
2024-12-07 16:21:15.083183400,7.468183349609375,0.9816404581069946,0.1218395307660102,0.3518033027648926
2024-12-07 16:21:15.093211100,7.478211181640625,0.9731183648109436,-0.2733732759952545,0.4135886132717132
2024-12-07 16:21:15.103239000,7.488239013671875,0.9017456769943236,-0.5599291920661926,0.5052012801170349
2024-12-07 16:21:15.113266700,7.4982666015625,0.7920235395431519,-0.7261103391647339,0.5797697305679321
2024-12-07 16:21:15.123294200,7.508294189453125,0.662061333656311,-0.7900261282920837,0.5872265696525574
2024-12-07 16:21:15.133322000,7.518322021484375,0.5352949500083923,-0.7484808564186096,0.5190497040748596
2024-12-07 16:21:15.143349800,7.528349853515625,0.4170507192611694,-0.6579334735870361,0.416784405708313
2024-12-07 16:21:15.153377500,7.53837744140625,0.3179811835289001,-0.5993439555168152,0.3336938321590423
2024-12-07 16:21:15.163405300,7.5484052734375,0.2583264410495758,-0.587626039981842,0.3177148699760437
2024-12-07 16:21:15.173433000,7.55843310546875,0.2135853618383407,-0.6440850496292114,0.347542256116867
2024-12-07 16:21:15.183460900,7.5684609375,0.132625326514244,-0.7016092538833618,0.3848264813423157
2024-12-07 16:21:15.193488600,7.578488525390625,0.0484694950282573,-0.7356976866722107,0.3720433413982391
2024-12-07 16:21:15.203516400,7.588516357421875,-0.0037284228019416,-0.7538071870803833,0.3049317300319671
2024-12-07 16:21:15.213544200,7.598544189453125,-0.0282294861972332,-0.7388935089111328,0.2143843024969101
2024-12-07 16:21:15.223572000,7.608572021484375,-0.037816859781742,-0.683499813079834,0.0908137261867523
2024-12-07 16:21:15.233599700,7.618599853515625,-0.0335558056831359,-0.6558029055595398,-0.0284958016127347
2024-12-07 16:21:15.243627500,7.62862744140625,-0.0420779138803482,-0.7186535000801086,-0.0892158299684524
2024-12-07 16:21:15.253655300,7.6386552734375,-0.0708400309085846,-0.843289315700531,-0.0774979293346405
2024-12-07 16:21:15.263683000,7.64868310546875,-0.1251684725284576,-0.9274451732635498,-0.0199736934155225
2024-12-07 16:21:15.273710800,7.6587109375,-0.1624527126550674,-0.889095664024353,0.0354200154542923
2024-12-07 16:21:15.283738400,7.66873828125,-0.1603221744298935,-0.7239798307418823,0.0599210783839225
2024-12-07 16:21:15.293766100,7.67876611328125,-0.142212688922882,-0.5311670899391174,0.0737695097923278
2024-12-07 16:21:15.303794000,7.6887939453125,-0.1059937328100204,-0.2946785688400268,0.1014663651585578
2024-12-07 16:21:15.313822000,7.698822021484375,0.0633831843733787,0.0067910556681454,0.1067926809191703
2024-12-07 16:21:15.323849700,7.708849609375,0.2924148738384247,0.2283658981323242,0.0844221413135528
2024-12-07 16:21:15.333877500,7.71887744140625,0.3914843797683716,0.4318312406539917,0.0066578979603946
2024-12-07 16:21:15.343905300,7.7289052734375,0.3829622864723205,0.576707124710083,-0.1659148186445236
2024-12-07 16:21:15.353933000,7.73893310546875,0.2892190814018249,0.5127912759780884,-0.3502054214477539
2024-12-07 16:21:15.363960800,7.7489609375,0.1187768951058387,0.2059953510761261,-0.4428833723068237
2024-12-07 16:21:15.373988600,7.758988525390625,-0.1198421567678451,-0.1689774394035339,-0.448209673166275
2024-12-07 16:21:15.384016600,7.7690166015625,-0.3808317482471466,-0.4480765163898468,-0.4460791349411011
2024-12-07 16:21:15.394044400,7.77904443359375,-0.5534044504165649,-0.6110618710517883,-0.4386222958564758
2024-12-07 16:21:15.404072200,7.789072265625,-0.5949497222900391,-0.5918871164321899,-0.3949464857578277
2024-12-07 16:21:15.414100000,7.799099853515625,-0.5438171029090881,-0.4278365075588226,-0.3512706756591797
2024-12-07 16:21:15.424127700,7.809127685546875,-0.456465482711792,-0.2648511826992035,-0.3150517344474792
2024-12-07 16:21:15.434155500,7.819155517578125,-0.335025429725647,-0.1306279599666595,-0.2564622163772583
2024-12-07 16:21:15.444183300,7.829183349609375,-0.1816274523735046,0.0249005369842052,-0.1755021810531616
2024-12-07 16:21:15.454211300,7.83921142578125,-0.0250336956232786,0.2262353599071502,-0.0870852991938591
2024-12-07 16:21:15.464239000,7.849239013671875,0.0836231932044029,0.4456796646118164,-0.0007989477599039
2024-12-07 16:21:15.474267000,7.859266845703125,0.1411474347114563,0.631035566329956,0.0343547537922859
2024-12-07 16:21:15.484294700,7.869294677734375,0.1912148296833038,0.6182523965835571,0.0013315795222297
2024-12-07 16:21:15.494322400,7.879322509765625,0.221042200922966,0.4403533637523651,-0.044474758207798
2024-12-07 16:21:15.504350200,7.88935009765625,0.1880190372467041,0.2805638015270233,-0.0700410827994346
2024-12-07 16:21:15.514378000,7.8993779296875,0.1219726875424385,0.1335574239492416,-0.0774979293346405
2024-12-07 16:21:15.524406000,7.909406005859375,0.0559263415634632,0.0153131652623415,-0.0817589834332466
2024-12-07 16:21:15.534433800,7.919433837890625,0.007989477366209,-0.0027963169850409,-0.088150568306446
2024-12-07 16:21:15.544461600,7.929461669921875,-0.0143810594454407,0.0451405458152294,-0.1254348009824752
2024-12-07 16:21:15.554489300,7.9394892578125,-0.007989477366209,0.0994689911603927,-0.19467693567276
2024-12-07 16:21:15.564517000,7.94951708984375,0.0111852679401636,0.0941426753997802,-0.2735064327716827
2024-12-07 16:21:15.574545000,7.959544921875,0.0250336956232786,0.018508955836296,-0.3342264592647552
2024-12-07 16:21:15.584572700,7.96957275390625,0.0324905402958393,-0.0635163411498069,-0.3534012138843536
2024-12-07 16:21:15.594600700,7.9796005859375,0.023968432098627,-0.1519332230091095,-0.3470096290111542
2024-12-07 16:21:15.604628500,7.98962841796875,0.010120004415512,-0.2275669425725937,-0.3257043659687042
2024-12-07 16:21:15.614656300,7.99965625,-0.0047936863265931,-0.2765690684318542,-0.3022685647010803
2024-12-07 16:21:15.624684000,8.00968408203125,-0.021837905049324,-0.2755038142204284,-0.2777675092220306
2024-12-07 16:21:15.634711800,8.0197119140625,-0.0410126484930515,-0.2211753576993942,-0.2543317079544067
2024-12-07 16:21:15.644739600,8.029739501953125,-0.061252661049366,-0.1284974217414856,-0.2404832690954208
2024-12-07 16:21:15.654767400,8.039767333984376,-0.0857537239789962,-0.0177100077271461,-0.2298306375741958
2024-12-07 16:21:15.664795100,8.049795166015626,-0.1102547869086265,0.0898816213011741,-0.2074600905179977
2024-12-07 16:21:15.674823200,8.0598232421875,-0.1411474347114563,0.1804290264844894,-0.1744369268417358
2024-12-07 16:21:15.684851000,8.069850830078124,-0.1741705983877182,0.2454101145267486,-0.1424790173768997
2024-12-07 16:21:15.694878700,8.079878662109374,-0.2008021920919418,0.2773680090904236,-0.1147821545600891
2024-12-07 16:21:15.704906500,8.089906494140624,-0.221042200922966,0.2901511788368225,-0.0902810916304588
2024-12-07 16:21:15.714934300,8.099934326171875,-0.2242379933595657,0.3071953952312469,-0.0657800287008285
2024-12-07 16:21:15.724962000,8.109962158203125,-0.2199769467115402,0.3221091032028198,-0.0615189746022224
2024-12-07 16:21:15.734989800,8.11998974609375,-0.2189116775989532,0.3455449044704437,-0.0743021368980407
2024-12-07 16:21:15.745017900,8.130017822265625,-0.2071937769651413,0.3913512229919433,-0.0956074148416519
2024-12-07 16:21:15.755045600,8.140045654296875,-0.1901495605707168,0.4328965246677398,-0.1169126853346824
2024-12-07 16:21:15.765073400,8.150073486328125,-0.1869537681341171,0.4467449486255646,-0.1424790173768997
2024-12-07 16:21:15.775101200,8.16010107421875,-0.1901495605707168,0.4275701940059662,-0.1648495495319366
2024-12-07 16:21:15.785129000,8.17012890625,-0.2071937769651413,0.4094607234001159,-0.1797632426023483
2024-12-07 16:21:15.795156700,8.18015673828125,-0.2295643091201782,0.4030691385269165,-0.1797632426023483
2024-12-07 16:21:15.805184500,8.1901845703125,-0.2466085255146026,0.3796333372592926,-0.1712411344051361
2024-12-07 16:21:15.815212500,8.200212646484376,-0.2434127479791641,0.3668501675128937,-0.1691105961799621
2024-12-07 16:21:15.825240300,8.210240234375,-0.2316948473453521,0.3806985914707184,-0.1808284968137741
2024-12-07 16:21:15.835268000,8.22026806640625,-0.2189116775989532,0.4222438633441925,-0.2095906287431717
2024-12-07 16:21:15.845295600,8.230295654296874,-0.2029327303171157,0.4797681272029876,-0.249005377292633
2024-12-07 16:21:15.855323400,8.240323486328125,-0.1773663908243179,0.5511407852172852,-0.2862896025180816
2024-12-07 16:21:15.865351200,8.25035107421875,-0.1688442826271057,0.6278397440910339,-0.3107906579971313
2024-12-07 16:21:15.875379000,8.26037890625,-0.1901495605707168,0.6853640079498291,-0.3033338189125061
2024-12-07 16:21:15.885406700,8.27040673828125,-0.2189116775989532,0.6811029314994812,-0.2671148478984833
2024-12-07 16:21:15.895434500,8.2804345703125,-0.2540653645992279,0.6246439814567566,-0.2213085144758224
2024-12-07 16:21:15.905462300,8.290462158203125,-0.2945453822612762,0.5468797087669373,-0.193611666560173
2024-12-07 16:21:15.915490000,8.300489990234375,-0.3296990990638733,0.4701807498931885,-0.19467693567276
2024-12-07 16:21:15.925517800,8.310517822265625,-0.3584612011909485,0.4233091473579407,-0.2106558829545974
2024-12-07 16:21:15.935545600,8.320545654296875,-0.3787012100219726,0.4211786091327667,-0.2277000993490219
2024-12-07 16:21:15.945573400,8.330573486328126,-0.3861580789089203,0.4584628343582153,-0.2340916842222213
2024-12-07 16:21:15.955601200,8.34060107421875,-0.3723096549510956,0.5106607675552368,-0.2234390527009964
2024-12-07 16:21:15.965629000,8.35062890625,-0.3211769759654999,0.5660544633865356,-0.1893506050109863
2024-12-07 16:21:15.975656700,8.36065673828125,-0.2295643091201782,0.6214481592178345,-0.1435442715883255
2024-12-07 16:21:15.985684500,8.3706845703125,-0.1187768951058387,0.6725808382034302,-0.1115863695740699
2024-12-07 16:21:15.995712300,8.380712158203124,-0.0303600132465362,0.7119956016540527,-0.1083905771374702
2024-12-07 16:21:16.005739800,8.39073974609375,0.0175768509507179,0.7471492886543274,-0.137152686715126
2024-12-07 16:21:16.015767600,8.400767578125,0.0207726415246725,0.7684545516967773,-0.1701758652925491
2024-12-07 16:21:16.025795300,8.41079541015625,-0.007989477366209,0.7343661189079285,-0.1723063886165619
2024-12-07 16:21:16.035823000,8.420822998046875,-0.0516652874648571,0.6214481592178345,-0.1179779469966888
2024-12-07 16:21:16.045851000,8.430850830078125,-0.0857537239789962,0.4755070507526397,-0.0146473748609423
2024-12-07 16:21:16.055878700,8.440878662109375,-0.0857537239789962,0.3519364893436432,0.0684431865811348
2024-12-07 16:21:16.065906400,8.450906494140625,-0.0484694950282573,0.1271658539772033,0.1302284747362136
2024-12-07 16:21:16.075934200,8.460934326171875,-0.0282294861972332,-0.2254364192485809,0.2857569754123688
2024-12-07 16:21:16.085962000,8.4709619140625,-0.0953410938382148,-0.4640554785728454,0.4178496599197387
2024-12-07 16:21:16.095989800,8.48098974609375,-0.1784316599369049,-0.4075964987277984,0.3837612271308899
2024-12-07 16:21:16.106017500,8.491017578125,-0.1699095517396927,-0.1167795285582542,0.2537990510463714
2024-12-07 16:21:16.116045300,8.50104541015625,-0.0569916032254695,0.163384810090065,0.2016011476516723
2024-12-07 16:21:16.126073000,8.511072998046876,0.0569916032254695,0.2091911435127258,0.2942790687084198
2024-12-07 16:21:16.136100900,8.521100830078124,0.076166346669197,0.0781637206673622,0.4285022914409637
2024-12-07 16:21:16.146128600,8.531128662109374,0.0058589498512446,-0.0869521424174308,0.5265065431594849
2024-12-07 16:21:16.156156400,8.541156494140624,-0.0814926698803901,-0.2403501123189926,0.5723128914833069
2024-12-07 16:21:16.166184200,8.55118408203125,-0.132625326514244,-0.27763432264328,0.5552686452865601
2024-12-07 16:21:16.176211700,8.561211669921875,-0.1464737504720688,-0.2371543198823928,0.4807002246379852
2024-12-07 16:21:16.186239500,8.571239501953125,-0.1294295340776443,-0.1796300858259201,0.3720433413982391
2024-12-07 16:21:16.196267300,8.581267333984375,-0.0900147780776023,-0.1316932141780853,0.2559295892715454
2024-12-07 16:21:16.206295000,8.591294921875,-0.0548610761761665,-0.0858868807554245,0.171773761510849
2024-12-07 16:21:16.216322800,8.60132275390625,-0.0346210673451423,-0.0677774026989936,0.1323590129613876
2024-12-07 16:21:16.226350600,8.6113505859375,-0.0346210673451423,-0.079495295882225,0.1387505829334259
2024-12-07 16:21:16.236378400,8.62137841796875,-0.0388821214437484,-0.1157142594456672,0.1802958697080612
2024-12-07 16:21:16.246406100,8.63140625,-0.0346210673451423,-0.1583248078823089,0.2388853728771209
2024-12-07 16:21:16.256434000,8.641433837890625,-0.0090547408908605,-0.1753690242767334,0.3091927766799927
2024-12-07 16:21:16.266461700,8.651461669921876,0.049534760415554,-0.1679121851921081,0.3645864725112915
2024-12-07 16:21:16.276489500,8.661489501953126,0.1304948031902313,-0.1306279599666595,0.3890875577926636
2024-12-07 16:21:16.286517200,8.671517333984376,0.2167811542749405,-0.080560564994812,0.3869570195674896
2024-12-07 16:21:16.296545000,8.681544921875,0.2956106662750244,-0.0336889624595642,0.3741738498210907
2024-12-07 16:21:16.306572800,8.69157275390625,0.3637875318527221,-0.0102531621232628,0.358194887638092
2024-12-07 16:21:16.316600600,8.7016005859375,0.4223770201206207,-0.0219710618257522,0.3294327855110168
2024-12-07 16:21:16.326628400,8.71162841796875,0.4788359999656677,-0.0507331825792789,0.2921485602855682
2024-12-07 16:21:16.336656000,8.72165576171875,0.5352949500083923,-0.1444763839244842,0.271908551454544
2024-12-07 16:21:16.346683600,8.73168359375,0.569383442401886,-0.2936132848262787,0.2580601274967193
2024-12-07 16:21:16.356711400,8.74171142578125,0.5768402814865112,-0.4075964987277984,0.2346243113279342
2024-12-07 16:21:16.366739200,8.7517392578125,0.5747097134590149,-0.4512723088264465,0.2090579867362976
2024-12-07 16:21:16.376767000,8.76176708984375,0.5853623747825623,-0.4608596861362457,0.1898832470178604
2024-12-07 16:21:16.386794800,8.771794677734375,0.5821665525436401,-0.5258407592773438,0.1845569312572479
2024-12-07 16:21:16.396822500,8.781822509765625,0.5715139508247375,-0.5482112765312195,0.2367548495531082
2024-12-07 16:21:16.406850300,8.791850341796875,0.5480781197547913,-0.5482112765312195,0.2964096069335937
2024-12-07 16:21:16.416878000,8.801878173828126,0.5044023394584656,-0.54927659034729,0.3177148699760437
2024-12-07 16:21:16.426905900,8.81190576171875,0.4596612751483917,-0.5588639378547668,0.3155843615531921
2024-12-07 16:21:16.436933600,8.82193359375,0.4117243885993957,-0.5854955315589905,0.3102580308914184
2024-12-07 16:21:16.446961400,8.83196142578125,0.3488738536834717,-0.6131923794746399,0.3198454082012176
2024-12-07 16:21:16.456989200,8.8419892578125,0.2988064587116241,-0.6536723971366882,0.3486075401306152
2024-12-07 16:21:16.467017000,8.852016845703124,0.2604569494724273,-0.6792387366294861,0.3837612271308899
2024-12-07 16:21:16.477044700,8.862044677734374,0.2444780021905899,-0.7090660929679871,0.4018706977367401
2024-12-07 16:21:16.487072500,8.872072509765625,0.2732401192188263,-0.7687208652496338,0.3986749053001404
2024-12-07 16:21:16.497100300,8.882100341796875,0.3265033066272735,-0.8475503921508789,0.3848264813423157
2024-12-07 16:21:16.507127800,8.8921279296875,0.3563306927680969,-0.8827040791511536,0.3613906800746918
2024-12-07 16:21:16.517155600,8.902155517578125,0.3499391078948974,-0.8965525031089783,0.3187801539897918
2024-12-07 16:21:16.527183400,8.912183349609375,0.3147853910923004,-0.8837693333625793,0.2559295892715454
2024-12-07 16:21:16.537211100,8.922211181640625,0.2700443267822265,-0.8475503921508789,0.1952095627784729
2024-12-07 16:21:16.547239000,8.932239013671875,0.2402169555425644,-0.797482967376709,0.1355548053979873
2024-12-07 16:21:16.557266700,8.9422666015625,0.2380864173173904,-0.7420892715454102,0.052464235574007
2024-12-07 16:21:16.567294500,8.95229443359375,0.2423474788665771,-0.7090660929679871,-0.0455400198698043
2024-12-07 16:21:16.577322200,8.962322265625,0.2189116775989532,-0.7069355845451355,-0.1073253154754638
2024-12-07 16:21:16.587350000,8.97235009765625,0.1763011366128921,-0.7197187542915344,-0.099868468940258
2024-12-07 16:21:16.597377800,8.982377685546876,0.1560611277818679,-0.7410240173339844,-0.072171613574028
2024-12-07 16:21:16.607405600,8.992405517578124,0.154995858669281,-0.7474156022071838,-0.0753674060106277
2024-12-07 16:21:16.617433300,9.002433349609374,0.1209074258804321,-0.7090660929679871,-0.1019989922642707
2024-12-07 16:21:16.627461000,9.012461181640624,-0.0005326318205334,-0.6430197358131409,-0.0774979293346405
2024-12-07 16:21:16.637489000,9.022489013671876,-0.143277958035469,-0.6866955757141113,0.038615807890892
2024-12-07 16:21:16.647516700,9.0325166015625,-0.2412822097539901,-0.600409209728241,0.1920137703418731
2024-12-07 16:21:16.657544400,9.04254443359375,-0.1880190372467041,-0.3298322558403015,0.2537990510463714
2024-12-07 16:21:16.667572000,9.052572021484377,0.2199769467115402,0.0408794917166233,0.2239716798067093
2024-12-07 16:21:16.677599700,9.062599853515623,0.5480781197547913,0.275237500667572,0.1525990217924118
2024-12-07 16:21:16.687627500,9.07262744140625,0.510793924331665,0.2560627460479736,0.0727042406797409
2024-12-07 16:21:16.697655300,9.0826552734375,0.3030675053596496,0.1484711170196533,-0.0082557927817106
2024-12-07 16:21:16.707683000,9.09268310546875,0.0154463229700922,-0.1146489977836608,-0.1094558387994766
2024-12-07 16:21:16.717710800,9.1027109375,-0.2743053734302521,-0.4874912798404693,-0.2447443157434463
2024-12-07 16:21:16.727738600,9.112738525390624,-0.5193160176277161,-0.7452850937843323,-0.3864243924617767
2024-12-07 16:21:16.737766400,9.122766357421876,-0.67484450340271,-0.8475503921508789,-0.5291697382926941
2024-12-07 16:21:16.747794200,9.132794189453126,-0.6929540038108826,-0.922118842601776,-0.5984118580818176
2024-12-07 16:21:16.757822000,9.142822021484376,-0.5811012983322144,-1.064864158630371,-0.5611276030540466
2024-12-07 16:21:16.767849700,9.152849609375,-0.397875964641571,-1.1905652284622192,-0.5004075765609741
2024-12-07 16:21:16.777877500,9.16287744140625,-0.1794969290494918,-1.1735210418701172,-0.4748412668704986
2024-12-07 16:21:16.787905300,9.1729052734375,0.0058589498512446,-1.03503680229187,-0.4950812757015228
2024-12-07 16:21:16.797933000,9.18293310546875,0.1283642649650573,-0.826245129108429,-0.5281044244766235
2024-12-07 16:21:16.807960800,9.1929609375,0.198671668767929,-0.5524723529815674,-0.5334307551383972
2024-12-07 16:21:16.817988600,9.202988525390625,0.2455432713031768,-0.2254364192485809,-0.4769718050956726
2024-12-07 16:21:16.828016000,9.21301611328125,0.2508696019649505,0.1804290264844894,-0.3736412227153778
2024-12-07 16:21:16.838044000,9.2230439453125,0.2018674612045288,0.5884249806404114,-0.2958769798278808
2024-12-07 16:21:16.848071700,9.23307177734375,0.1038632020354271,0.9090693593025208,-0.2660495936870575
2024-12-07 16:21:16.858099500,9.243099365234375,0.0335558056831359,1.0518146753311155,-0.238352745771408
2024-12-07 16:21:16.868127200,9.253127197265623,-0.023968432098627,1.0230525732040403,-0.2117211520671844
2024-12-07 16:21:16.878155000,9.263155029296875,-0.087884247303009,0.8611325025558472,-0.1531316488981247
2024-12-07 16:21:16.888182800,9.273182861328126,-0.1922800838947296,0.7546061277389526,-0.0615189746022224
2024-12-07 16:21:16.898210600,9.28321044921875,-0.2551306486129761,0.7620629668235779,-0.005060002207756
2024-12-07 16:21:16.908238300,9.29323828125,-0.2604569494724273,0.7961513996124268,-0.0103863207623362
2024-12-07 16:21:16.918266000,9.30326611328125,-0.221042200922966,0.7961513996124268,-0.0508663393557071
2024-12-07 16:21:16.928294000,9.3132939453125,-0.143277958035469,0.7301050424575806,-0.0913463607430458
2024-12-07 16:21:16.938321700,9.32332177734375,-0.0655137151479721,0.6374271512031555,-0.1339569091796875
2024-12-07 16:21:16.948349400,9.333349365234374,0.0047936863265931,0.5266396999359131,-0.1872200816869735
2024-12-07 16:21:16.958377200,9.343377197265625,0.0591221302747726,0.4222438633441925,-0.2372874766588211
2024-12-07 16:21:16.968405000,9.353405029296876,0.0836231932044029,0.3146522343158722,-0.2649843394756317
2024-12-07 16:21:16.978432800,9.363432861328125,0.0868189856410026,0.1761679798364639,-0.2820285558700561
2024-12-07 16:21:16.988460500,9.37346044921875,0.0644484534859657,0.0366184376180172,-0.3129211962223053
2024-12-07 16:21:16.998488000,9.383488037109377,0.0271642226725816,-0.0731037184596061,-0.3438138365745544
2024-12-07 16:21:17.008515800,9.393515869140623,-0.0154463229700922,-0.1551290154457092,-0.3640538454055786
2024-12-07 16:21:17.018543600,9.403543701171875,-0.0569916032254695,-0.2062616795301437,-0.3821633458137512
2024-12-07 16:21:17.028571400,9.4135712890625,-0.0942758321762085,-0.2137185186147689,-0.3992075622081756
2024-12-07 16:21:17.038599200,9.42359912109375,-0.1081242561340332,-0.1689774394035339,-0.393881231546402
2024-12-07 16:21:17.048627000,9.433626953125,-0.1145158410072326,-0.0944089889526367,-0.3747064769268036
2024-12-07 16:21:17.058654700,9.44365478515625,-0.1304948031902313,-0.0027963169850409,-0.3480748832225799
2024-12-07 16:21:17.068682500,9.4536826171875,-0.1496695429086685,0.0888163596391677,-0.3043990731239319
2024-12-07 16:21:17.078710300,9.463710205078126,-0.1699095517396927,0.1655153334140777,-0.2553969621658325
2024-12-07 16:21:17.088738000,9.473738037109374,-0.1954758763313293,0.2315616905689239,-0.2191779911518097
2024-12-07 16:21:17.098765800,9.483765869140624,-0.2306295782327652,0.2986733019351959,-0.1904158741235733
2024-12-07 16:21:17.108793600,9.493793701171874,-0.2668485343456268,0.3657849133014679,-0.1456748098134994
2024-12-07 16:21:17.118821400,9.5038212890625,-0.3158506751060486,0.4275701940059662,-0.1019989922642707
2024-12-07 16:21:17.128849200,9.51384912109375,-0.343547523021698,0.4776375889778137,-0.0700410827994346
2024-12-07 16:21:17.138877000,9.523876953125,-0.343547523021698,0.5074649453163147,-0.0455400198698043
2024-12-07 16:21:17.148904700,9.53390478515625,-0.3424822688102722,0.5202481150627136,-0.0391484387218952
2024-12-07 16:21:17.158932200,9.54393212890625,-0.3456780612468719,0.5404881238937378,-0.046605285257101
2024-12-07 16:21:17.168960000,9.5539599609375,-0.3520696461200714,0.5724460482597351,-0.0593884475529193
2024-12-07 16:21:17.178987800,9.56398779296875,-0.3584612011909485,0.6203829050064087,-0.0764326676726341
2024-12-07 16:21:17.189015600,9.574015625,-0.3446127772331238,0.6874945163726807,-0.0924116224050521
2024-12-07 16:21:17.199043300,9.584043212890624,-0.3041327595710754,0.7471492886543274,-0.099868468940258
2024-12-07 16:21:17.209071000,9.594071044921876,-0.2476737946271896,0.7918903827667236,-0.1190432086586952
2024-12-07 16:21:17.219099000,9.604098876953126,-0.198671668767929,0.8174566626548767,-0.1499358564615249
2024-12-07 16:21:17.229126700,9.614126708984376,-0.1635179668664932,0.8249135613441467,-0.1904158741235733
2024-12-07 16:21:17.239154400,9.624154541015624,-0.1177116334438324,0.7929556369781494,-0.2191779911518097
2024-12-07 16:21:17.249182200,9.63418212890625,-0.0751010850071907,0.7812377214431763,-0.2522011697292328
2024-12-07 16:21:17.259210000,9.6442099609375,-0.0399473868310451,0.7982819676399231,-0.2713759243488312
2024-12-07 16:21:17.269237800,9.65423779296875,-0.0037284228019416,0.8483493328094482,-0.2575274705886841
2024-12-07 16:21:17.279265500,9.664265625,0.0324905402958393,0.8941556811332703,-0.2266348451375961
2024-12-07 16:21:17.289293300,9.674293212890625,0.0410126484930515,0.9229177832603456,-0.2053295671939849
2024-12-07 16:21:17.299321000,9.684321044921877,0.0165115855634212,0.9282441139221193,-0.1872200816869735
2024-12-07 16:21:17.309348900,9.694348876953123,-0.0335558056831359,0.9154609441757202,-0.1627190262079239
2024-12-07 16:21:17.319376600,9.704376708984377,-0.0921453014016151,0.8898946046829224,-0.1211737394332885
2024-12-07 16:21:17.329404200,9.714404052734375,-0.154995858669281,0.8451535701751709,-0.0743021368980407
2024-12-07 16:21:17.339432000,9.724431884765623,-0.211454838514328,0.7812377214431763,-0.0338221192359924
2024-12-07 16:21:17.349459700,9.734459716796875,-0.2476737946271896,0.7034734487533569,-0.0029294749256223
2024-12-07 16:21:17.359487500,9.744487548828126,-0.2753706574440002,0.6235787272453308,0.0215715896338224
2024-12-07 16:21:17.369515300,9.754515380859376,-0.2817622423171997,0.5500755310058594,0.0503337085247039
2024-12-07 16:21:17.379542800,9.764542724609376,-0.2604569494724273,0.4957470595836639,0.0833568796515464
2024-12-07 16:21:17.389570600,9.774570556640626,-0.1976063996553421,0.4691154658794403,0.1110537350177764
2024-12-07 16:21:17.399598300,9.784598388671874,-0.1241032108664512,0.461658626794815,0.1142495274543762
2024-12-07 16:21:17.409626000,9.794626220703124,-0.0655137151479721,0.4861596822738647,0.0727042406797409
2024-12-07 16:21:17.419653600,9.804653564453124,-0.0154463229700922,0.5575323700904846,0.0002663159102667
2024-12-07 16:21:17.429681400,9.814681396484374,0.0335558056831359,0.6139913201332092,-0.0242347475141286
2024-12-07 16:21:17.439709200,9.824709228515625,0.0633831843733787,0.6576671600341797,0.0471379160881042
2024-12-07 16:21:17.449736700,9.83473681640625,0.0697747692465782,0.660862922668457,0.1270326822996139
2024-12-07 16:21:17.459764500,9.844764404296876,0.1134505793452262,0.6278397440910339,0.1739042848348617
2024-12-07 16:21:17.469792300,9.854792236328125,0.1784316599369049,0.405199646949768,0.3411506712436676
2024-12-07 16:21:17.479820000,9.864820068359377,0.1454084813594818,0.0366184376180172,0.5797697305679321
2024-12-07 16:21:17.489847600,9.87484765625,0.0452737063169479,-0.2328932583332061,0.5712476372718811
2024-12-07 16:21:17.499875300,9.884875244140623,0.0410126484930515,-0.1561942845582962,0.2889527678489685
2024-12-07 16:21:17.509903000,9.894903076171875,0.1784316599369049,0.264584869146347,-0.0029294749256223
2024-12-07 16:21:17.519931000,9.904930908203124,0.4106591343879699,0.8558061718940735,0.0354200154542923
2024-12-07 16:21:17.529958400,9.91495849609375,0.5395560264587402,1.296825289726257,0.2676474750041961
2024-12-07 16:21:17.539986200,9.924986083984376,0.5832318663597107,1.3405011892318726,0.4370244145393371
2024-12-07 16:21:17.550014000,9.935013916015626,0.6354297399520874,0.966593623161316,0.5403549671173096
2024-12-07 16:21:17.560041700,9.945041748046876,0.6524739861488342,0.3934817612171173,0.5062665343284607
2024-12-07 16:21:17.570069200,9.9550693359375,0.5715139508247375,-0.107192151248455,0.3273022472858429
2024-12-07 16:21:17.580097000,9.965096923828124,0.4106591343879699,-0.4874912798404693,0.1920137703418731
2024-12-07 16:21:17.590124800,9.975124755859374,0.2221074700355529,-0.7665903568267822,0.1579253375530243
2024-12-07 16:21:17.600152600,9.985152587890624,0.1209074258804321,-0.9253146052360536,0.171773761510849
2024-12-07 16:21:17.610180000,9.99518017578125,0.0814926698803901,-0.956207275390625,0.1547295451164245
2024-12-07 16:21:17.620207900,10.005207763671876,0.0729705616831779,-0.8688556551933289,0.1174453198909759
2024-12-07 16:21:17.630235600,10.015235595703125,0.0974716246128082,-0.7250450849533081,0.0876179337501525
2024-12-07 16:21:17.640263200,10.02526318359375,0.1699095517396927,-0.600409209728241,0.0982705727219581
2024-12-07 16:21:17.650291000,10.035291015625,0.2625874876976013,-0.5961481928825378,0.1344895362854004
2024-12-07 16:21:17.660318700,10.045318603515623,0.3637875318527221,-0.7101313471794128,0.1962748318910598
2024-12-07 16:21:17.670346500,10.055346435546875,0.4681833684444427,-0.8411588072776794,0.3166496157646179
2024-12-07 16:21:17.680374000,10.0653740234375,0.5459476113319397,-0.986034631729126,0.4572644233703613
2024-12-07 16:21:17.690401800,10.07540185546875,0.6002760529518127,-1.1085399389266968,0.5616602301597595
2024-12-07 16:21:17.700429600,10.0854296875,0.6492781639099121,-1.0861694812774658,0.6191844940185547
2024-12-07 16:21:17.710457300,10.095457275390626,0.6705834865570068,-1.0190578699111938,0.6042708158493042
2024-12-07 16:21:17.720484900,10.10548486328125,0.6428865790367126,-0.977512538433075,0.5573992133140564
2024-12-07 16:21:17.730512600,10.1155126953125,0.586427628993988,-1.0190578699111938,0.5435507893562317
2024-12-07 16:21:17.740540400,10.12554052734375,0.4990760087966919,-1.12771475315094,0.5669865608215332
2024-12-07 16:21:17.750568200,10.135568115234374,0.4021370112895965,-1.2001526355743408,0.5936181545257568
2024-12-07 16:21:17.760595700,10.145595703125,0.3020022511482239,-1.225718975067139,0.5914876461029053
2024-12-07 16:21:17.770623500,10.15562353515625,0.209324300289154,-1.2150663137435913,0.5850960612297058
2024-12-07 16:21:17.780651300,10.1656513671875,0.1379516422748565,-1.2097400426864624,0.5733781456947327
2024-12-07 16:21:17.790678800,10.1756787109375,0.0623179227113723,-1.2725905179977417,0.5584644675254822
2024-12-07 16:21:17.800706600,10.18570654296875,-0.0069242138415575,-1.430249571800232,0.5371592044830322
2024-12-07 16:21:17.810734300,10.195734375,-0.0633831843733787,-1.5186665058135986,0.4700475931167602
2024-12-07 16:21:17.820762000,10.20576220703125,-0.1070589944720268,-1.471794843673706,0.3155843615531921
2024-12-07 16:21:17.830789600,10.21578955078125,-0.154995858669281,-1.3684643507003784,0.1110537350177764
2024-12-07 16:21:17.840817400,10.2258173828125,-0.198671668767929,-1.2896348237991333,-0.0657800287008285
2024-12-07 16:21:17.850845200,10.23584521484375,-0.2530001103878021,-1.2299799919128418,-0.1723063886165619
2024-12-07 16:21:17.860873000,10.245873046875,-0.3062632977962494,-1.1788474321365356,-0.2319611608982086
2024-12-07 16:21:17.870900500,10.255900390625,-0.335025429725647,-1.1138663291931152,-0.2660495936870575
2024-12-07 16:21:17.880928300,10.26592822265625,-0.3307643532752991,-1.0275799036026,-0.280963271856308
2024-12-07 16:21:17.890956000,10.2759560546875,-0.3041327595710754,-0.9274451732635498,-0.2649843394756317
2024-12-07 16:21:17.900983800,10.28598388671875,-0.2604569494724273,-0.7708513736724854,-0.2255695760250091
2024-12-07 16:21:17.911011300,10.29601123046875,-0.2242379933595657,-0.5620597004890442,-0.2021337747573852
2024-12-07 16:21:17.921039000,10.3060390625,-0.2189116775989532,-0.2968090772628784,-0.2031990438699722
2024-12-07 16:21:17.931067000,10.31606689453125,-0.2167811542749405,-0.1146489977836608,-0.2000032514333725
2024-12-07 16:21:17.941094700,10.3260947265625,-0.199736937880516,-0.1167795285582542,-0.1669800728559494
2024-12-07 16:21:17.951122200,10.3361220703125,-0.1667137593030929,-0.0081226350739598,-0.0572579205036163
2024-12-07 16:21:17.961150000,10.34614990234375,0.0207726415246725,0.2528669536113739,0.0854874104261398
2024-12-07 16:21:17.971177700,10.356177734375,0.4511391520500183,0.5660544633865356,0.1920137703418731
2024-12-07 16:21:17.981205200,10.366205322265625,0.7142592668533325,0.8856335878372192,0.1344895362854004
2024-12-07 16:21:17.991233000,10.37623291015625,0.65353924036026,0.9101346135139464,-0.1019989922642707
2024-12-07 16:21:18.001260800,10.3862607421875,0.4394212663173675,0.7056040167808533,-0.30546435713768
2024-12-07 16:21:18.011288600,10.39628857421875,0.1560611277818679,0.4062649309635162,-0.3438138365745544
2024-12-07 16:21:18.021316000,10.406316162109375,-0.143277958035469,0.0525973923504352,-0.2884201407432556
2024-12-07 16:21:18.031343900,10.41634375,-0.3765707015991211,-0.3032006621360779,-0.2948117256164551
2024-12-07 16:21:18.041371600,10.42637158203125,-0.5203812718391418,-0.6259755492210388,-0.3257043659687042
2024-12-07 16:21:18.051399400,10.4363994140625,-0.5938844680786133,-0.7996135354042053,-0.280963271856308
2024-12-07 16:21:18.061427000,10.446427001953126,-0.5928192138671875,-0.8741819858551025,-0.2223737835884094
2024-12-07 16:21:18.071454700,10.456454833984376,-0.502271831035614,-0.8965525031089783,-0.2149169445037841
2024-12-07 16:21:18.081482500,10.466482421875,-0.3467433154582977,-0.8518114686012268,-0.2500706315040588
2024-12-07 16:21:18.091510300,10.47651025390625,-0.1720400750637054,-0.6962829232215881,-0.3065296113491058
2024-12-07 16:21:18.101537800,10.486537841796874,-0.037816859781742,-0.411857545375824,-0.3459443747997284
2024-12-07 16:21:18.111565600,10.496565673828124,0.049534760415554,-0.0336889624595642,-0.3416832983493805
2024-12-07 16:21:18.121593300,10.50659326171875,0.1145158410072326,0.3466101586818695,-0.3352917432785034
2024-12-07 16:21:18.131621000,10.51662109375,0.1571263819932937,0.6512755751609802,-0.3608580529689789
2024-12-07 16:21:18.141648600,10.526648681640625,0.1720400750637054,0.8163914084434509,-0.3747064769268036
2024-12-07 16:21:18.151676400,10.536676513671877,0.153930589556694,0.8877640962600708,-0.3747064769268036
2024-12-07 16:21:18.161704200,10.5467041015625,0.1123853176832199,0.8824377655982971,-0.3757717609405517
2024-12-07 16:21:18.171731700,10.556731689453123,0.0591221302747726,0.849414587020874,-0.3757717609405517
2024-12-07 16:21:18.181759500,10.566759521484377,-0.0154463229700922,0.8664588332176208,-0.3629885911941528
2024-12-07 16:21:18.191787300,10.576787353515623,-0.1081242561340332,0.8611325025558472,-0.3278348743915558
2024-12-07 16:21:18.201815000,10.58681494140625,-0.1837579756975174,0.8089345693588257,-0.2788327634334564
2024-12-07 16:21:18.211842600,10.596842529296875,-0.2199769467115402,0.7620629668235779,-0.247940108180046
2024-12-07 16:21:18.221870300,10.606870361328124,-0.2221074700355529,0.7407577037811279,-0.2500706315040588
2024-12-07 16:21:18.231898000,10.616898193359376,-0.2018674612045288,0.7226482033729553,-0.2553969621658325
2024-12-07 16:21:18.241926000,10.62692578125,-0.1826927214860916,0.6917555928230286,-0.2415485233068466
2024-12-07 16:21:18.251953400,10.636953369140626,-0.1624527126550674,0.6235787272453308,-0.2138516753911972
2024-12-07 16:21:18.261981200,10.646981201171876,-0.1400821655988693,0.4946818053722381,-0.1861548274755478
2024-12-07 16:21:18.272009000,10.657009033203124,-0.1283642649650573,0.3285006880760193,-0.1680453419685363
2024-12-07 16:21:18.282036700,10.66703662109375,-0.1411474347114563,0.1868206113576889,-0.1595232337713241
2024-12-07 16:21:18.292064300,10.677064208984374,-0.1624527126550674,0.06964161247015,-0.1616537570953369
2024-12-07 16:21:18.302092000,10.687092041015624,-0.1656484901905059,-0.0507331825792789,-0.1648495495319366
2024-12-07 16:21:18.312119800,10.697119873046876,-0.1507348120212555,-0.1050616279244422,-0.1733716577291488
2024-12-07 16:21:18.322147300,10.707147216796876,-0.1123853176832199,-0.0890826731920242,-0.1733716577291488
2024-12-07 16:21:18.332175000,10.717175048828125,-0.061252661049366,-0.0390152819454669,-0.182959035038948
2024-12-07 16:21:18.342202600,10.72720263671875,-0.021837905049324,0.0249005369842052,-0.2106558829545974
2024-12-07 16:21:18.352230400,10.73723046875,0.0090547408908605,0.084555298089981,-0.238352745771408
2024-12-07 16:21:18.362258000,10.7472578125,0.0260989591479301,0.123970054090023,-0.2649843394756317
2024-12-07 16:21:18.372285700,10.75728564453125,0.023968432098627,0.1580584943294525,-0.2862896025180816
2024-12-07 16:21:18.382313200,10.767313232421875,-0.0026631590444594,0.1814942955970764,-0.3012032806873321
2024-12-07 16:21:18.392341000,10.777341064453124,-0.0250336956232786,0.1804290264844894,-0.2990727722644806
2024-12-07 16:21:18.402368800,10.78736865234375,-0.0474042333662509,0.1751027107238769,-0.2820285558700561
2024-12-07 16:21:18.412396300,10.797396240234375,-0.0814926698803901,0.2038648277521133,-0.270310640335083
2024-12-07 16:21:18.422424000,10.807424072265626,-0.1070589944720268,0.2539322078227997,-0.2681801319122314
2024-12-07 16:21:18.432451600,10.81745166015625,-0.1070589944720268,0.2784332931041717,-0.2639190554618835
2024-12-07 16:21:18.442479400,10.827479248046876,-0.1006674170494079,0.3008038103580475,-0.2639190554618835
2024-12-07 16:21:18.452507000,10.8375068359375,-0.088949516415596,0.3636543750762939,-0.2660495936870575
2024-12-07 16:21:18.462534700,10.84753466796875,-0.0580568686127662,0.4680502116680145,-0.2756369709968567
2024-12-07 16:21:18.472562200,10.857562255859374,-0.0314252786338329,0.5884249806404114,-0.3001380264759063
2024-12-07 16:21:18.482590000,10.86758984375,-0.0367515943944454,0.7141261100769043,-0.3257043659687042
2024-12-07 16:21:18.492617500,10.877617431640624,-0.061252661049366,0.8270440697669983,-0.337422251701355
2024-12-07 16:21:18.502645200,10.887645263671876,-0.0974716246128082,0.9058735966682434,-0.3352917432785034
2024-12-07 16:21:18.512672800,10.8976728515625,-0.144343227148056,0.9825725555419922,-0.3257043659687042
2024-12-07 16:21:18.522700500,10.907700439453125,-0.1848232448101043,1.0592715740203855,-0.3299654126167297
2024-12-07 16:21:18.532728000,10.91772802734375,-0.1965411454439163,1.1391663551330566,-0.3480748832225799
2024-12-07 16:21:18.542755800,10.927755859375,-0.211454838514328,1.1828421354293823,-0.3768370151519775
2024-12-07 16:21:18.552783600,10.93778369140625,-0.2444780021905899,1.1913641691207886,-0.4002728164196014
2024-12-07 16:21:18.562811100,10.94781103515625,-0.3030675053596496,1.1370357275009155,-0.4151864945888519
2024-12-07 16:21:18.572839000,10.9578388671875,-0.4191812574863434,1.0688588619232178,-0.4055991172790527
2024-12-07 16:21:18.582866400,10.967866455078124,-0.4852275848388672,1.04329252243042,-0.3257043659687042
2024-12-07 16:21:18.592894200,10.977894287109375,-0.4799012839794159,1.0347704887390137,-0.1563274413347244
2024-12-07 16:21:18.602921700,10.987921630859375,-0.4127896726131439,1.0187915563583374,0.0695084556937217
2024-12-07 16:21:18.612949500,10.997949462890626,-0.2913496196269989,0.9783114790916444,0.2548643350601196
2024-12-07 16:21:18.622977000,11.00797705078125,-0.1358211189508438,0.8920251131057739,0.3230412006378174
2024-12-07 16:21:18.633004800,11.0180048828125,-0.0058589498512446,0.7386271953582764,0.2921485602855682
2024-12-07 16:21:18.643032300,11.0280322265625,0.0474042333662509,0.5415533781051636,0.3219759464263916
2024-12-07 16:21:18.653060000,11.03806005859375,0.0165115855634212,0.3455449044704437,0.4434159994125366
2024-12-07 16:21:18.663087600,11.048087646484374,-0.0154463229700922,0.217713251709938,0.5179844498634338
2024-12-07 16:21:18.673115400,11.058115478515624,-0.0069242138415575,0.1665806025266647,0.6106624007225037
2024-12-07 16:21:18.683143000,11.068142822265624,-0.0165115855634212,0.0898816213011741,0.8034750819206238
2024-12-07 16:21:18.693170700,11.078170654296876,-0.0388821214437484,-0.1157142594456672,1.032506823539734
2024-12-07 16:21:18.703198500,11.088198486328125,-0.0708400309085846,-0.3319627940654754,1.128380537033081
2024-12-07 16:21:18.713226000,11.09822607421875,-0.0985368862748146,-0.3809649050235748,1.0335720777511597
2024-12-07 16:21:18.723253800,11.108253662109377,-0.0942758321762085,-0.1274321675300598,0.7779088020324707
2024-12-07 16:21:18.733281300,11.11828125,0.0111852679401636,0.4552670419216156,0.5169191956520081
2024-12-07 16:21:18.743309000,11.12830908203125,0.1752358675003051,1.1146652698516846,0.414653867483139
2024-12-07 16:21:18.753336600,11.138336669921877,0.2828274965286255,1.3500884771347046,0.4338286221027374
2024-12-07 16:21:18.763364400,11.1483642578125,0.3307643532752991,0.9325051307678224,0.4743086397647857
2024-12-07 16:21:18.773392000,11.158391845703123,0.3669833242893219,0.0909468829631805,0.4508728384971618
2024-12-07 16:21:18.783419600,11.168419677734375,0.3669833242893219,-0.6483460664749146,0.4455465078353882
2024-12-07 16:21:18.793447200,11.178447265625,0.2828274965286255,-1.0914957523345947,0.4540686309337616
2024-12-07 16:21:18.803475000,11.188474853515626,0.1486042737960815,-1.2406326532363892,0.4029359817504883
2024-12-07 16:21:18.813502700,11.198502685546876,0.0580568686127662,-1.1894999742507937,0.2783001363277435
2024-12-07 16:21:18.823530500,11.208530517578126,0.0452737063169479,-1.0563420057296753,0.0993358343839645
2024-12-07 16:21:18.833558000,11.21855810546875,0.0708400309085846,-0.9178577661514282,-0.0764326676726341
2024-12-07 16:21:18.843585800,11.228585693359374,0.1070589944720268,-0.776177704334259,-0.1840242892503738
2024-12-07 16:21:18.853613600,11.238613525390624,0.1486042737960815,-0.5311670899391174,-0.1872200816869735
2024-12-07 16:21:18.863641300,11.248641357421874,0.1688442826271057,-0.1231711059808731,-0.1137168928980827
2024-12-07 16:21:18.873668900,11.2586689453125,0.1794969290494918,0.3263701498508453,-0.0146473748609423
2024-12-07 16:21:18.883696600,11.268696533203125,0.1890842914581298,0.6395576596260071,0.0844221413135528
2024-12-07 16:21:18.893724400,11.278724365234376,0.2146506309509277,0.7045387625694275,0.2047969400882721
2024-12-07 16:21:18.903752200,11.288752197265625,0.2743053734302521,0.5788376331329346,0.3379548788070678
2024-12-07 16:21:18.913779700,11.29877978515625,0.3616569936275482,0.3988080620765686,0.4476770460605621
2024-12-07 16:21:18.923807500,11.308807373046877,0.4532696902751922,0.3125217258930206,0.5265065431594849
2024-12-07 16:21:18.933835300,11.318835205078123,0.5299686789512634,0.264584869146347,0.5573992133140564
2024-12-07 16:21:18.943863000,11.328863037109375,0.5800360441207886,0.1261005848646164,0.529702365398407
2024-12-07 16:21:18.953890600,11.338890625,0.5885581374168396,-0.0773647725582122,0.4412854611873626
2024-12-07 16:21:18.963918300,11.34891845703125,0.5608612895011902,-0.2435459047555923,0.3113232851028442
2024-12-07 16:21:18.973946000,11.358946044921876,0.4958802163600921,-0.2829606533050537,0.1930790394544601
2024-12-07 16:21:18.983973600,11.3689736328125,0.397875964641571,-0.2957438230514526,0.1249021589756012
2024-12-07 16:21:18.994001400,11.37900146484375,0.2700443267822265,-0.392682820558548,0.1025316268205642
2024-12-07 16:21:19.004029200,11.389029296875,0.143277958035469,-0.5609944462776184,0.1163800507783889
2024-12-07 16:21:19.014057000,11.399056884765624,0.0420779138803482,-0.7878956198692322,0.1504684835672378
2024-12-07 16:21:19.024084500,11.40908447265625,-0.037816859781742,-0.9743167757987976,0.1760348230600357
2024-12-07 16:21:19.034112300,11.4191123046875,-0.0964063629508018,-1.03503680229187,0.1643169224262237
2024-12-07 16:21:19.044140000,11.42914013671875,-0.1251684725284576,-1.0254493951797483,0.1344895362854004
2024-12-07 16:21:19.054167800,11.439167724609376,-0.1027979403734207,-1.028645157814026,0.0886831954121589
2024-12-07 16:21:19.064195300,11.4491953125,-0.0559263415634632,-1.0339715480804443,0.0205063242465257
2024-12-07 16:21:19.074223000,11.45922314453125,0.010120004415512,-0.9988178014755248,-0.0593884475529193
2024-12-07 16:21:19.084251000,11.4692509765625,0.1006674170494079,-0.9594030380249025,-0.1328916400671005
2024-12-07 16:21:19.094278700,11.479278564453123,0.1880190372467041,-0.9242493510246276,-0.1744369268417358
2024-12-07 16:21:19.104306200,11.48930615234375,0.2519348561763763,-0.9157272577285768,-0.1616537570953369
2024-12-07 16:21:19.114334000,11.499333984375,0.276435911655426,-0.934902012348175,-0.1083905771374702
2024-12-07 16:21:19.124361700,11.50936181640625,0.2785664498806,-0.943424105644226,-0.0657800287008285
2024-12-07 16:21:19.134389200,11.51938916015625,0.2849580347537994,-0.9114661812782288,-0.0657800287008285
2024-12-07 16:21:19.144417000,11.5294169921875,0.2881538271903991,-0.8816388249397278,-0.0774979293346405
2024-12-07 16:21:19.154444500,11.539444580078126,0.2892190814018249,-0.8624640703201294,-0.0679105594754219
