time,seconds_elapsed,z,y,x
2024-12-07 16:32:16.740130300,0.14013037109375,0.0065247397869825,-0.0141147430986166,-0.0121173737570643
2024-12-07 16:32:16.750173200,0.150173095703125,0.0011984215816482,-0.0343547537922859,-0.0153131652623415
2024-12-07 16:32:16.760219400,0.160219482421875,-0.0030626328662037,-0.0577905513346195,-0.016378428786993
2024-12-07 16:32:16.770268000,0.170267822265625,-0.0062584239058196,-0.0695084556937217,-0.0153131652623415
2024-12-07 16:32:16.780317700,0.180317626953125,-0.0062584239058196,-0.0737695097923278,-0.0153131652623415
2024-12-07 16:32:16.790368300,0.1903681640625,-0.0062584239058196,-0.0705737173557281,-0.0131826372817158
2024-12-07 16:32:16.800409300,0.200409423828125,-0.0030626328662037,-0.0567252896726131,-0.0078563196584582
2024-12-07 16:32:16.810437600,0.210437744140625,0.0011984215816482,-0.05459476262331,-0.0057257921434938
2024-12-07 16:32:16.820465700,0.220465576171875,0.0022636852227151,-0.066312663257122,-0.0057257921434938
2024-12-07 16:32:16.830494000,0.230493896484375,0.0011984215816482,-0.0780305638909339,-0.0067910556681454
2024-12-07 16:32:16.840522200,0.240522216796875,0.0001331579551333,-0.0737695097923278,-0.0089215831831097
2024-12-07 16:32:16.850550300,0.25055029296875,0.0011984215816482,-0.0641821324825286,-0.0089215831831097
2024-12-07 16:32:16.860578600,0.26057861328125,0.0043942127376794,-0.052464235574007,-0.0121173737570643
2024-12-07 16:32:16.870606600,0.270606689453125,0.0086552668362855,-0.0535294972360134,-0.018508955836296
2024-12-07 16:32:16.880635000,0.280634765625,0.0097205303609371,-0.0588558167219162,-0.0195742193609476
2024-12-07 16:32:16.890663000,0.290662841796875,0.0065247397869825,-0.05459476262331,-0.0131826372817158
2024-12-07 16:32:16.900691200,0.300691162109375,0.0097205303609371,-0.0375505425035953,-0.0078563196584582
2024-12-07 16:32:16.910719500,0.310719482421875,0.0118510583415627,-0.0322242267429828,-0.0121173737570643
2024-12-07 16:32:16.920747500,0.32074755859375,0.007590003311634,-0.0332894884049892,-0.0142479008063673
2024-12-07 16:32:16.930775800,0.33077587890625,0.0022636852227151,-0.024767380207777,-0.0089215831831097
2024-12-07 16:32:16.940803800,0.340803955078125,-0.0030626328662037,-0.0034621069207787,0.0006657897611148
2024-12-07 16:32:16.950832000,0.35083203125,-0.0094542149454355,-0.0045273704454302,0.0049268445000052
2024-12-07 16:32:16.960860200,0.360860107421875,-0.0158457960933446,-0.0279631707817316,0.0049268445000052
2024-12-07 16:32:16.970888400,0.370888427734375,-0.010519478470087,-0.0471379160881042,0.003861580742523
2024-12-07 16:32:16.980916700,0.380916748046875,-0.0062584239058196,-0.0652474015951156,-0.0014647374628111
2024-12-07 16:32:16.990944800,0.39094482421875,-0.0115847419947385,-0.0801610872149467,-0.0035952648613601
2024-12-07 16:32:17.000973000,0.40097314453125,-0.0147805325686931,-0.076965294778347,-0.0089215831831097
2024-12-07 16:32:17.011001000,0.4110009765625,-0.0158457960933446,-0.0652474015951156,-0.0153131652623415
2024-12-07 16:32:17.021029400,0.421029296875,-0.0233026426285505,-0.05459476262331,-0.0217047464102506
2024-12-07 16:32:17.031057400,0.431057373046875,-0.036085806787014,-0.0567252896726131,-0.0195742193609476
2024-12-07 16:32:17.041085700,0.441085693359375,-0.0275636967271566,-0.066312663257122,-0.0153131652623415
2024-12-07 16:32:17.051113700,0.45111376953125,-0.0201068520545959,-0.0876179337501525,-0.018508955836296
2024-12-07 16:32:17.061142000,0.46114208984375,-0.0179763231426477,-0.1035968884825706,-0.0217047464102506
2024-12-07 16:32:17.071170300,0.47117041015625,-0.0254331696778535,-0.1131842583417892,-0.0270310640335083
2024-12-07 16:32:17.081198300,0.4811982421875,-0.0414121225476264,-0.1121189966797828,-0.030226856470108
2024-12-07 16:32:17.091226600,0.4912265625,-0.0392815954983234,-0.1195758432149887,-0.0334226451814174
2024-12-07 16:32:17.101254700,0.501254638671875,-0.0254331696778535,-0.1238368973135948,-0.0355531722307205
2024-12-07 16:32:17.111283000,0.511282958984375,-0.0147805325686931,-0.1174453198909759,-0.0355531722307205
2024-12-07 16:32:17.121311000,0.52131103515625,-0.0179763231426477,-0.1195758432149887,-0.0355531722307205
2024-12-07 16:32:17.131339300,0.53133935546875,-0.0137152690440416,-0.1142495274543762,-0.0270310640335083
2024-12-07 16:32:17.141367600,0.541367431640625,-0.0158457960933446,-0.105727419257164,-0.0121173737570643
2024-12-07 16:32:17.151395600,0.5513955078125,-0.0179763231426477,-0.0950747802853584,-0.0078563196584582
2024-12-07 16:32:17.161424000,0.561423828125,-0.0264984332025051,-0.0822916179895401,-0.016378428786993
2024-12-07 16:32:17.171452000,0.571451904296875,-0.024367906153202,-0.05459476262331,-0.016378428786993
2024-12-07 16:32:17.181480200,0.581480224609375,-0.0062584239058196,-0.010918952524662,-0.0174436923116445
2024-12-07 16:32:17.191508200,0.59150830078125,-0.0030626328662037,0.0039947386831045,-0.0227700099349021
2024-12-07 16:32:17.201536500,0.60153662109375,-0.0009321057004854,0.0316915921866893,-0.0142479008063673
2024-12-07 16:32:17.211564800,0.611564697265625,0.0033289489801973,0.0402137041091918,-0.0131826372817158
2024-12-07 16:32:17.221592800,0.6215927734375,-0.0211721155792474,-0.0460726507008075,-0.0270310640335083
2024-12-07 16:32:17.231621000,0.63162109375,-0.0275636967271566,-0.1089232042431831,-0.0259658005088567
2024-12-07 16:32:17.241649200,0.641649169921875,-0.0264984332025051,-0.1472726911306381,-0.0291615929454565
2024-12-07 16:32:17.251677400,0.651677490234375,-0.0446079149842262,-0.1664474457502365,-0.0270310640335083
2024-12-07 16:32:17.261705500,0.66170556640625,-0.0605868697166442,-0.1792306005954742,-0.0217047464102506
2024-12-07 16:32:17.271733800,0.671733642578125,-0.0701742395758628,-0.1621863842010498,-0.0078563196584582
2024-12-07 16:32:17.281762000,0.681761962890625,-0.0723047703504562,-0.1270326822996139,0.003861580742523
2024-12-07 16:32:17.291790000,0.6917900390625,-0.0733700320124626,-0.0780305638909339,0.015579480677843
2024-12-07 16:32:17.301818400,0.701818359375,-0.0786963477730751,-0.0205063242465257,0.015579480677843
2024-12-07 16:32:17.311846400,0.711846435546875,-0.0872184634208679,0.0647147670388221,0.0219710618257522
2024-12-07 16:32:17.321874700,0.721874755859375,-0.0723047703504562,0.0732368752360344,0.0262321177870035
2024-12-07 16:32:17.331902700,0.73190283203125,-0.0957405716180801,0.0647147670388221,0.027297381311655
2024-12-07 16:32:17.341931000,0.741930908203125,-0.0605868697166442,-0.0396810695528984,-0.0110521102324128
2024-12-07 16:32:17.351959000,0.751958984375,-0.0339552797377109,0.1083905771374702,0.0209057983011007
2024-12-07 16:32:17.361987300,0.7619873046875,-0.0264984332025051,0.0029294749256223,-0.0078563196584582
2024-12-07 16:32:17.372015600,0.772015625,-0.0233026426285505,0.0210389569401741,-0.0131826372817158
2024-12-07 16:32:17.382043600,0.782043701171875,-0.0019973693415522,0.0540621280670166,-0.0174436923116445
2024-12-07 16:32:17.392072000,0.792072021484375,0.0278300121426582,0.1520663797855377,-0.0249005369842052
2024-12-07 16:32:17.402100000,0.802099853515625,0.019307903945446,0.1115863695740699,-0.0472710728645324
2024-12-07 16:32:17.412128300,0.812128173828125,0.0225036945194005,0.1009337306022644,-0.0621847659349441
2024-12-07 16:32:17.422156300,0.82215625,0.0544616021215915,0.1051947847008705,-0.0600542388856411
2024-12-07 16:32:17.432184600,0.8321845703125,0.0810931921005249,0.1339569091796875,-0.0366184376180172
2024-12-07 16:32:17.442212900,0.842212890625,0.0778974071145057,0.204264298081398,-0.0153131652623415
2024-12-07 16:32:17.452241000,0.852240966796875,0.0555268675088882,0.2724411785602569,-0.0078563196584582
2024-12-07 16:32:17.462269200,0.862269287109375,0.047004759311676,0.3512706756591797,-0.0206394828855991
2024-12-07 16:32:17.472297200,0.872297119140625,0.0565921291708946,0.3661843836307525,-0.044075284153223
2024-12-07 16:32:17.482325500,0.882325439453125,0.0502005480229854,0.3427485823631286,-0.085620567202568
2024-12-07 16:32:17.492353500,0.892353515625,0.047004759311676,0.2564622163772583,-0.1484711170196533
2024-12-07 16:32:17.502381800,0.9023818359375,0.0384826473891735,0.1019989922642707,-0.150601640343666
2024-12-07 16:32:17.512410000,0.91241015625,0.102398470044136,-0.0300936978310346,-0.0984037294983863
2024-12-07 16:32:17.522438100,0.922438232421875,0.1194426864385604,0.0199736934155225,0.0006657897611148
2024-12-07 16:32:17.532466400,0.932466552734375,0.0874847769737243,0.0902810916304588,0.0304931718856096
2024-12-07 16:32:17.542494500,0.942494384765625,0.0502005480229854,0.0540621280670166,-0.0195742193609476
2024-12-07 16:32:17.552522800,0.952522705078125,0.0139815853908658,0.0071905297227203,-0.06964161247015
2024-12-07 16:32:17.562550800,0.96255078125,0.019307903945446,0.0508663393557071,-0.112252153456211
2024-12-07 16:32:17.572579000,0.9725791015625,0.0118510583415627,0.0860200375318527,-0.1676458716392517
2024-12-07 16:32:17.582607400,0.982607421875,-0.0350205413997173,0.1360874325037002,-0.1889511346817016
2024-12-07 16:32:17.592635400,0.992635498046875,-0.0584563426673412,0.0924116224050521,-0.15273217856884
2024-12-07 16:32:17.602663700,1.00266357421875,-0.0595216043293476,0.1062600463628768,-0.1282311081886291
2024-12-07 16:32:17.612691700,1.012691650390625,-0.024367906153202,0.2277000993490219,-0.1229047924280166
2024-12-07 16:32:17.622720000,1.022719970703125,-0.0009321057004854,0.148870587348938,-0.162319540977478
2024-12-07 16:32:17.632748000,1.032748046875,-0.1085237339138984,-0.1792306005954742,-0.1889511346817016
2024-12-07 16:32:17.642776300,1.0427763671875,-0.1830921918153762,-0.2665822207927704,-0.3199785649776459
2024-12-07 16:32:17.652804400,1.052804443359375,-0.2086585164070129,-0.4316980838775635,-0.4020038545131683
2024-12-07 16:32:17.662832600,1.06283251953125,-0.1916143000125885,-0.6032055616378784,-0.4265049397945404
2024-12-07 16:32:17.672861000,1.07286083984375,-0.107458472251892,-0.6937529444694519,-0.4030691385269165
2024-12-07 16:32:17.682889000,1.082888916015625,-0.0818921402096748,-0.7289066314697266,-0.3306311964988708
2024-12-07 16:32:17.692917200,1.092917236328125,-0.1447426974773407,-0.6756434440612793,-0.2688459157943725
2024-12-07 16:32:17.702945300,1.1029453125,-0.2278332561254501,-0.5073317885398865,-0.2677806615829468
2024-12-07 16:32:17.712973600,1.1129736328125,-0.260856419801712,-0.4828307330608368,-0.22943115234375
2024-12-07 16:32:17.723001600,1.123001708984375,-0.3141196072101593,-0.2005358785390854,-0.2603237926959991
2024-12-07 16:32:17.733030000,1.13302978515625,-0.3226417303085327,0.098803199827671,-0.3625891208648681
2024-12-07 16:32:17.743058200,1.14305810546875,-0.2555301189422607,0.0753674060106277,-0.4573975801467895
2024-12-07 16:32:17.753086200,1.153086181640625,-0.2043974548578262,-0.1004010960459709,-0.5181176066398621
2024-12-07 16:32:17.763114500,1.163114501953125,-0.1948100924491882,-0.2559295892715454,-0.5937513113021851
2024-12-07 16:32:17.773142500,1.173142578125,-0.2065279930830001,-0.3400854170322418,-0.6683197617530823
2024-12-07 16:32:17.783170800,1.1831708984375,-0.2427469491958618,-0.3006706535816192,-0.6917555928230286
2024-12-07 16:32:17.793198800,1.19319873046875,-0.4099933505058288,-0.1259674280881881,-0.652340829372406
2024-12-07 16:32:17.803227100,1.20322705078125,-0.5932186841964722,0.2340916842222213,-0.461658626794815
2024-12-07 16:32:17.813255400,1.21325537109375,-0.5229113101959229,0.448209673166275,-0.1601890176534652
2024-12-07 16:32:17.823283500,1.223283447265625,-0.2821617126464844,0.3214432895183563,-0.0664458200335502
2024-12-07 16:32:17.833311700,1.233311767578125,-0.0829574093222618,0.0572579205036163,-0.163384810090065
2024-12-07 16:32:17.843339800,1.24333984375,0.0789626687765121,-0.2324937880039215,-0.218778520822525
2024-12-07 16:32:17.853368000,1.2533681640625,0.2131858915090561,-0.4572644233703613,-0.2241048365831375
2024-12-07 16:32:17.863396000,1.26339599609375,0.2802974879741668,-0.6340981721878052,-0.2230395674705505
2024-12-07 16:32:17.873424400,1.27342431640625,0.2483395934104919,-0.7576687932014465,-0.2624543309211731
2024-12-07 16:32:17.883452700,1.28345263671875,0.1822932362556457,-0.7789740562438965,-0.275237500667572
2024-12-07 16:32:17.893480700,1.293480712890625,0.1439437568187713,-0.7118624448776245,-0.2241048365831375
2024-12-07 16:32:17.903509000,1.303509033203125,0.1205079481005668,-0.6234455704689026,-0.1676458716392517
2024-12-07 16:32:17.913537000,1.313537109375,0.113051101565361,-0.5392897129058838,-0.1367532163858413
2024-12-07 16:32:17.923565300,1.3235654296875,0.1183774247765541,-0.4316980838775635,-0.1271658539772033
2024-12-07 16:32:17.933593300,1.33359326171875,0.1407479643821716,-0.3230412006378174,-0.1207742616534233
2024-12-07 16:32:17.943621600,1.34362158203125,0.157792180776596,-0.2644517123699188,-0.1207742616534233
2024-12-07 16:32:17.953649700,1.353649658203125,0.1375521719455719,-0.3113232851028442,-0.1058605760335922
2024-12-07 16:32:17.963678000,1.363677978515625,0.0917458310723304,-0.3890875577926636,-0.1314269006252288
2024-12-07 16:32:17.973706200,1.373706298828125,0.0523310750722885,-0.5190497040748596,-0.1559279710054397
2024-12-07 16:32:17.983734300,1.383734375,-0.0062584239058196,-0.6575340032577515,-0.1655153334140777
2024-12-07 16:32:17.993762600,1.393762451171875,-0.0701742395758628,-0.6937529444694519,-0.1420795321464538
2024-12-07 16:32:18.003790600,1.40379052734375,-0.0925447791814804,-0.718254029750824,-0.0898816213011741
2024-12-07 16:32:18.013819000,1.41381884765625,-0.0872184634208679,-0.680969774723053,-0.046205811202526
2024-12-07 16:32:18.023847000,1.423846923828125,-0.0573910772800445,-0.5808349847793579,-0.0249005369842052
2024-12-07 16:32:18.033875200,1.433875244140625,-0.0275636967271566,-0.4636560082435608,-0.0195742193609476
2024-12-07 16:32:18.043903500,1.443903564453125,-0.0339552797377109,-0.2708432674407959,0.0113184265792369
2024-12-07 16:32:18.053931500,1.453931640625,-0.0531300231814384,-0.1078579425811767,0.0869521424174308
2024-12-07 16:32:18.063959800,1.463959716796875,-0.0051931603811681,-0.1483379602432251,-0.06964161247015
2024-12-07 16:32:18.073987800,1.47398779296875,0.0235689580440521,-0.1131842583417892,-0.2613890767097473
2024-12-07 16:32:18.084016000,1.48401611328125,0.0225036945194005,-0.05459476262331,-0.3924165070056915
2024-12-07 16:32:18.094044200,1.494044189453125,-0.0201068520545959,-0.0439421236515045,-0.4818986356258392
2024-12-07 16:32:18.104072400,1.504072509765625,-0.0861531943082809,-0.0695084556937217,-0.5170523524284363
2024-12-07 16:32:18.114100700,1.514100830078125,-0.052064761519432,-0.0450073890388011,-0.4488754570484161
2024-12-07 16:32:18.124128800,1.524128662109375,0.0821584612131118,-0.0162452701479196,-0.3039996027946472
2024-12-07 16:32:18.134157000,1.534156982421875,0.1428784877061844,0.0636495053768158,-0.1442100703716278
2024-12-07 16:32:18.144185000,1.54418505859375,0.0150468489155173,0.2031990438699722,-0.0621847659349441
2024-12-07 16:32:18.154213400,1.55421337890625,-0.049934234470129,0.2798980176448822,-0.0430100187659263
2024-12-07 16:32:18.164241400,1.564241455078125,-0.0691089779138565,0.3171822428703308,-0.068576343357563
2024-12-07 16:32:18.174269700,1.574269775390625,-0.0850879326462745,0.3150517344474792,-0.0877510905265808
2024-12-07 16:32:18.184298000,1.584298095703125,-0.0829574093222618,0.3576622605323791,-0.084555298089981
2024-12-07 16:32:18.194326000,1.594325927734375,-0.0137152690440416,0.4173170328140259,-0.044075284153223
2024-12-07 16:32:18.204354300,1.604354248046875,0.0182426404207944,0.4109254479408264,-0.0153131652623415
2024-12-07 16:32:18.214382300,1.61438232421875,-0.0019973693415522,0.3534012138843536,-0.032357383519411
2024-12-07 16:32:18.224410600,1.62441064453125,-0.0307594873011112,0.3150517344474792,-0.0366184376180172
2024-12-07 16:32:18.234438700,1.634438720703125,-0.0446079149842262,0.238352745771408,-0.0600542388856411
2024-12-07 16:32:18.244467000,1.644467041015625,-0.0829574093222618,0.0806937217712402,-0.1751027107238769
2024-12-07 16:32:18.254495000,1.654494873046875,-0.1213068962097168,0.0743021368980407,-0.1601890176534652
2024-12-07 16:32:18.264523300,1.664523193359375,-0.1095889955759048,0.1169126853346824,-0.0238352734595537
2024-12-07 16:32:18.274551600,1.674551513671875,-0.130894273519516,0.0892158299684524,-0.0259658005088567
2024-12-07 16:32:18.284579600,1.68457958984375,-0.128763735294342,0.071106344461441,-0.068576343357563
2024-12-07 16:32:18.294608000,1.69460791015625,-0.1223721578717231,0.0316915921866893,-0.0770984590053558
2024-12-07 16:32:18.304636000,1.704635986328125,-0.118111103773117,0.0039947386831045,-0.0834900364279747
2024-12-07 16:32:18.314664200,1.714664306640625,-0.1117195263504982,-0.0151800066232681,-0.09733846783638
2024-12-07 16:32:18.324692200,1.724692138671875,-0.1106542572379112,-0.040746334940195,-0.113317422568798
2024-12-07 16:32:18.334720500,1.734720458984375,-0.1138500496745109,-0.0790958255529403,-0.1356879621744156
2024-12-07 16:32:18.344748800,1.744748779296875,-0.1245026886463165,-0.1121189966797828,-0.1655153334140777
2024-12-07 16:32:18.354776800,1.75477685546875,-0.1394163817167282,-0.1270326822996139,-0.1942774504423141
2024-12-07 16:32:18.364805000,1.76480517578125,-0.1521995365619659,-0.1238368973135948,-0.2166479974985122
2024-12-07 16:32:18.374833200,1.774833251953125,-0.1628521829843521,-0.1131842583417892,-0.2262353599071502
2024-12-07 16:32:18.384861400,1.784861328125,-0.1735048145055771,-0.1142495274543762,-0.2422143220901489
2024-12-07 16:32:18.394889500,1.794889404296875,-0.1660479754209518,-0.1270326822996139,-0.2709764242172241
2024-12-07 16:32:18.404917800,1.804917724609375,-0.174570083618164,-0.1035968884825706,-0.2326269447803497
2024-12-07 16:32:18.414946000,1.814946044921875,-0.1788311302661895,-0.1270326822996139,-0.2283658981323242
2024-12-07 16:32:18.424974000,1.82497412109375,-0.186287984251976,-0.1398158520460128,-0.2496711611747741
2024-12-07 16:32:18.435002400,1.83500244140625,-0.2001364082098007,-0.1323590129613876,-0.273106962442398
2024-12-07 16:32:18.445030400,1.845030517578125,-0.2161153554916381,-0.120641104876995,-0.2922817170619964
2024-12-07 16:32:18.455058700,1.85505859375,-0.2384859025478363,-0.0812263563275337,-0.3082606792449951
2024-12-07 16:32:18.465086700,1.865086669921875,-0.2672480046749115,-0.0237021166831254,-0.3412838280200958
2024-12-07 16:32:18.475115000,1.875114990234375,-0.2970753908157348,0.0007989477599039,-0.3998733460903168
2024-12-07 16:32:18.485143300,1.885143310546875,-0.306662768125534,0.127565324306488,-0.3561975359916687
2024-12-07 16:32:18.495171300,1.89517138671875,-0.2928143441677093,0.249005377292633,-0.2422143220901489
2024-12-07 16:32:18.505199600,1.90519970703125,-0.2821617126464844,0.3906854391098022,-0.150601640343666
2024-12-07 16:32:18.515227600,1.9152275390625,-0.239551156759262,0.6197171211242676,-0.1229047924280166
2024-12-07 16:32:18.525256000,1.925255859375,-0.186287984251976,0.8040077090263367,-0.1303616315126419
2024-12-07 16:32:18.535284000,1.935283935546875,-0.1436774283647537,0.8998814821243286,-0.163384810090065
2024-12-07 16:32:18.545312300,1.945312255859375,-0.1245026886463165,0.9222519993782043,-0.2006690353155136
2024-12-07 16:32:18.555340300,1.95534033203125,-0.1553953289985656,0.8977509140968323,-0.2251701056957245
2024-12-07 16:32:18.565368600,1.96536865234375,-0.1916143000125885,0.8018772006034851,-0.1974732428789138
2024-12-07 16:32:18.575396900,1.97539697265625,-0.262986958026886,0.6910898089408875,-0.1335574239492416
2024-12-07 16:32:18.585425000,1.9854248046875,-0.3460775315761566,0.5909550189971924,-0.0536626577377319
2024-12-07 16:32:18.595453200,1.995453125,-0.3918838500976562,0.4822981059551239,0.0304931718856096
2024-12-07 16:32:18.605481200,2.005481201171875,-0.4057323038578033,0.3896201848983764,0.1114532053470611
2024-12-07 16:32:18.615509500,2.015509521484375,-0.3876228034496307,0.3235738277435303,0.1806953400373459
2024-12-07 16:32:18.625537500,2.02553759765625,-0.3343596160411834,0.2575274705886841,0.2062616795301437
2024-12-07 16:32:18.635565800,2.03556591796875,-0.2789659202098846,0.1744369268417358,0.1668469160795211
2024-12-07 16:32:18.645594000,2.045593994140625,-0.317315399646759,0.1019989922642707,0.0773647725582122
2024-12-07 16:32:18.655622100,2.0556220703125,-0.3588607013225555,0.0402137041091918,0.003861580742523
2024-12-07 16:32:18.665650400,2.065650390625,-0.363121747970581,-0.0620516054332256,-0.0174436923116445
2024-12-07 16:32:18.675678500,2.075678466796875,-0.319445937871933,-0.1632516533136367,-0.0238352734595537
2024-12-07 16:32:18.685706800,2.085706787109375,-0.2225069403648376,-0.1632516533136367,-0.0728374049067497
2024-12-07 16:32:18.695734800,2.09573486328125,-0.1053279414772987,-0.0631168708205223,-0.1804290264844894
2024-12-07 16:32:18.705763000,2.10576318359375,-0.0233026426285505,0.0625842362642288,-0.2997385561466217
2024-12-07 16:32:18.715791000,2.115791015625,-0.0350205413997173,0.1307611167430877,-0.3455449044704437
2024-12-07 16:32:18.725819400,2.1258193359375,-0.090414248406887,0.2031990438699722,-0.2603237926959991
2024-12-07 16:32:18.735847400,2.135847412109375,-0.1617869138717651,0.2628538012504577,-0.1186437383294105
2024-12-07 16:32:18.745875500,2.14587548828125,-0.2438122183084488,0.2926811873912811,0.0209057983011007
2024-12-07 16:32:18.755903700,2.15590380859375,-0.3098585605621338,0.3193127810955047,0.1391500681638717
2024-12-07 16:32:18.765931800,2.165931884765625,-0.3524691164493561,0.3597927987575531,0.2318280041217804
2024-12-07 16:32:18.775959800,2.175959716796875,-0.3684480488300323,0.3736412227153778,0.3053312003612518
2024-12-07 16:32:18.785988000,2.185988037109375,-0.3609912097454071,0.3491401672363281,0.3660512268543243
2024-12-07 16:32:18.796016000,2.19601611328125,-0.3428817391395569,0.3384875357151031,0.4267712533473968
2024-12-07 16:32:18.806044200,2.206044189453125,-0.319445937871933,0.3704454302787781,0.5045354962348938
2024-12-07 16:32:18.816072400,2.216072509765625,-0.3002711832523346,0.4226433634757995,0.5993439555168152
2024-12-07 16:32:18.826100500,2.2261005859375,-0.2917490899562835,0.4684496819972992,0.7016092538833618
2024-12-07 16:32:18.836128800,2.236128662109375,-0.2597911655902862,0.5536707639694214,0.8198535442352295
2024-12-07 16:32:18.846156800,2.24615673828125,-0.3162501454353332,0.7315698266029358,0.9072051644325256
2024-12-07 16:32:18.856184800,2.256184814453125,-0.3119890987873077,0.8743151426315308,0.9977525472640992
2024-12-07 16:32:18.866213000,2.266213134765625,-0.2715090811252594,0.9318393468856812,1.0808430910110474
2024-12-07 16:32:18.876241200,2.2762412109375,-0.2129195630550384,0.8870983123779297,1.1415631771087646
2024-12-07 16:32:18.886269200,2.286269287109375,-0.1756353378295898,0.7741803526878357,1.1894999742507937
2024-12-07 16:32:18.896297500,2.29629736328125,-0.1436774283647537,0.6591318845748901,1.2054790258407593
2024-12-07 16:32:18.906325500,2.306325439453125,-0.0605868697166442,0.550475001335144,1.1831084489822388
2024-12-07 16:32:18.916353500,2.316353515625,0.0406131781637668,0.4822981059551239,1.1213231086730957
2024-12-07 16:32:18.926381800,2.3263818359375,0.1258342713117599,0.448209673166275,1.0201231241226196
2024-12-07 16:32:18.936409900,2.336409912109375,0.1812279820442199,0.4258391261100769,0.8901609182357788
2024-12-07 16:32:18.946438000,2.34643798828125,0.2653838098049164,0.3842938542366028,0.7474156022071838
2024-12-07 16:32:18.956466200,2.356466064453125,0.3548659384250641,0.2553969621658325,0.6099966168403625
2024-12-07 16:32:18.966494200,2.366494140625,0.4230428338050842,0.0284958016127347,0.4810996949672699
2024-12-07 16:32:18.976522500,2.3765224609375,0.4741754829883575,-0.1749695539474487,0.3777691125869751
2024-12-07 16:32:18.986550500,2.386550537109375,0.5071986317634583,-0.271908551454544,0.323440670967102
2024-12-07 16:32:18.996578600,2.39657861328125,0.5008070468902588,-0.2591253817081451,0.2978743314743042
2024-12-07 16:32:19.006606800,2.40660693359375,0.4528702199459076,-0.15899059176445,0.279764860868454
2024-12-07 16:32:19.016635000,2.416634765625,0.3814975321292877,-0.0322242267429828,0.2712427675724029
2024-12-07 16:32:19.026663000,2.426662841796875,0.3090596199035644,0.098803199827671,0.27763432264328
2024-12-07 16:32:19.036691200,2.436691162109375,0.2579269707202911,0.2000032514333725,0.2755038142204284
2024-12-07 16:32:19.046719200,2.44671923828125,0.2280995845794677,0.259658008813858,0.2531332671642303
2024-12-07 16:32:19.056747300,2.456747314453125,0.2323606312274933,0.2713759243488312,0.212653249502182
2024-12-07 16:32:19.066775600,2.466775634765625,0.2909501194953918,0.2564622163772583,0.1870869249105453
2024-12-07 16:32:19.076803600,2.476803466796875,0.3740406930446625,0.2245043069124221,0.1753690242767334
2024-12-07 16:32:19.086831900,2.486831787109375,0.4070638716220855,0.1755021810531616,0.1732385009527206
2024-12-07 16:32:19.096860000,2.49685986328125,0.3878891170024872,0.1211737394332885,0.1668469160795211
2024-12-07 16:32:19.106888000,2.506887939453125,0.3932154476642608,0.0870852991938591,0.14554163813591
2024-12-07 16:32:19.116916200,2.516916259765625,0.4102596640586853,0.0487358123064041,0.1210405826568603
2024-12-07 16:32:19.126944300,2.5269443359375,0.4155859649181366,-0.0311589613556861,0.1135837361216545
2024-12-07 16:32:19.136972300,2.53697216796875,0.413455456495285,-0.1749695539474487,0.1253016293048858
2024-12-07 16:32:19.147000600,2.54700048828125,0.4038680791854858,-0.3560643792152405,0.1647163927555084
2024-12-07 16:32:19.157028600,2.557028564453125,0.3687143921852112,-0.5339633822441101,0.2265016883611679
2024-12-07 16:32:19.167056600,2.567056640625,0.289884865283966,-0.6575340032577515,0.2765690684318542
2024-12-07 16:32:19.177085000,2.5770849609375,0.1865542978048324,-0.6990792751312256,0.2957438230514526
2024-12-07 16:32:19.187113000,2.587113037109375,0.0778974071145057,-0.6628602743148804,0.2680469751358032
2024-12-07 16:32:19.197141200,2.597141357421875,-0.0233026426285505,-0.5776392221450806,0.2158490419387817
2024-12-07 16:32:19.207169300,2.607169189453125,-0.1106542572379112,-0.4679170548915863,0.1711079776287078
2024-12-07 16:32:19.217197300,2.617197265625,-0.1660479754209518,-0.3699128031730652,0.1498026996850967
2024-12-07 16:32:19.227225600,2.6272255859375,-0.185222715139389,-0.3848264813423157,0.12423637509346
2024-12-07 16:32:19.237253600,2.637253662109375,-0.1830921918153762,-0.479634940624237,0.0731037184596061
2024-12-07 16:32:19.247281700,2.64728173828125,-0.1767006069421768,-0.592552900314331,0.0294279083609581
2024-12-07 16:32:19.257310000,2.65731005859375,-0.1319595277309417,-0.756603479385376,-0.0387489646673202
2024-12-07 16:32:19.267338000,2.667337890625,-0.0605868697166442,-0.823715090751648,-0.1079910993576049
2024-12-07 16:32:19.277366300,2.6773662109375,-0.0009321057004854,-0.6958834528923035,-0.163384810090065
2024-12-07 16:32:19.287394300,2.687394287109375,0.0320910662412643,-0.538224458694458,-0.2379532605409622
2024-12-07 16:32:19.297422600,2.697422607421875,0.0533963404595851,-0.4103928208351135,-0.3327617347240448
2024-12-07 16:32:19.307451000,2.707450927734375,0.0597879216074943,-0.3592601716518402,-0.453136533498764
2024-12-07 16:32:19.317479000,2.71747900390625,0.0448742322623729,-0.3571296334266662,-0.5564671158790588
2024-12-07 16:32:19.327507200,2.727507080078125,0.0171773768961429,-0.4071970283985138,-0.6182523965835571
2024-12-07 16:32:19.337535200,2.73753515625,-0.0073236874304711,-0.4913528561592102,-0.6502103209495544
2024-12-07 16:32:19.347563500,2.7475634765625,-0.0169110596179962,-0.5904223918914795,-0.6789724230766296
2024-12-07 16:32:19.357591600,2.757591552734375,-0.0094542149454355,-0.7107971906661987,-0.7162566184997559
2024-12-07 16:32:19.367619800,2.767619873046875,0.0118510583415627,-0.8119972348213196,-0.7556713819503784
2024-12-07 16:32:19.377648000,2.777648193359375,0.0363521203398704,-0.8333024978637695,-0.7791072130203247
2024-12-07 16:32:19.387676200,2.78767626953125,0.0810931921005249,-0.772582471370697,-0.7908250689506531
2024-12-07 16:32:19.397704400,2.797704345703125,0.1364869028329849,-0.6703171730041504,-0.8046735525131226
2024-12-07 16:32:19.407732500,2.807732421875,0.157792180776596,-0.5797697305679321,-0.8121303915977478
2024-12-07 16:32:19.417760800,2.8177607421875,0.1322258561849594,-0.5201149582862854,-0.7876293063163757
2024-12-07 16:32:19.427788800,2.827788818359375,0.060853186994791,-0.479634940624237,-0.7173219323158264
2024-12-07 16:32:19.437817000,2.837817138671875,-0.0435426495969295,-0.4647212624549866,-0.5937513113021851
2024-12-07 16:32:19.447845400,2.847845458984375,-0.1553953289985656,-0.4583296775817871,-0.4435491561889648
2024-12-07 16:32:19.457873400,2.857873291015625,-0.2352901101112365,-0.4476770460605621,-0.3189133107662201
2024-12-07 16:32:19.467901700,2.867901611328125,-0.2597911655902862,-0.4274370372295379,-0.2336922138929367
2024-12-07 16:32:19.477929700,2.8779296875,-0.2352901101112365,-0.3443464636802673,-0.1420795321464538
2024-12-07 16:32:19.487958000,2.8879580078125,-0.1937448233366012,-0.2442116886377334,-0.046205811202526
2024-12-07 16:32:19.497986000,2.897986083984375,-0.1532648056745529,-0.2186453640460968,0.0230363253504037
2024-12-07 16:32:19.508014300,2.908014404296875,-0.1031974181532859,-0.2090579867362976,0.0475373901426792
2024-12-07 16:32:19.518042400,2.91804248046875,-0.063782662153244,-0.2101232558488845,0.0219710618257522
2024-12-07 16:32:19.528070700,2.928070556640625,-0.0424773879349231,-0.2580601274967193,-0.0046605286188423
2024-12-07 16:32:19.538099000,2.938098876953125,-0.0446079149842262,-0.3091927766799927,-0.0110521102324128
2024-12-07 16:32:19.548127000,2.948126953125,-0.0509994961321353,-0.3059969842433929,-0.0142479008063673
2024-12-07 16:32:19.558155300,2.9581552734375,-0.038216333836317,-0.2474074810743332,-0.0249005369842052
2024-12-07 16:32:19.568183300,2.968183349609375,-0.0083889514207839,-0.1728390306234359,-0.0483363382518291
2024-12-07 16:32:19.578211600,2.978211669921875,0.0320910662412643,-0.1238368973135948,-0.0749679282307624
2024-12-07 16:32:19.588239600,2.988239501953125,0.0896153002977371,-0.1099884733557701,-0.1079910993576049
2024-12-07 16:32:19.598268000,2.998267822265625,0.1407479643821716,-0.1387505829334259,-0.1442100703716278
2024-12-07 16:32:19.608296000,3.0082958984375,0.1748363971710205,-0.2111885100603103,-0.1782985031604766
2024-12-07 16:32:19.618324200,3.01832421875,0.1833585053682327,-0.3230412006378174,-0.207060620188713
2024-12-07 16:32:19.628352300,3.028352294921875,0.1663142889738083,-0.4551338851451874,-0.2241048365831375
2024-12-07 16:32:19.638380300,3.03838037109375,0.1332911103963852,-0.5510076284408569,-0.2262353599071502
2024-12-07 16:32:19.648408600,3.04840869140625,0.0970721468329429,-0.6064013242721558,-0.2102564126253128
2024-12-07 16:32:19.658436600,3.0584365234375,0.0789626687765121,-0.6191844940185547,-0.1814942955970764
2024-12-07 16:32:19.668465000,3.06846484375,0.0672447681427002,-0.5637907981872559,-0.1388837546110153
2024-12-07 16:32:19.678493000,3.078492919921875,0.0619184486567974,-0.4743086397647857,-0.0909468829631805
2024-12-07 16:32:19.688521000,3.08852099609375,0.0427437052130699,-0.3635212182998657,-0.0408794917166233
2024-12-07 16:32:19.698549200,3.09854931640625,0.0182426404207944,-0.2793653905391693,0.0145142171531915
2024-12-07 16:32:19.708577300,3.108577392578125,-0.0201068520545959,-0.2687127590179443,0.0613858178257942
2024-12-07 16:32:19.718605300,3.118605224609375,-0.0573910772800445,-0.3198454082012176,0.0869521424174308
2024-12-07 16:32:19.728633600,3.128633544921875,-0.0776310861110687,-0.4199801981449127,0.0922784656286239
2024-12-07 16:32:19.738661600,3.13866162109375,-0.0893489867448806,-0.5052012801170349,0.0709731876850128
2024-12-07 16:32:19.748689700,3.148689697265625,-0.0818921402096748,-0.5307676196098328,0.0219710618257522
2024-12-07 16:32:19.758718000,3.158718017578125,-0.0531300231814384,-0.5265065431594849,-0.0376837030053138
2024-12-07 16:32:19.768746000,3.16874609375,-0.010519478470087,-0.5115928649902344,-0.085620567202568
2024-12-07 16:32:19.778774300,3.178774169921875,0.035286858677864,-0.4775044322013855,-0.1026647835969924
2024-12-07 16:32:19.788802300,3.18880224609375,0.0683100298047065,-0.3901528120040893,-0.1069258376955986
2024-12-07 16:32:19.798830300,3.198830322265625,0.0864195153117179,-0.2921485602855682,-0.1218395307660102
2024-12-07 16:32:19.808858600,3.208858642578125,0.0832237228751182,-0.2175800949335098,-0.15273217856884
2024-12-07 16:32:19.818886700,3.21888671875,0.0683100298047065,-0.2186453640460968,-0.1814942955970764
2024-12-07 16:32:19.828914700,3.228914794921875,0.0406131781637668,-0.2175800949335098,-0.2006690353155136
2024-12-07 16:32:19.838943000,3.23894287109375,0.0118510583415627,-0.2079927325248718,-0.2134522050619125
2024-12-07 16:32:19.848971000,3.248970947265625,-0.0094542149454355,-0.1813611388206482,-0.2315616905689239
2024-12-07 16:32:19.858999000,3.2589990234375,-0.0179763231426477,-0.121706373989582,-0.2656501233577728
2024-12-07 16:32:19.869027300,3.26902734375,-0.0169110596179962,-0.0364852808415889,-0.2997385561466217
2024-12-07 16:32:19.879055400,3.279055419921875,-0.0286289602518081,0.0529968664050102,-0.3114564716815948
2024-12-07 16:32:19.889083600,3.289083740234375,-0.0541952885687351,0.1435442715883255,-0.2890859246253967
2024-12-07 16:32:19.899111700,3.299111572265625,-0.0818921402096748,0.2362222075462341,-0.2454101145267486
2024-12-07 16:32:19.909139700,3.3091396484375,-0.0989363640546798,0.2926811873912811,-0.2006690353155136
2024-12-07 16:32:19.919168000,3.31916796875,-0.1106542572379112,0.2948117256164551,-0.1655153334140777
2024-12-07 16:32:19.929196000,3.329196044921875,-0.0936100408434867,0.2937464416027069,-0.1175784766674041
2024-12-07 16:32:19.939224000,3.33922412109375,-0.0691089779138565,0.2543317079544067,-0.085620567202568
2024-12-07 16:32:19.949252400,3.34925244140625,-0.038216333836317,0.2149169445037841,-0.06964161247015
2024-12-07 16:32:19.959280400,3.3592802734375,-0.0062584239058196,0.2287653684616089,-0.0483363382518291
2024-12-07 16:32:19.969308400,3.369308349609375,0.021438430994749,0.3043990731239319,-0.0238352734595537
2024-12-07 16:32:19.979336700,3.379336669921875,0.0448742322623729,0.3704454302787781,-0.030226856470108
2024-12-07 16:32:19.989364700,3.38936474609375,0.0683100298047065,0.4173170328140259,-0.0653805583715438
2024-12-07 16:32:19.999393000,3.39939306640625,0.0821584612131118,0.4684496819972992,-0.1015995219349861
2024-12-07 16:32:20.009421000,3.409421142578125,0.0800279304385185,0.5099949836730957,-0.1442100703716278
2024-12-07 16:32:20.019449000,3.419448974609375,0.0597879216074943,0.5067991614341736,-0.1825595498085022
2024-12-07 16:32:20.029477400,3.429477294921875,0.0235689580440521,0.5036033987998962,-0.2006690353155136
2024-12-07 16:32:20.039505400,3.43950537109375,-0.0201068520545959,0.5004075765609741,-0.2027995586395263
2024-12-07 16:32:20.049533400,3.449533447265625,-0.0584563426673412,0.5600623488426208,-0.1772332340478897
2024-12-07 16:32:20.059561700,3.459561767578125,-0.1063932031393051,0.7038729786872864,-0.1399490088224411
2024-12-07 16:32:20.069589800,3.46958984375,-0.128763735294342,0.8679235577583313,-0.1111868917942047
2024-12-07 16:32:20.079617800,3.47961767578125,-0.1372858583927154,0.990428864955902,-0.1015995219349861
2024-12-07 16:32:20.089646000,3.48964599609375,-0.1671132296323776,1.0703235864639282,-0.112252153456211
2024-12-07 16:32:20.099674000,3.499674072265625,-0.2054627239704132,1.0809762477874756,-0.1154479458928108
2024-12-07 16:32:20.109702400,3.509702392578125,-0.2512690722942352,1.0277130603790283,-0.09733846783638
2024-12-07 16:32:20.119730400,3.51973046875,-0.2992059290409088,0.9819067716598512,-0.0525973923504352
2024-12-07 16:32:20.129758500,3.529758544921875,-0.3364901542663574,0.9467530846595764,-0.0110521102324128
2024-12-07 16:32:20.139786800,3.539786865234375,-0.3609912097454071,0.9126646518707277,0.0070573715493083
2024-12-07 16:32:20.149814800,3.549814697265625,-0.3695133328437805,0.8807067275047302,0.0017310534603893
2024-12-07 16:32:20.159842800,3.5598427734375,-0.3641870021820068,0.8380961418151855,-0.0217047464102506
2024-12-07 16:32:20.169871000,3.56987109375,-0.3556649088859558,0.7986814379692078,-0.0589889734983444
2024-12-07 16:32:20.179899100,3.579899169921875,-0.3535343706607818,0.75180983543396,-0.1111868917942047
2024-12-07 16:32:20.189927200,3.58992724609375,-0.3354249000549316,0.6612623929977417,-0.1559279710054397
2024-12-07 16:32:20.199955500,3.59995556640625,-0.3024017214775085,0.5121254920959473,-0.1985385119915008
2024-12-07 16:32:20.209983500,3.6099833984375,-0.2438122183084488,0.3416832983493805,-0.2486059069633484
2024-12-07 16:32:20.220011800,3.62001171875,-0.1639174371957779,0.2085253596305847,-0.3018690943717956
2024-12-07 16:32:20.230039800,3.630039794921875,-0.0659131854772567,0.1520663797855377,-0.34021857380867
2024-12-07 16:32:20.240067800,3.64006787109375,0.0278300121426582,0.1637842804193496,-0.3434143662452698
2024-12-07 16:32:20.250096000,3.65009619140625,0.113051101565361,0.2170474678277969,-0.3082606792449951
2024-12-07 16:32:20.260124200,3.660124267578125,0.1908153444528579,0.316116988658905,-0.2475406378507614
2024-12-07 16:32:20.270152200,3.670152099609375,0.2536658942699432,0.4620580971240997,-0.1601890176534652
2024-12-07 16:32:20.280180500,3.680180419921875,0.2856238186359405,0.6655234694480896,-0.0227700099349021
2024-12-07 16:32:20.290208500,3.69020849609375,0.3090596199035644,0.9350351691246032,0.135954275727272
2024-12-07 16:32:20.300236500,3.700236572265625,0.3559312224388122,1.23757004737854,0.3277017176151275
2024-12-07 16:32:20.310264800,3.710264892578125,0.4177165031433105,1.468732237815857,0.54927659034729
2024-12-07 16:32:20.320292900,3.72029296875,0.4624575674533844,1.5038859844207764,0.7250450849533081
2024-12-07 16:32:20.330321200,3.730321044921875,0.5018723607063293,1.233309030532837,0.8294408917427063
2024-12-07 16:32:20.340349200,3.74034912109375,0.4880239069461822,0.7155908346176147,0.9274451732635498
2024-12-07 16:32:20.350377200,3.750377197265625,0.3527354300022125,0.2202432602643966,1.0701904296875
2024-12-07 16:32:20.360405500,3.760405517578125,0.1258342713117599,-0.1675127148628235,1.1777820587158203
2024-12-07 16:32:20.370433500,3.77043359375,-0.0701742395758628,-0.5073317885398865,1.1703252792358398
2024-12-07 16:32:20.380461600,3.780461669921875,-0.1511342823505401,-0.7065361142158508,0.9870999455451964
2024-12-07 16:32:20.390489900,3.79048974609375,-0.0850879326462745,-0.60533607006073,0.7069355845451355
2024-12-07 16:32:20.400518000,3.800517822265625,0.0384826473891735,-0.293213814496994,0.5066660046577454
2024-12-07 16:32:20.410546000,3.8105458984375,0.1599227041006088,-0.1238368973135948,0.4225101768970489
2024-12-07 16:32:20.420574200,3.82057421875,0.2600574791431427,-0.1888179779052734,0.411857545375824
2024-12-07 16:32:20.430602200,3.830602294921875,0.3250385820865631,-0.3688475489616394,0.4246407151222229
2024-12-07 16:32:20.440630500,3.840630615234375,0.3271690905094147,-0.5073317885398865,0.4235754609107971
2024-12-07 16:32:20.450658600,3.850658447265625,0.2781669795513153,-0.5850960612297058,0.3671164810657501
2024-12-07 16:32:20.460686600,3.8606865234375,0.2131858915090561,-0.58403080701828,0.2414153665304184
2024-12-07 16:32:20.470715000,3.87071484375,0.1226384788751602,-0.4508728384971618,0.0837563574314117
2024-12-07 16:32:20.480743000,3.880742919921875,0.0065247397869825,-0.2239716798067093,-0.0557931847870349
2024-12-07 16:32:20.490771000,3.89077099609375,-0.1042626798152923,-0.0556600242853164,-0.1346226930618286
2024-12-07 16:32:20.500799200,3.90079931640625,-0.1713742911815643,-0.0311589613556861,-0.1442100703716278
2024-12-07 16:32:20.510827300,3.9108271484375,-0.2022669315338134,-0.0865526720881462,-0.123970054090023
2024-12-07 16:32:20.520855300,3.920855224609375,-0.2150501012802124,-0.1547295451164245,-0.0909468829631805
2024-12-07 16:32:20.530883600,3.930883544921875,-0.2182458937168121,-0.2122537791728973,-0.0366184376180172
2024-12-07 16:32:20.540911600,3.94091162109375,-0.2012016773223877,-0.293213814496994,0.0315584354102611
2024-12-07 16:32:20.550940000,3.95093994140625,-0.1798963993787765,-0.3656517565250397,0.1018658354878425
2024-12-07 16:32:20.560968000,3.960968017578125,-0.1692437678575515,-0.4050664901733398,0.1636511236429214
2024-12-07 16:32:20.570996000,3.970995849609375,-0.1585911214351654,-0.4221107065677643,0.2115879952907562
2024-12-07 16:32:20.581024300,3.981024169921875,-0.1511342823505401,-0.4295675754547119,0.2446111589670181
2024-12-07 16:32:20.591052300,3.99105224609375,-0.1447426974773407,-0.4221107065677643,0.2552638053894043
2024-12-07 16:32:20.601080300,4.001080322265625,-0.1436774283647537,-0.3912180662155151,0.2392848432064056
2024-12-07 16:32:20.611108600,4.011108642578125,-0.1479384899139404,-0.3432812094688415,0.2041311413049698
2024-12-07 16:32:20.621136600,4.02113671875,-0.1511342823505401,-0.2793653905391693,0.1679121851921081
2024-12-07 16:32:20.631164700,4.03116455078125,-0.1415469050407409,-0.2484727501869201,0.1327584832906723
2024-12-07 16:32:20.641193000,4.04119287109375,-0.1138500496745109,-0.2580601274967193,0.0954742506146431
2024-12-07 16:32:20.651221000,4.051220947265625,-0.0776310861110687,-0.2644517123699188,0.0581900253891944
2024-12-07 16:32:20.661249300,4.061249267578125,0.0544616021215915,-0.228232741355896,-0.0121173737570643
2024-12-07 16:32:20.671277300,4.07127734375,0.2004027217626571,-0.1185105815529823,-0.0632500275969505
2024-12-07 16:32:20.681305300,4.081305419921875,0.3282343447208404,0.0455400198698043,-0.0717721357941627
2024-12-07 16:32:20.691333600,4.091333740234375,0.4113249182701111,0.2095906287431717,-0.0707068741321563
2024-12-07 16:32:20.701361700,4.101361572265625,0.4422175586223602,0.2894853949546814,-0.084555298089981
2024-12-07 16:32:20.711389700,4.1113896484375,0.4336954653263092,0.2852243483066559,-0.1143826842308044
2024-12-07 16:32:20.721418000,4.12141796875,0.3932154476642608,0.261788547039032,-0.1495363861322403
2024-12-07 16:32:20.731446000,4.131446044921875,0.3239732980728149,0.2436790615320205,-0.1857553422451019
2024-12-07 16:32:20.741474000,4.14147412109375,0.23662169277668,0.2522011697292328,-0.2209090441465377
2024-12-07 16:32:20.751502300,4.15150244140625,0.1428784877061844,0.3406180441379547,-0.2347574681043625
2024-12-07 16:32:20.761530400,4.1615302734375,0.035286858677864,0.4460791349411011,-0.2304964214563369
2024-12-07 16:32:20.771558700,4.17155859375,-0.063782662153244,0.4290349185466766,-0.2262353599071502
2024-12-07 16:32:20.781586700,4.181586669921875,-0.1330247968435287,0.2404832690954208,-0.2241048365831375
2024-12-07 16:32:20.791614700,4.19161474609375,-0.1692437678575515,-0.0641821324825286,-0.1868206113576889
2024-12-07 16:32:20.801643000,4.20164306640625,-0.186287984251976,-0.358194887638092,-0.084555298089981
2024-12-07 16:32:20.811671000,4.211671142578125,-0.2107890397310257,-0.4423507153987884,0.0475373901426792
2024-12-07 16:32:20.821699000,4.221698974609375,-0.195875346660614,-0.3486075401306152,0.1529984921216964
2024-12-07 16:32:20.831727400,4.231727294921875,-0.129829004406929,-0.1984053552150726,0.1966743022203445
2024-12-07 16:32:20.841755400,4.24175537109375,-0.0563258156180381,0.0018642114009708,0.1711079776287078
2024-12-07 16:32:20.851783400,4.251783447265625,-0.0115847419947385,0.1786979734897613,0.0933437272906303
2024-12-07 16:32:20.861811700,4.261811767578125,0.0033289489801973,0.204264298081398,-0.0046605286188423
2024-12-07 16:32:20.871839700,4.27183984375,0.0011984215816482,0.0849547758698463,-0.0920121446251869
2024-12-07 16:32:20.881868000,4.281867919921875,-0.0094542149454355,-0.0908137261867523,-0.1612542867660522
2024-12-07 16:32:20.891896000,4.29189599609375,-0.0275636967271566,-0.2548643350601196,-0.2006690353155136
2024-12-07 16:32:20.901924000,4.301924072265625,-0.0350205413997173,-0.3912180662155151,-0.1846900880336761
2024-12-07 16:32:20.911952400,4.311952392578125,-0.0211721155792474,-0.4721781015396118,-0.1420795321464538
2024-12-07 16:32:20.921980400,4.32198046875,0.0118510583415627,-0.4785696864128113,-0.1101216301321983
2024-12-07 16:32:20.932008400,4.332008544921875,0.0459394939243793,-0.3976096510887146,-0.1026647835969924
2024-12-07 16:32:20.942036700,4.34203662109375,0.0651142373681068,-0.2729738056659698,-0.1303616315126419
2024-12-07 16:32:20.952064800,4.352064697265625,0.0778974071145057,-0.160055860877037,-0.1836248189210891
2024-12-07 16:32:20.962092800,4.3620927734375,0.0693752914667129,-0.0695084556937217,-0.22943115234375
2024-12-07 16:32:20.972121000,4.37212109375,0.0267647486180067,-0.0418115966022014,-0.2315616905689239
2024-12-07 16:32:20.982149000,4.382149169921875,-0.038216333836317,-0.0695084556937217,-0.2049300968647003
2024-12-07 16:32:20.992177400,4.392177490234375,-0.0829574093222618,-0.0993358343839645,-0.1782985031604766
2024-12-07 16:32:21.002205400,4.402205322265625,-0.102132149040699,-0.0918789878487587,-0.1921469271183014
2024-12-07 16:32:21.012233500,4.4122333984375,-0.0968058332800865,-0.0141147430986166,-0.2432795912027359
2024-12-07 16:32:21.022261800,4.42226171875,-0.091479517519474,0.115847423672676,-0.3071953952312469
2024-12-07 16:32:21.032289800,4.432289794921875,-0.1138500496745109,0.1968074589967727,-0.3551322519779205
2024-12-07 16:32:21.042317800,4.44231787109375,-0.1447426974773407,0.19467693567276,-0.3700459599494934
2024-12-07 16:32:21.052346000,4.45234619140625,-0.1798963993787765,0.1307611167430877,-0.3711112141609192
2024-12-07 16:32:21.062374100,4.4623740234375,-0.2001364082098007,0.0764326676726341,-0.3572627902030945
2024-12-07 16:32:21.072402200,4.472402099609375,-0.2065279930830001,0.0423442311584949,-0.3466101586818695
2024-12-07 16:32:21.082430500,4.482430419921875,-0.2033322006464004,0.0370179116725921,-0.3519364893436432
2024-12-07 16:32:21.092458500,4.49245849609375,-0.184157446026802,0.0615189746022224,-0.3647196292877197
2024-12-07 16:32:21.102486800,4.50248681640625,-0.1639174371957779,0.0732368752360344,-0.3764375448226928
2024-12-07 16:32:21.112514800,4.512514892578125,-0.1564605981111526,0.0551273934543132,-0.3902859687805176
2024-12-07 16:32:21.122542800,4.52254296875,-0.1543300747871399,0.0231694839894771,-0.396677553653717
2024-12-07 16:32:21.132571100,4.532571044921875,-0.1575258672237396,-0.0162452701479196,-0.396677553653717
2024-12-07 16:32:21.142599200,4.54259912109375,-0.1671132296323776,-0.0620516054332256,-0.3924165070056915
2024-12-07 16:32:21.152627200,4.552627197265625,-0.195875346660614,-0.1099884733557701,-0.3870901763439178
2024-12-07 16:32:21.162655500,4.562655517578125,-0.2022669315338134,-0.1643169224262237,-0.3668501675128937
2024-12-07 16:32:21.172683500,4.57268359375,-0.2097237855195999,-0.1952095627784729,-0.3530017435550689
2024-12-07 16:32:21.182711600,4.582711669921875,-0.195875346660614,-0.1483379602432251,-0.3519364893436432
2024-12-07 16:32:21.192739800,4.59273974609375,-0.1575258672237396,-0.0098536890000104,-0.3647196292877197
2024-12-07 16:32:21.202768000,4.602767822265625,-0.1223721578717231,0.2021337747573852,-0.386024922132492
2024-12-07 16:32:21.212796200,4.612796142578125,-0.1245026886463165,0.4045338630676269,-0.3988080620765686
2024-12-07 16:32:21.222824200,4.62282421875,-0.1362205892801284,0.5398223400115967,-0.3775027990341186
2024-12-07 16:32:21.232852200,4.632852294921875,-0.1671132296323776,0.580302357673645,-0.3348922431468963
2024-12-07 16:32:21.242880500,4.642880615234375,-0.2150501012802124,0.5589970946311951,-0.2880206704139709
2024-12-07 16:32:21.252908500,4.652908447265625,-0.2693785429000854,0.4961465299129486,-0.2390185296535492
2024-12-07 16:32:21.262936600,4.6629365234375,-0.317315399646759,0.4205128252506256,-0.1868206113576889
2024-12-07 16:32:21.272964600,4.672964599609375,-0.3567301630973816,0.3427485823631286,-0.1303616315126419
2024-12-07 16:32:21.282993000,4.682992919921875,-0.4014712274074554,0.2607232630252838,-0.085620567202568
2024-12-07 16:32:21.293021000,4.69302099609375,-0.4185154438018799,0.1541969180107116,-0.0504668653011322
2024-12-07 16:32:21.303049000,4.703049072265625,-0.3886880576610565,0.0039947386831045,-0.0142479008063673
2024-12-07 16:32:21.313077000,4.713076904296875,-0.3247722387313843,-0.1771000772714615,0.01344895362854
2024-12-07 16:32:21.323105000,4.72310498046875,-0.2235722094774246,-0.3379548788070678,0.0379500165581703
2024-12-07 16:32:21.333133000,4.733133056640625,-0.0456731803715229,-0.4178496599197387,0.068842664361
2024-12-07 16:32:21.343161300,4.743161376953125,0.169510081410408,-0.3177148699760437,0.1050616279244422
2024-12-07 16:32:21.353189400,4.753189453125,0.3175817131996155,-0.0759000331163406,0.0858868807554245
2024-12-07 16:32:21.363217400,4.763217529296875,0.3474090993404388,0.2202432602643966,0.015579480677843
2024-12-07 16:32:21.373245400,4.773245361328125,0.3186469972133636,0.4173170328140259,0.0113184265792369
2024-12-07 16:32:21.383273500,4.7832734375,0.2398174703121185,0.450340211391449,0.054994236677885
2024-12-07 16:32:21.393301500,4.793301513671875,0.1279647946357727,0.4343612492084503,0.0954742506146431
2024-12-07 16:32:21.403329800,4.803329833984375,0.0171773768961429,0.4535360038280487,0.20093534886837
2024-12-07 16:32:21.413357800,4.81335791015625,-0.0861531943082809,0.4215780794620514,0.4022701680660248
2024-12-07 16:32:21.423385900,4.8233857421875,-0.1596563905477523,0.2937464416027069,0.5886912941932678
2024-12-07 16:32:21.433414000,4.833413818359375,-0.1788311302661895,0.1435442715883255,0.6994787454605103
2024-12-07 16:32:21.443442000,4.84344189453125,-0.1394163817167282,0.0071905297227203,0.8294408917427063
2024-12-07 16:32:21.453470000,4.853469970703125,-0.049934234470129,-0.105727419257164,0.9199883341789246
2024-12-07 16:32:21.463498200,4.863498291015625,0.0864195153117179,-0.120641104876995,0.9072051644325256
2024-12-07 16:32:21.473526300,4.8735263671875,0.2483395934104919,0.0849547758698463,0.8922914862632751
2024-12-07 16:32:21.483554300,4.88355419921875,0.3985417485237121,0.4620580971240997,0.9327715039253236
2024-12-07 16:32:21.493582300,4.893582275390625,0.4933502376079559,0.6953508257865906,0.9594030380249025
2024-12-07 16:32:21.503610400,4.9036103515625,0.5551354885101318,0.6218476295471191,0.8986830115318298
2024-12-07 16:32:21.513638400,4.913638427734375,0.5924197435379028,0.393881231546402,0.7857651114463806
2024-12-07 16:32:21.523666400,4.92366650390625,0.5732449889183044,0.1904158741235733,0.6323671340942383
2024-12-07 16:32:21.533694700,4.93369482421875,0.4944154918193817,0.032756857573986,0.4161186218261719
2024-12-07 16:32:21.543722800,4.94372265625,0.3846933245658874,-0.0599210783839225,0.1636511236429214
2024-12-07 16:32:21.553750800,4.953750732421875,0.3090596199035644,-0.0737695097923278,-0.0483363382518291
2024-12-07 16:32:21.563778800,4.96377880859375,0.302668035030365,-0.0173105336725711,-0.162319540977478
2024-12-07 16:32:21.573806800,4.973806884765625,0.2877543270587921,0.0700410827994346,-0.1836248189210891
2024-12-07 16:32:21.583835000,4.9838349609375,0.2270343154668808,0.0828242450952529,-0.1474058628082275
2024-12-07 16:32:21.593863200,4.99386328125,0.1833585053682327,0.071106344461441,-0.085620567202568
2024-12-07 16:32:21.603891200,5.00389111328125,0.1812279820442199,0.0540621280670166,-0.0387489646673202
2024-12-07 16:32:21.613919200,5.013919189453125,0.2110553532838821,0.0519316010177135,-0.0067910556681454
2024-12-07 16:32:21.623947500,5.023947509765625,0.2536658942699432,0.0657800287008285,0.0315584354102611
2024-12-07 16:32:21.633975600,5.0339755859375,0.3165164589881897,0.0402137041091918,0.0880174115300178
2024-12-07 16:32:21.644003600,5.044003662109375,0.3878891170024872,-0.0290284343063831,0.1732385009527206
2024-12-07 16:32:21.654032000,5.054031982421875,0.4475438892841339,-0.1802958697080612,0.2765690684318542
2024-12-07 16:32:21.664060000,5.064059814453125,0.480567067861557,-0.3422159552574157,0.3809649050235748
2024-12-07 16:32:21.674088200,5.074088134765625,0.489089161157608,-0.5030707716941833,0.4512723088264465
2024-12-07 16:32:21.684116200,5.0841162109375,0.4645881056785583,-0.6181192398071289,0.5077312588691711
2024-12-07 16:32:21.694144300,5.094144287109375,0.4113249182701111,-0.718254029750824,0.5599291920661926
2024-12-07 16:32:21.704172500,5.104172607421875,0.3474090993404388,-0.802409827709198,0.5908218622207642
2024-12-07 16:32:21.714200600,5.11420068359375,0.2930806577205658,-0.8620645999908447,0.5929523706436157
2024-12-07 16:32:21.724228600,5.124228515625,0.2621880173683166,-0.8769782781600952,0.5673860311508179
2024-12-07 16:32:21.734257000,5.1342568359375,0.2557964324951172,-0.7843003273010254,0.5098618268966675
2024-12-07 16:32:21.744285000,5.144284912109375,0.246209055185318,-0.6490118503570557,0.4193144142627716
2024-12-07 16:32:21.754313000,5.15431298828125,0.2131858915090561,-0.568051815032959,0.3042659163475036
2024-12-07 16:32:21.764341200,5.16434130859375,0.1652490198612213,-0.5222455263137817,0.1796300858259201
2024-12-07 16:32:21.774369300,5.174369384765625,0.0970721468329429,-0.4370244145393371,0.0507331825792789
2024-12-07 16:32:21.784397600,5.1843974609375,0.0203731674700975,-0.404001235961914,-0.0653805583715438
2024-12-07 16:32:21.794425600,5.194425537109375,-0.0318247526884079,-0.425306499004364,-0.1484711170196533
2024-12-07 16:32:21.804453600,5.20445361328125,-0.0488689690828323,-0.4721781015396118,-0.207060620188713
2024-12-07 16:32:21.814482000,5.21448193359375,-0.0435426495969295,-0.5371592044830322,-0.2475406378507614
2024-12-07 16:32:21.824510000,5.224510009765625,-0.0435426495969295,-0.6394245028495789,-0.2667153775691986
2024-12-07 16:32:21.834538000,5.2345380859375,-0.0403468608856201,-0.7747129797935486,-0.2709764242172241
2024-12-07 16:32:21.844566300,5.244566162109375,-0.0392815954983234,-0.860999345779419,-0.264584869146347
2024-12-07 16:32:21.854594300,5.25459423828125,-0.0286289602518081,-0.8620645999908447,-0.2464753687381744
2024-12-07 16:32:21.864622300,5.264622314453125,-0.0051931603811681,-0.7427550554275513,-0.2443448454141616
2024-12-07 16:32:21.874650600,5.274650634765625,0.0256994850933551,-0.5446160435676575,-0.2688459157943725
2024-12-07 16:32:21.884678700,5.2846787109375,0.0672447681427002,-0.3134538233280182,-0.2880206704139709
2024-12-07 16:32:21.894707000,5.29470703125,0.1077247858047485,-0.1515337526798248,-0.2912164330482483
2024-12-07 16:32:21.904735000,5.30473486328125,0.1375521719455719,-0.0631168708205223,-0.3029343485832214
2024-12-07 16:32:21.914763000,5.314762939453125,0.1545963883399963,-0.0151800066232681,-0.3103911876678467
2024-12-07 16:32:21.924791300,5.324791259765625,0.1364869028329849,-0.0290284343063831,-0.3039996027946472
2024-12-07 16:32:21.934819300,5.3348193359375,0.1151816323399543,0.0039947386831045,-0.2390185296535492
2024-12-07 16:32:21.944847400,5.344847412109375,0.1045289933681488,0.0551273934543132,-0.1165132075548172
2024-12-07 16:32:21.954875600,5.354875732421875,0.1183774247765541,0.032756857573986,0.0368847548961639
2024-12-07 16:32:21.964903700,5.364903564453125,0.1375521719455719,-0.0513989701867103,0.1870869249105453
2024-12-07 16:32:21.974931700,5.374931640625,0.1151816323399543,-0.092944249510765,0.2605901062488556
2024-12-07 16:32:21.984960000,5.3849599609375,0.1034637317061424,-0.0513989701867103,0.2307627350091934
2024-12-07 16:32:21.994988000,5.394988037109375,0.0587226599454879,-0.0045273704454302,0.12423637509346
2024-12-07 16:32:22.005016000,5.40501611328125,-0.0616521313786506,-0.0002663159102667,0.0209057983011007
2024-12-07 16:32:22.015044400,5.41504443359375,-0.2161153554916381,-0.0759000331163406,-0.0376837030053138
2024-12-07 16:32:22.025072400,5.425072265625,-0.3503385782241821,-0.2133190482854843,-0.0802942439913749
2024-12-07 16:32:22.035100700,5.4351005859375,-0.451538622379303,-0.3486075401306152,-0.1356879621744156
2024-12-07 16:32:22.045128700,5.445128662109375,-0.514389157295227,-0.5307676196098328,-0.2006690353155136
2024-12-07 16:32:22.055156700,5.45515673828125,-0.5175849795341492,-0.7001445293426514,-0.2411490529775619
2024-12-07 16:32:22.065185000,5.46518505859375,-0.4526038765907287,-0.7661908864974976,-0.2581932842731476
2024-12-07 16:32:22.075213000,5.475213134765625,-0.3471427857875824,-0.7885614037513733,-0.264584869146347
2024-12-07 16:32:22.085241000,5.485240966796875,-0.1990711390972137,-0.7747129797935486,-0.2709764242172241
2024-12-07 16:32:22.095269400,5.495269287109375,-0.0296942237764596,-0.6852308511734009,-0.2741722166538238
2024-12-07 16:32:22.105297400,5.50529736328125,0.1215732097625732,-0.5499423742294312,-0.2720417082309723
2024-12-07 16:32:22.115325400,5.515325439453125,0.2312953621149063,-0.3816306889057159,-0.2699111700057983
2024-12-07 16:32:22.125353700,5.525353759765625,0.2962764501571655,-0.1888179779052734,-0.275237500667572
2024-12-07 16:32:22.135381800,5.5353818359375,0.3058638274669647,-0.0034621069207787,-0.275237500667572
2024-12-07 16:32:22.145410000,5.54541015625,0.2600574791431427,0.1307611167430877,-0.273106962442398
2024-12-07 16:32:22.155438000,5.55543798828125,0.1737711280584335,0.2063948363065719,-0.2699111700057983
2024-12-07 16:32:22.165466000,5.565466064453125,0.0619184486567974,0.2692453861236572,-0.2699111700057983
2024-12-07 16:32:22.175494400,5.575494384765625,-0.0531300231814384,0.3384875357151031,-0.2763027548789978
2024-12-07 16:32:22.185522400,5.5855224609375,-0.1468732208013534,0.383228600025177,-0.2805638015270233
2024-12-07 16:32:22.195550500,5.595550537109375,-0.2022669315338134,0.3736412227153778,-0.2848248779773712
2024-12-07 16:32:22.205584100,5.605584228515625,-0.2278332561254501,0.3225085735321045,-0.2986733019351959
2024-12-07 16:32:22.215612400,5.6156123046875,-0.2342248409986496,0.2756369709968567,-0.3125217258930206
2024-12-07 16:32:22.225640400,5.625640380859375,-0.2257027328014373,0.2500706315040588,-0.331696480512619
2024-12-07 16:32:22.235668700,5.635668701171875,-0.1948100924491882,0.2522011697292328,-0.3455449044704437
2024-12-07 16:32:22.245696800,5.64569677734375,-0.1383511126041412,0.2841590642929077,-0.3583280444145202
2024-12-07 16:32:22.255724800,5.655724853515625,-0.0648479238152504,0.3331612050533294,-0.3689807057380676
2024-12-07 16:32:22.265753000,5.665753173828125,0.0086552668362855,0.3821633458137512,-0.3743070065975189
2024-12-07 16:32:22.275781000,5.675781005859375,0.062983714044094,0.4055991172790527,-0.3604585826396942
2024-12-07 16:32:22.285809200,5.68580908203125,0.085354246199131,0.4098601937294006,-0.3274354040622711
2024-12-07 16:32:22.295837200,5.695837158203125,0.0842889845371246,0.3789675533771515,-0.2869553864002228
2024-12-07 16:32:22.305865200,5.705865234375,0.0693752914667129,0.2937464416027069,-0.2454101145267486
2024-12-07 16:32:22.315893500,5.7158935546875,0.0406131781637668,0.1755021810531616,-0.2081258893013
2024-12-07 16:32:22.325921500,5.725921630859375,0.0001331579551333,0.0434094928205013,-0.1697763949632644
2024-12-07 16:32:22.335948800,5.73594873046875,-0.0392815954983234,-0.0684431865811348,-0.1261005848646164
2024-12-07 16:32:22.345977000,5.74597705078125,-0.079761616885662,-0.1387505829334259,-0.0941426753997802
2024-12-07 16:32:22.356005000,5.756005126953125,-0.118111103773117,-0.1749695539474487,-0.0770984590053558
2024-12-07 16:32:22.366033200,5.766033203125,-0.129829004406929,-0.2069274634122848,-0.0664458200335502
2024-12-07 16:32:22.376061200,5.776061279296875,-0.1245026886463165,-0.2037316709756851,-0.0643152892589569
2024-12-07 16:32:22.386089200,5.786089111328125,-0.1085237339138984,-0.149403229355812,-0.0739026665687561
2024-12-07 16:32:22.396117200,5.7961171875,-0.0936100408434867,-0.0577905513346195,-0.096273198723793
2024-12-07 16:32:22.406145300,5.806145263671875,-0.0829574093222618,0.0274305380880832,-0.1111868917942047
2024-12-07 16:32:22.416173600,5.816173583984375,-0.0872184634208679,0.0828242450952529,-0.1207742616534233
2024-12-07 16:32:22.426201600,5.82620166015625,-0.0989363640546798,0.1073253154754638,-0.1175784766674041
2024-12-07 16:32:22.436229600,5.836229736328125,-0.1095889955759048,0.1414137482643127,-0.1015995219349861
2024-12-07 16:32:22.446257700,5.846257568359375,-0.1170458421111106,0.1914811432361602,-0.0888163596391677
2024-12-07 16:32:22.456285700,5.85628564453125,-0.1149153187870979,0.2298306375741958,-0.084555298089981
2024-12-07 16:32:22.466313700,5.866313720703125,-0.1042626798152923,0.2692453861236572,-0.085620567202568
2024-12-07 16:32:22.476342000,5.876342041015625,-0.0946753025054931,0.3118559420108795,-0.0898816213011741
2024-12-07 16:32:22.486370000,5.8863701171875,-0.0872184634208679,0.324639081954956,-0.0952079370617866
2024-12-07 16:32:22.496398000,5.896398193359375,-0.0829574093222618,0.2980075180530548,-0.0994689911603927
2024-12-07 16:32:22.506426000,5.906426025390625,-0.0840226709842681,0.2543317079544067,-0.1058605760335922
2024-12-07 16:32:22.516454100,5.9164541015625,-0.090414248406887,0.2159821987152099,-0.1090563684701919
2024-12-07 16:32:22.526482200,5.926482177734375,-0.1010668873786926,0.1968074589967727,-0.1079910993576049
2024-12-07 16:32:22.536510500,5.936510498046875,-0.1127847880125045,0.1840242892503738,-0.1069258376955986
2024-12-07 16:32:22.546538500,5.94653857421875,-0.1170458421111106,0.1808284968137741,-0.1101216301321983
2024-12-07 16:32:22.556566500,5.95656640625,-0.1213068962097168,0.2031990438699722,-0.1186437383294105
2024-12-07 16:32:22.566594600,5.966594482421875,-0.1085237339138984,0.2351569533348083,-0.1250353157520294
2024-12-07 16:32:22.576622600,5.97662255859375,-0.0893489867448806,0.2532664239406585,-0.1282311081886291
2024-12-07 16:32:22.586650600,5.986650634765625,-0.0723047703504562,0.2649843394756317,-0.123970054090023
2024-12-07 16:32:22.596678700,5.9966787109375,-0.0616521313786506,0.2873548567295074,-0.1143826842308044
2024-12-07 16:32:22.606707000,6.00670703125,-0.0531300231814384,0.3001380264759063,-0.1026647835969924
2024-12-07 16:32:22.616735000,6.01673486328125,-0.0446079149842262,0.3193127810955047,-0.0941426753997802
2024-12-07 16:32:22.626763000,6.026762939453125,-0.0318247526884079,0.3544664680957794,-0.0824247747659683
2024-12-07 16:32:22.636791000,6.036791015625,-0.0211721155792474,0.3864243924617767,-0.0707068741321563
2024-12-07 16:32:22.646819000,6.046819091796875,-0.0254331696778535,0.4055991172790527,-0.0621847659349441
2024-12-07 16:32:22.656847000,6.05684716796875,-0.0478037074208259,0.3928159773349762,-0.0430100187659263
2024-12-07 16:32:22.666875400,6.06687548828125,-0.074435293674469,0.381098061800003,-0.0174436923116445
2024-12-07 16:32:22.676903400,6.0769033203125,-0.1010668873786926,0.4098601937294006,0.0027963169850409
2024-12-07 16:32:22.686931500,6.086931396484375,-0.1127847880125045,0.4854938983917236,0.015579480677843
2024-12-07 16:32:22.696959500,6.09695947265625,-0.1138500496745109,0.5483444333076477,0.01344895362854
2024-12-07 16:32:22.706987500,6.106987548828125,-0.1276984810829162,0.571780264377594,-0.0131826372817158
2024-12-07 16:32:22.717015600,6.117015625,-0.1468732208013534,0.5568665862083435,-0.046205811202526
2024-12-07 16:32:22.727043800,6.1270439453125,-0.1767006069421768,0.5067991614341736,-0.0792289823293685
2024-12-07 16:32:22.737071900,6.13707177734375,-0.2193111479282379,0.4407528340816498,-0.1005342528223991
2024-12-07 16:32:22.747100000,6.147099853515625,-0.2491385340690612,0.3661843836307525,-0.1079910993576049
2024-12-07 16:32:22.757128000,6.1571279296875,-0.2704437971115112,0.3097254037857055,-0.1207742616534233
2024-12-07 16:32:22.767156200,6.16715625,-0.2736395895481109,0.2724411785602569,-0.150601640343666
2024-12-07 16:32:22.777184300,6.177184326171875,-0.2587259113788605,0.2681801319122314,-0.1985385119915008
2024-12-07 16:32:22.787212300,6.18721240234375,-0.2161153554916381,0.3097254037857055,-0.2528669536113739
2024-12-07 16:32:22.797240600,6.197240478515625,-0.1500690132379531,0.3747064769268036,-0.3061301410198211
2024-12-07 16:32:22.807268600,6.2072685546875,-0.0723047703504562,0.4205128252506256,-0.3604585826396942
2024-12-07 16:32:22.817296600,6.217296630859375,0.0065247397869825,0.4226433634757995,-0.4115912318229675
2024-12-07 16:32:22.827325000,6.227324951171875,0.0725710839033126,0.3992075622081756,-0.461658626794815
2024-12-07 16:32:22.837353000,6.23735302734375,0.0981374159455299,0.3747064769268036,-0.509595513343811
2024-12-07 16:32:22.847381200,6.24738134765625,0.074701614677906,0.391750693321228,-0.5372923612594604
2024-12-07 16:32:22.857409300,6.2574091796875,0.0256994850933551,0.4098601937294006,-0.5181176066398621
2024-12-07 16:32:22.867437300,6.267437255859375,-0.0552605502307415,0.4301002025604248,-0.4595280885696411
2024-12-07 16:32:22.877465600,6.277465576171875,-0.1362205892801284,0.4567317962646484,-0.3924165070056915
2024-12-07 16:32:22.887493600,6.28749365234375,-0.1926795542240142,0.4876244366168976,-0.3572627902030945
2024-12-07 16:32:22.897521700,6.297521728515625,-0.229963794350624,0.5089297294616699,-0.3604585826396942
2024-12-07 16:32:22.907550000,6.307550048828125,-0.2374206334352493,0.4972118139266968,-0.3572627902030945
2024-12-07 16:32:22.917578000,6.317577880859375,-0.229963794350624,0.4055991172790527,-0.2677806615829468
2024-12-07 16:32:22.927606000,6.32760595703125,-0.2246374636888504,0.238352745771408,-0.0707068741321563
2024-12-07 16:32:22.937634300,6.33763427734375,-0.2427469491958618,0.071106344461441,0.1615206003189087
2024-12-07 16:32:22.947662300,6.347662353515625,-0.250203788280487,0.0157126393169164,0.4310322999954223
2024-12-07 16:32:22.957690600,6.357690673828125,-0.2480732649564743,0.0284958016127347,0.7293061017990112
2024-12-07 16:32:22.967718700,6.36771875,-0.2320943176746368,0.0508663393557071,0.918923020362854
2024-12-07 16:32:22.977746700,6.37774658203125,-0.1585911214351654,0.0817589834332466,1.023318886756897
2024-12-07 16:32:22.987775000,6.38777490234375,-0.0755005627870559,0.0806937217712402,1.1245189905166626
2024-12-07 16:32:22.997803000,6.397802978515625,0.0065247397869825,0.0551273934543132,1.174586296081543
2024-12-07 16:32:23.007831000,6.4078310546875,0.1045289933681488,0.060453712940216,1.0701904296875
2024-12-07 16:32:23.017859300,6.417859375,0.2600574791431427,0.1137168928980827,0.8475503921508789
2024-12-07 16:32:23.027887400,6.427887451171875,0.3974764943122864,0.3033338189125061,0.7751124501228333
2024-12-07 16:32:23.037915400,6.437915283203125,0.4113249182701111,0.6921550631523132,0.9082704186439514
2024-12-07 16:32:23.047943700,6.447943603515625,0.3143859207630157,1.0671278238296509,1.094691514968872
2024-12-07 16:32:23.057971700,6.4579716796875,0.2163816839456558,1.0767152309417725,1.1287800073623655
2024-12-07 16:32:23.068000000,6.468,0.2206427305936813,0.6271739602088928,0.8965525031089783
2024-12-07 16:32:23.078028000,6.478028076171875,0.378301739692688,0.1222390010952949,0.5993439555168152
2024-12-07 16:32:23.088056000,6.48805615234375,0.6020070910453796,-0.1813611388206482,0.3575291037559509
2024-12-07 16:32:23.098084400,6.49808447265625,0.6946850419044495,-0.1856221854686737,0.1529984921216964
2024-12-07 16:32:23.108112400,6.5081123046875,0.6744450330734253,-0.0844221413135528,-0.016378428786993
2024-12-07 16:32:23.118140400,6.518140380859375,0.6382260918617249,0.0274305380880832,-0.1111868917942047
2024-12-07 16:32:23.128168700,6.528168701171875,0.5998765826225281,0.0679105594754219,-0.1484711170196533
2024-12-07 16:32:23.138196700,6.53819677734375,0.5551354885101318,-0.0205063242465257,-0.1687111258506775
2024-12-07 16:32:23.148224800,6.548224853515625,0.499741792678833,-0.2026664018630981,-0.1751027107238769
2024-12-07 16:32:23.158253000,6.558253173828125,0.4752407371997833,-0.4125233590602875,-0.1484711170196533
2024-12-07 16:32:23.168281000,6.568281005859375,0.4720449447631836,-0.6106624007225037,-0.096273198723793
2024-12-07 16:32:23.178309000,6.57830908203125,0.4954807460308075,-0.7651256322860718,-0.0206394828855991
2024-12-07 16:32:23.188337200,6.588337158203125,0.5412870645523071,-0.8514119386672974,0.0922784656286239
2024-12-07 16:32:23.198365400,6.598365478515625,0.558331310749054,-0.9590035676956176,0.2446111589670181
2024-12-07 16:32:23.208393500,6.6083935546875,0.5338302254676819,-1.099618434906006,0.392682820558548
2024-12-07 16:32:23.218421500,6.61842138671875,0.4880239069461822,-1.2594079971313477,0.4842954874038696
2024-12-07 16:32:23.228449500,6.628449462890625,0.4251733422279358,-1.3531510829925537,0.5162534117698669
2024-12-07 16:32:23.238477600,6.6384775390625,0.3282343447208404,-1.3041490316390991,0.5215796828269958
2024-12-07 16:32:23.248505600,6.648505615234375,0.2206427305936813,-1.1358373165130615,0.5194491744041443
2024-12-07 16:32:23.258534000,6.658533935546875,0.1247690021991729,-0.9131972789764404,0.4864259958267212
2024-12-07 16:32:23.268562000,6.66856201171875,0.0267647486180067,-0.7576687932014465,0.3596596419811249
2024-12-07 16:32:23.278590000,6.67858984375,-0.0648479238152504,-0.6820350289344788,0.1583248078823089
2024-12-07 16:32:23.288618000,6.688617919921875,-0.1415469050407409,-0.6532729268074036,-0.0547279193997383
2024-12-07 16:32:23.298646000,6.69864599609375,-0.2043974548578262,-0.635163426399231,-0.2134522050619125
2024-12-07 16:32:23.308674000,6.708674072265625,-0.2661827504634857,-0.5563339591026306,-0.3327617347240448
2024-12-07 16:32:23.318702300,6.718702392578125,-0.3151848912239074,-0.3837612271308899,-0.4211786091327667
2024-12-07 16:32:23.328730400,6.72873046875,-0.3556649088859558,-0.2101232558488845,-0.4765723347663879
2024-12-07 16:32:23.338758400,6.73875830078125,-0.3940143883228302,0.0018642114009708,-0.461658626794815
2024-12-07 16:32:23.348786400,6.748786376953125,-0.4174501895904541,0.192546397447586,-0.3530017435550689
2024-12-07 16:32:23.358814500,6.758814453125,-0.4451470375061035,0.2117211520671844,-0.1729721873998642
2024-12-07 16:32:23.368842500,6.768842529296875,-0.4632565379142761,0.0647147670388221,0.0432763360440731
2024-12-07 16:32:23.378870800,6.778870849609375,-0.4046670198440552,-0.1781653463840484,0.2371543198823928
2024-12-07 16:32:23.388898800,6.78889892578125,-0.1756353378295898,-0.1280979514122009,0.4406196773052215
2024-12-07 16:32:23.398926800,6.7989267578125,0.0406131781637668,0.251135915517807,0.4896217882633209
2024-12-07 16:32:23.408955000,6.808954833984375,0.1396826952695846,0.5739107728004456,0.2680469751358032
2024-12-07 16:32:23.418983000,6.81898291015625,0.180162712931633,0.3544664680957794,-0.046205811202526
2024-12-07 16:32:23.429011000,6.829010986328125,0.1194426864385604,-0.1866874545812606,-0.283759593963623
2024-12-07 16:32:23.439039000,6.8390390625,-0.0456731803715229,-0.7203845381736755,-0.3711112141609192
2024-12-07 16:32:23.449067300,6.8490673828125,-0.3269027769565582,-1.0580731630325315,-0.34021857380867
2024-12-07 16:32:23.459095300,6.85909521484375,-0.5303681492805481,-1.1432942152023315,-0.2667153775691986
2024-12-07 16:32:23.469123300,6.869123291015625,-0.5740439295768738,-1.079378366470337,-0.1729721873998642
2024-12-07 16:32:23.479151400,6.8791513671875,-0.5229113101959229,-0.8876309394836426,-0.1399490088224411
2024-12-07 16:32:23.489179400,6.889179443359375,-0.3929491341114044,-0.6064013242721558,-0.1761679798364639
2024-12-07 16:32:23.499207400,6.89920751953125,-0.2235722094774246,-0.3006706535816192,-0.2464753687381744
2024-12-07 16:32:23.509235700,6.909235595703125,-0.0595216043293476,0.0657800287008285,-0.3071953952312469
2024-12-07 16:32:23.519263700,6.919263671875,0.073636345565319,0.4460791349411011,-0.3306311964988708
2024-12-07 16:32:23.529291800,6.929291748046875,0.168444812297821,0.7113298177719116,-0.3039996027946472
2024-12-07 16:32:23.539319800,6.93931982421875,0.2153164148330688,0.8040077090263367,-0.2273006290197372
2024-12-07 16:32:23.549347800,6.949347900390625,0.2195774614810943,0.7070687413215637,-0.1548627018928527
2024-12-07 16:32:23.559376000,6.9593759765625,0.1972069293260574,0.4961465299129486,-0.1420795321464538
2024-12-07 16:32:23.569404200,6.969404052734375,0.1439437568187713,0.2681801319122314,-0.1985385119915008
2024-12-07 16:32:23.579432200,6.97943212890625,0.060853186994791,0.0146473748609423,-0.273106962442398
2024-12-07 16:32:23.589460200,6.989460205078125,-0.0275636967271566,-0.2186453640460968,-0.3125217258930206
2024-12-07 16:32:23.599488300,6.99948828125,-0.1149153187870979,-0.3965443968772888,-0.3114564716815948
2024-12-07 16:32:23.609516300,7.009516357421875,-0.2043974548578262,-0.4977444410324096,-0.2933469712734222
2024-12-07 16:32:23.619544300,7.01954443359375,-0.2576606571674347,-0.5169191956520081,-0.2677806615829468
2024-12-07 16:32:23.629572600,7.029572509765625,-0.2725743353366852,-0.4679170548915863,-0.2613890767097473
2024-12-07 16:32:23.639600600,7.0396005859375,-0.2555301189422607,-0.3901528120040893,-0.3039996027946472
2024-12-07 16:32:23.649628700,7.049628662109375,-0.2182458937168121,-0.3177148699760437,-0.3796333372592926
2024-12-07 16:32:23.659656700,7.05965673828125,-0.186287984251976,-0.2580601274967193,-0.4648544192314148
2024-12-07 16:32:23.669684700,7.069684814453125,-0.174570083618164,-0.1866874545812606,-0.5330312848091125
2024-12-07 16:32:23.679712800,7.079712646484375,-0.174570083618164,-0.0737695097923278,-0.5830987095832825
2024-12-07 16:32:23.689740800,7.08974072265625,-0.1724395453929901,0.0476705469191074,-0.5926860570907593
2024-12-07 16:32:23.699769000,7.09976904296875,-0.174570083618164,0.1318263709545135,-0.5585976243019104
2024-12-07 16:32:23.709797000,7.109797119140625,-0.1905490309000015,0.1680453419685363,-0.4861596822738647
2024-12-07 16:32:23.719825200,7.1198251953125,-0.2065279930830001,0.1765674501657486,-0.3679154217243194
2024-12-07 16:32:23.729853200,7.129853271484375,-0.2352901101112365,0.1744369268417358,-0.1719069182872772
2024-12-07 16:32:23.739881200,7.139881103515625,-0.2747048735618591,0.1882853507995605,0.1103879436850547
2024-12-07 16:32:23.749909200,7.1499091796875,-0.2576606571674347,0.2543317079544067,0.4342280924320221
2024-12-07 16:32:23.759937500,7.1599375,-0.1063932031393051,0.3406180441379547,0.7197187542915344
2024-12-07 16:32:23.769965600,7.169965576171875,0.0800279304385185,0.4119907021522522,0.926379919052124
2024-12-07 16:32:23.779993600,7.17999365234375,0.2004027217626571,0.4961465299129486,1.0222536325454712
2024-12-07 16:32:23.790021600,7.190021728515625,0.2781669795513153,0.6048034429550171,1.0627336502075195
2024-12-07 16:32:23.800049700,7.200049560546875,0.3442133069038391,0.7028076648712158,1.082973599433899
2024-12-07 16:32:23.810077700,7.21007763671875,0.4123901724815368,0.8455530405044556,1.0169273614883425
2024-12-07 16:32:23.820106000,7.22010595703125,0.3495396375656128,1.0841721296310425,1.0563420057296753
2024-12-07 16:32:23.830134000,7.230134033203125,0.1972069293260574,1.2737890481948853,1.0936262607574463
2024-12-07 16:32:23.840162000,7.240162109375,0.1162468940019607,1.3494226932525637,0.9380977749824524
2024-12-07 16:32:23.850190000,7.250190185546875,0.167379543185234,1.3803153038024902,0.6845650672912598
2024-12-07 16:32:23.860218000,7.260218017578125,0.1982721984386444,1.3558143377304075,0.6355628967285156
2024-12-07 16:32:23.870246100,7.27024609375,0.157792180776596,0.9829720258712769,0.7548724412918091
2024-12-07 16:32:23.880274400,7.2802744140625,0.1556616425514221,0.337422251701355,0.7804387807846069
2024-12-07 16:32:23.890302500,7.290302490234375,0.157792180776596,-0.2122537791728973,0.7069355845451355
2024-12-07 16:32:23.900330500,7.30033056640625,0.1205079481005668,-0.5211802124977112,0.5609944462776184
2024-12-07 16:32:23.910358500,7.310358642578125,0.1322258561849594,-0.6074665784835815,0.3330280482769012
2024-12-07 16:32:23.920386600,7.320386474609375,0.2206427305936813,-0.4082622826099396,0.0358194895088672
2024-12-07 16:32:23.930414600,7.33041455078125,0.3292996287345886,0.0007989477599039,-0.2613890767097473
2024-12-07 16:32:23.940442600,7.340442626953125,0.4166512489318847,0.3171822428703308,-0.4382228255271911
2024-12-07 16:32:23.950471000,7.350470947265625,0.4880239069461822,0.4013380706310272,-0.5063996911048889
2024-12-07 16:32:23.960499000,7.3604990234375,0.5295692086219788,0.3363569974899292,-0.5159870982170105
2024-12-07 16:32:23.970527000,7.37052685546875,0.5018723607063293,0.2319611608982086,-0.4776375889778137
2024-12-07 16:32:23.980555000,7.380554931640625,0.4070638716220855,0.1584579646587371,-0.3870901763439178
2024-12-07 16:32:23.990583000,7.3905830078125,0.2973417043685913,0.0615189746022224,-0.2699111700057983
2024-12-07 16:32:24.000611000,7.400611083984375,0.1940111368894577,-0.0876179337501525,-0.150601640343666
2024-12-07 16:32:24.010639400,7.410639404296875,0.1386174261569976,-0.3006706535816192,-0.0249005369842052
2024-12-07 16:32:24.020667400,7.42066748046875,0.1311605870723724,-0.5850960612297058,0.0731037184596061
2024-12-07 16:32:24.030695400,7.4306953125,0.1098553165793418,-0.7608645558357239,0.135954275727272
2024-12-07 16:32:24.040723500,7.440723388671875,0.0640489757061004,-0.7523424625396729,0.1604553312063217
2024-12-07 16:32:24.050751500,7.45075146484375,0.021438430994749,-0.6255760788917542,0.1444763839244842
2024-12-07 16:32:24.060779800,7.46077978515625,-0.024367906153202,-0.4551338851451874,0.107192151248455
2024-12-07 16:32:24.070807800,7.470807861328125,-0.0872184634208679,-0.3241064548492431,0.0603205524384975
2024-12-07 16:32:24.080835800,7.4808359375,-0.1649827063083648,-0.2761695981025696,-0.0035952648613601
2024-12-07 16:32:24.090864000,7.490864013671875,-0.2555301189422607,-0.3017359375953674,-0.0920121446251869
2024-12-07 16:32:24.100892200,7.50089208984375,-0.3567301630973816,-0.4018706977367401,-0.1900164037942886
2024-12-07 16:32:24.110920200,7.510920166015625,-0.4675175845623016,-0.5616602301597595,-0.2688459157943725
2024-12-07 16:32:24.120948500,7.520948486328125,-0.5665870904922485,-0.7086666226387024,-0.3210438191890716
2024-12-07 16:32:24.130976500,7.5309765625,-0.6358292102813721,-0.839694082736969,-0.3657849133014679
2024-12-07 16:32:24.141004500,7.541004638671875,-0.6752439737319946,-1.0005488395690918,-0.4201133549213409
2024-12-07 16:32:24.151032800,7.55103271484375,-0.6560692191123962,-1.1347720623016355,-0.4797681272029876
2024-12-07 16:32:24.161060900,7.561060791015625,-0.5708481669425964,-1.0676604509353638,-0.474441796541214
2024-12-07 16:32:24.171089200,7.571089111328125,-0.3588607013225555,-0.8279761672019958,-0.3487406969070434
2024-12-07 16:32:24.181117200,7.5811171875,-0.0424773879349231,-0.5829655528068542,-0.0632500275969505
2024-12-07 16:32:24.191145200,7.591145263671875,0.3388870060443878,-0.4199801981449127,0.3330280482769012
2024-12-07 16:32:24.201173500,7.601173583984375,0.6840324401855469,-0.2676474750041961,0.6142576336860657
2024-12-07 16:32:24.211201500,7.611201416015625,0.8960198760032654,0.0103863207623362,0.5471460223197937
2024-12-07 16:32:24.221229600,7.6212294921875,1.0536788702011108,0.2745717167854309,0.2936132848262787
2024-12-07 16:32:24.231257900,7.6312578125,1.194293737411499,0.655936062335968,0.0752342417836189
2024-12-07 16:32:24.241286000,7.641285888671875,1.2251863479614258,1.0213215351104736,-0.0472710728645324
2024-12-07 16:32:24.251314000,7.65131396484375,1.078179955482483,1.0458226203918457,-0.1186437383294105
2024-12-07 16:32:24.261342200,7.66134228515625,0.7894935011863708,0.580302357673645,-0.1910816729068756
2024-12-07 16:32:24.271370200,7.671370361328125,0.4251733422279358,-0.2857569754123688,-0.273106962442398
2024-12-07 16:32:24.281398500,7.6813984375,-0.0030626328662037,-1.3371721506118774,-0.3604585826396942
2024-12-07 16:32:24.291426600,7.691426513671875,-0.4664523303508758,-2.0540945529937744,-0.3412838280200958
2024-12-07 16:32:24.301454600,7.70145458984375,-0.9575388431549072,-2.1371850967407227,-0.1825595498085022
2024-12-07 16:32:24.311483000,7.71148291015625,-1.2749874591827393,-1.8591513633728027,-0.0653805583715438
2024-12-07 16:32:24.321511000,7.721510986328125,-1.3644695281982422,-1.4554164409637451,0.0315584354102611
2024-12-07 16:32:24.331539000,7.7315390625,-1.2547473907470703,-0.9643298983573914,0.1199753209948539
2024-12-07 16:32:24.341567200,7.741567138671875,-0.8893619775772095,-0.3358243703842163,0.190282717347145
2024-12-07 16:32:24.351595300,7.75159521484375,-0.3684480488300323,0.238352745771408,0.1838911324739456
2024-12-07 16:32:24.361623300,7.761623291015625,0.035286858677864,0.7635276913642883,0.0773647725582122
2024-12-07 16:32:24.371651300,7.7716513671875,0.2195774614810943,1.2088079452514648,-0.0653805583715438
2024-12-07 16:32:24.381679400,7.781679443359375,0.3612575232982635,1.431447982788086,-0.2027995586395263
2024-12-07 16:32:24.391707600,7.791707763671875,0.4752407371997833,1.3355742692947388,-0.3476754128932953
2024-12-07 16:32:24.401735700,7.801735595703125,0.478436529636383,1.0692583322525024,-0.5032039284706116
2024-12-07 16:32:24.411763700,7.811763671875,0.3644533157348633,0.8189214468002319,-0.6107955574989319
2024-12-07 16:32:24.421791700,7.821791748046875,0.1961416751146316,0.588824450969696,-0.5862944722175598
2024-12-07 16:32:24.431819800,7.83181982421875,0.0225036945194005,0.30546435713768,-0.463789165019989
2024-12-07 16:32:24.441847800,7.841847900390625,-0.129829004406929,0.030626330524683,-0.3327617347240448
2024-12-07 16:32:24.451876000,7.8518759765625,-0.2555301189422607,-0.0865526720881462,-0.2518016993999481
2024-12-07 16:32:24.461904100,7.861904052734375,-0.3311638236045837,-0.0503337085247039,-0.2336922138929367
2024-12-07 16:32:24.471932200,7.87193212890625,-0.3322291076183319,0.0647147670388221,-0.264584869146347
2024-12-07 16:32:24.481960200,7.881960205078125,-0.2885532975196838,0.2000032514333725,-0.3093259334564209
2024-12-07 16:32:24.491988200,7.89198828125,-0.2310290485620498,0.2937464416027069,-0.3306311964988708
2024-12-07 16:32:24.502016300,7.902016357421875,-0.184157446026802,0.3257043659687042,-0.3327617347240448
2024-12-07 16:32:24.512044300,7.912044189453125,-0.1617869138717651,0.3118559420108795,-0.3178480267524719
2024-12-07 16:32:24.522072600,7.922072509765625,-0.1564605981111526,0.261788547039032,-0.2826943397521972
2024-12-07 16:32:24.532100600,7.9321005859375,-0.1617869138717651,0.1904158741235733,-0.2379532605409622
2024-12-07 16:32:24.542128600,7.942128662109375,-0.1671132296323776,0.1435442715883255,-0.2145174592733383
2024-12-07 16:32:24.552156700,7.95215673828125,-0.1543300747871399,0.1222390010952949,-0.2155827283859253
2024-12-07 16:32:24.562184700,7.962184814453125,-0.1596563905477523,0.126500055193901,-0.2464753687381744
2024-12-07 16:32:24.572212700,7.972212646484375,-0.1798963993787765,0.1499358564615249,-0.2848248779773712
2024-12-07 16:32:24.582241000,7.982240966796875,-0.2107890397310257,0.1989379823207855,-0.3274354040622711
2024-12-07 16:32:24.592269000,7.99226904296875,-0.2331595867872238,0.2553969621658325,-0.3679154217243194
2024-12-07 16:32:24.602297000,8.002297119140625,-0.2480732649564743,0.3022685647010803,-0.3998733460903168
2024-12-07 16:32:24.612325000,8.0123251953125,-0.2512690722942352,0.3310306668281555,-0.4190480709075928
2024-12-07 16:32:24.622353200,8.022353271484375,-0.2384859025478363,0.3502054214477539,-0.4318312406539917
2024-12-07 16:32:24.632381200,8.032381103515625,-0.2182458937168121,0.3885549008846283,-0.4446144104003906
2024-12-07 16:32:24.642409500,8.042409423828126,-0.2086585164070129,0.469514936208725,-0.4659196734428406
2024-12-07 16:32:24.652437500,8.0524375,-0.2171806246042251,0.5600623488426208,-0.4904207587242126
2024-12-07 16:32:24.662465500,8.062465576171874,-0.2779006659984588,0.5909550189971924,-0.5106607675552368
2024-12-07 16:32:24.672493600,8.07249365234375,-0.3822965025901794,0.5366265773773193,-0.5021386742591858
2024-12-07 16:32:24.682521600,8.082521484375,-0.4877575933933258,0.4492749273777008,-0.4403533637523651
2024-12-07 16:32:24.692549600,8.092549560546875,-0.4909533858299255,0.4972118139266968,-0.3050648868083954
2024-12-07 16:32:24.702578000,8.102577880859375,-0.3769701719284057,0.6420876383781433,-0.1314269006252288
2024-12-07 16:32:24.712606000,8.11260595703125,-0.2118543088436126,0.7454182505607605,0.0027963169850409
2024-12-07 16:32:24.722634000,8.122634033203125,-0.1010668873786926,0.7645930051803589,0.0304931718856096
2024-12-07 16:32:24.732662000,8.132662109375,-0.0254331696778535,0.7837677001953125,-0.0153131652623415
2024-12-07 16:32:24.742690000,8.14268994140625,0.049135286360979,0.8327698707580566,-0.0451405458152294
2024-12-07 16:32:24.752718000,8.152718017578126,0.0672447681427002,0.8860330581665039,0.0368847548961639
2024-12-07 16:32:24.762746000,8.16274609375,0.033156331628561,0.8743151426315308,0.1412805914878845
2024-12-07 16:32:24.772774400,8.1727744140625,-0.0126500055193901,0.7677887678146362,0.2051964104175567
2024-12-07 16:32:24.782802400,8.182802490234375,-0.0840226709842681,0.6420876383781433,0.3617901504039764
2024-12-07 16:32:24.792830500,8.19283056640625,-0.1521995365619659,0.5781718492507935,0.5183839201927185
2024-12-07 16:32:24.802858500,8.2028583984375,-0.2118543088436126,0.647413969039917,0.6558029055595398
2024-12-07 16:32:24.812886500,8.212886474609375,-0.185222715139389,0.7273087501525879,0.767655611038208
2024-12-07 16:32:24.822914600,8.22291455078125,0.0139815853908658,0.7816371917724609,0.804939866065979
2024-12-07 16:32:24.832942800,8.23294287109375,0.3069290816783905,1.0841721296310425,0.6898913383483887
2024-12-07 16:32:24.842971000,8.242970947265626,0.6787061095237732,1.835182905197144,0.4587291479110718
2024-12-07 16:32:24.852999000,8.2529990234375,1.015329360961914,2.334791660308838,0.4086617529392242
2024-12-07 16:32:24.863027000,8.26302685546875,1.1186599731445312,1.820269227027893,0.6536723971366882
2024-12-07 16:32:24.873055000,8.273054931640624,0.9258472323417664,0.6836329698562622,0.9615336060523988
2024-12-07 16:32:24.883083000,8.2830830078125,0.5817670822143555,-0.3880222737789154,1.1053441762924194
2024-12-07 16:32:24.893111300,8.293111328125,0.2099900990724563,-1.04102885723114,1.1532810926437378
2024-12-07 16:32:24.903139300,8.303139404296875,-0.0339552797377109,-1.299888014793396,1.1138663291931152
2024-12-07 16:32:24.913167400,8.31316748046875,-0.0946753025054931,-1.4745911359786987,0.923184096813202
2024-12-07 16:32:24.923195400,8.3231953125,-0.0137152690440416,-1.425589084625244,0.6046702861785889
2024-12-07 16:32:24.933223400,8.333223388671875,0.0619184486567974,-0.9355677962303162,0.2808301150798797
2024-12-07 16:32:24.943251500,8.34325146484375,0.0619184486567974,-0.3059969842433929,0.0496679171919822
2024-12-07 16:32:24.953279700,8.35327978515625,0.0704405605792999,0.1137168928980827,-0.0952079370617866
2024-12-07 16:32:24.963307800,8.363307861328124,0.0693752914667129,0.3310306668281555,-0.1537974327802658
2024-12-07 16:32:24.973335800,8.373335693359374,0.0757668763399124,0.3523359596729278,-0.1335574239492416
2024-12-07 16:32:24.983363800,8.38336376953125,0.1173121556639671,0.259658008813858,-0.0760331898927688
2024-12-07 16:32:24.993391900,8.393391845703125,0.1854890286922454,0.1446095407009124,-0.0035952648613601
2024-12-07 16:32:25.003420000,8.403419921875,0.2589922249317169,0.0402137041091918,0.0656468719244003
2024-12-07 16:32:25.013448000,8.413447998046875,0.2984069883823395,-0.0801610872149467,0.1253016293048858
2024-12-07 16:32:25.023476200,8.423476318359375,0.3154512047767639,-0.2452769577503204,0.1860216706991195
2024-12-07 16:32:25.033504300,8.433504150390625,0.3165164589881897,-0.4135886132717132,0.2318280041217804
2024-12-07 16:32:25.043532300,8.4435322265625,0.281362771987915,-0.5531381368637085,0.2318280041217804
2024-12-07 16:32:25.053560300,8.453560302734376,0.2121206223964691,-0.6990792751312256,0.191347986459732
2024-12-07 16:32:25.063588400,8.46358837890625,0.1343563795089721,-0.8737825155258179,0.1561942845582962
2024-12-07 16:32:25.073616400,8.473616455078124,0.0406131781637668,-1.0431593656539917,0.1370195299386978
2024-12-07 16:32:25.083644700,8.483644775390625,-0.0850879326462745,-1.1400984525680542,0.0880174115300178
2024-12-07 16:32:25.093672700,8.493672607421875,-0.2161153554916381,-1.17631733417511,-0.0014647374628111
2024-12-07 16:32:25.103700700,8.50370068359375,-0.3300985693931579,-1.1699258089065552,-0.1037300452589988
2024-12-07 16:32:25.113728800,8.513728759765625,-0.4121238589286804,-1.1358373165130615,-0.2102564126253128
2024-12-07 16:32:25.123756800,8.5237568359375,-0.4462123215198517,-1.0548772811889648,-0.3135869801044464
2024-12-07 16:32:25.133784800,8.533784912109375,-0.4376901984214782,-0.9302414655685424,-0.4201133549213409
2024-12-07 16:32:25.143813000,8.543813232421876,-0.3641870021820068,-0.7597993016242981,-0.5149217844009399
2024-12-07 16:32:25.153841200,8.553841064453126,-0.2129195630550384,-0.5563339591026306,-0.5649892091751099
2024-12-07 16:32:25.163869200,8.563869140625,-0.0254331696778535,-0.3304980397224426,-0.5340965390205383
2024-12-07 16:32:25.173897200,8.573897216796874,0.1311605870723724,-0.2356895804405212,-0.417982816696167
2024-12-07 16:32:25.183925200,8.58392529296875,0.2611227631568908,-0.2761695981025696,-0.2454101145267486
2024-12-07 16:32:25.193953300,8.593953369140625,0.4038680791854858,-0.1525990217924118,0.0027963169850409
2024-12-07 16:32:25.203981300,8.603981201171875,0.5263733863830566,0.2031990438699722,0.2808301150798797
2024-12-07 16:32:25.214009600,8.614009521484375,0.6925545334815979,0.5142560005187988,0.4502070546150207
2024-12-07 16:32:25.224037600,8.62403759765625,0.7351650595664978,0.860466718673706,0.4438154697418213
2024-12-07 16:32:25.234065700,8.634065673828125,0.6265081763267517,0.9339699149131776,0.2424806356430053
2024-12-07 16:32:25.244093700,8.64409375,0.3229080438613891,0.3757717609405517,-0.0653805583715438
2024-12-07 16:32:25.254121700,8.654121826171876,-0.091479517519474,-0.3826959729194641,-0.3743070065975189
2024-12-07 16:32:25.264149800,8.664149658203126,-0.4643217921257019,-0.8641951084136963,-0.5575323700904846
2024-12-07 16:32:25.274178000,8.674177978515624,-0.7689871788024902,-1.2689952850341797,-0.5596628785133362
2024-12-07 16:32:25.284206000,8.6842060546875,-0.9948230981826782,-1.7132102251052856,-0.4669849574565887
2024-12-07 16:32:25.294234000,8.694234130859375,-1.045955777168274,-1.8847177028656008,-0.3785680532455444
2024-12-07 16:32:25.304262100,8.70426220703125,-0.9191893935203552,-1.7430375814437866,-0.3455449044704437
2024-12-07 16:32:25.314290200,8.714290283203125,-0.6230461001396179,-1.4330458641052246,-0.3753722608089447
2024-12-07 16:32:25.324318200,8.724318115234375,-0.2565953731536865,-0.9313067197799684,-0.4456796646118164
2024-12-07 16:32:25.334346500,8.734346435546875,0.114116370677948,-0.3070622384548187,-0.5245091915130615
2024-12-07 16:32:25.344374500,8.74437451171875,0.3804322779178619,0.2937464416027069,-0.5532712936401367
2024-12-07 16:32:25.354402600,8.754402587890626,0.5199818015098572,0.8167908787727356,-0.5255744457244873
2024-12-07 16:32:25.364430600,8.7644306640625,0.5604618191719055,1.1981552839279177,-0.47231125831604
2024-12-07 16:32:25.374458600,8.774458740234374,0.5253081321716309,1.3121384382247925,-0.396677553653717
2024-12-07 16:32:25.384486700,8.784486572265624,0.4006722867488861,1.140631079673767,-0.2880206704139709
2024-12-07 16:32:25.394515000,8.794514892578125,0.224903792142868,0.8221172094345093,-0.1495363861322403
2024-12-07 16:32:25.404543000,8.80454296875,0.0406131781637668,0.5249086618423462,-0.0195742193609476
2024-12-07 16:32:25.414571000,8.814571044921875,-0.1213068962097168,0.3150517344474792,0.0475373901426792
2024-12-07 16:32:25.424599000,8.82459912109375,-0.2374206334352493,0.2127864062786102,0.0070573715493083
2024-12-07 16:32:25.434627000,8.834626953125,-0.2747048735618591,0.1808284968137741,-0.084555298089981
2024-12-07 16:32:25.444655000,8.844655029296876,-0.2533995807170868,0.1541969180107116,-0.1729721873998642
2024-12-07 16:32:25.454683100,8.85468310546875,-0.2129195630550384,0.0934768840670585,-0.2304964214563369
2024-12-07 16:32:25.464711400,8.86471142578125,-0.184157446026802,0.0434094928205013,-0.2262353599071502
2024-12-07 16:32:25.474739500,8.874739501953124,-0.1447426974773407,0.005060002207756,-0.2059953510761261
2024-12-07 16:32:25.484767500,8.884767578125,-0.0733700320124626,-0.0013315795222297,-0.2273006290197372
2024-12-07 16:32:25.494795500,8.89479541015625,0.0011984215816482,0.0380831733345985,-0.2826943397521972
2024-12-07 16:32:25.504823600,8.904823486328125,0.0320910662412643,0.0945421457290649,-0.3114564716815948
2024-12-07 16:32:25.514851600,8.9148515625,0.0310258027166128,0.138217955827713,-0.2880206704139709
2024-12-07 16:32:25.524880000,8.9248798828125,-0.0009321057004854,0.1360874325037002,-0.2454101145267486
2024-12-07 16:32:25.534908000,8.934907958984375,-0.0488689690828323,0.0764326676726341,-0.2134522050619125
2024-12-07 16:32:25.544936000,8.94493603515625,-0.1095889955759048,-0.0173105336725711,-0.1857553422451019
2024-12-07 16:32:25.554964000,8.9549638671875,-0.1671132296323776,-0.0844221413135528,-0.1772332340478897
2024-12-07 16:32:25.564992000,8.964991943359376,-0.2193111479282379,-0.0982705727219581,-0.207060620188713
2024-12-07 16:32:25.575020000,8.97502001953125,-0.2768353819847107,-0.1035968884825706,-0.2549974918365478
2024-12-07 16:32:25.585048300,8.98504833984375,-0.3300985693931579,-0.1067926809191703,-0.2954775094985962
2024-12-07 16:32:25.595076400,8.995076416015625,-0.3620564937591553,-0.105727419257164,-0.3306311964988708
2024-12-07 16:32:25.605104400,9.0051044921875,-0.3748396337032318,-0.1238368973135948,-0.3689807057380676
2024-12-07 16:32:25.615132400,9.01513232421875,-0.3716438412666321,-0.1579253375530243,-0.4137217700481415
2024-12-07 16:32:25.625160400,9.025160400390623,-0.3535343706607818,-0.2069274634122848,-0.4542017877101898
2024-12-07 16:32:25.635188500,9.0351884765625,-0.3130543529987335,-0.2495380043983459,-0.474441796541214
2024-12-07 16:32:25.645216800,9.045216796875,-0.250203788280487,-0.271908551454544,-0.5053344368934631
2024-12-07 16:32:25.655244800,9.055244873046876,-0.174570083618164,-0.2474074810743332,-0.5639239549636841
2024-12-07 16:32:25.665272800,9.06527294921875,-0.1106542572379112,-0.1643169224262237,-0.6161218881607056
2024-12-07 16:32:25.675300900,9.07530078125,-0.0733700320124626,-0.0695084556937217,-0.6406229138374329
2024-12-07 16:32:25.685329000,9.085328857421874,-0.074435293674469,0.0231694839894771,-0.6352965831756592
2024-12-07 16:32:25.695357000,9.09535693359375,-0.1063932031393051,0.1169126853346824,-0.6193176507949829
2024-12-07 16:32:25.705385000,9.105385009765625,-0.1500690132379531,0.2127864062786102,-0.6054692268371582
2024-12-07 16:32:25.715413200,9.115413330078123,-0.1937448233366012,0.3225085735321045,-0.6001428961753845
2024-12-07 16:32:25.725441300,9.125441162109375,-0.241681694984436,0.4034686088562011,-0.5958818197250366
2024-12-07 16:32:25.735469300,9.13546923828125,-0.3034669756889343,0.3981422781944275,-0.5522060394287109
2024-12-07 16:32:25.745497300,9.145497314453126,-0.3620564937591553,0.3523359596729278,-0.4595280885696411
2024-12-07 16:32:25.755525400,9.155525390625,-0.4206459820270538,0.2788327634334564,-0.350871205329895
2024-12-07 16:32:25.765553400,9.165553466796876,-0.4664523303508758,0.0966726765036583,-0.1751027107238769
2024-12-07 16:32:25.775581700,9.175581787109374,-0.4600607454776764,-0.052464235574007,0.1146489977836608
2024-12-07 16:32:25.785609700,9.185609619140624,-0.2970753908157348,0.0284958016127347,0.4800344407558441
2024-12-07 16:32:25.795637800,9.1956376953125,0.0203731674700975,0.249005377292633,0.7229145169258118
2024-12-07 16:32:25.805665800,9.205665771484377,0.2771016955375671,0.4599275887012481,0.7825692892074585
2024-12-07 16:32:25.815693800,9.21569384765625,0.4368912577629089,0.6900244951248169,0.692021906375885
2024-12-07 16:32:25.825721900,9.225721923828123,0.5125249624252319,0.8253130316734314,0.5428850054740906
2024-12-07 16:32:25.835750100,9.235750244140624,0.5253081321716309,0.8125298619270325,0.3532680571079254
2024-12-07 16:32:25.845778200,9.245778076171876,0.4656533598899841,0.6484792232513428,0.1093226820230484
2024-12-07 16:32:25.855806200,9.25580615234375,0.3719101548194885,0.5771065950393677,-0.0515321269631385
2024-12-07 16:32:25.865834200,9.265834228515626,0.2611227631568908,0.72304767370224,0.0368847548961639
2024-12-07 16:32:25.875862300,9.2758623046875,0.0938763618469238,1.1022815704345703,0.4033354520797729
2024-12-07 16:32:25.885890300,9.285890380859374,-0.1585911214351654,1.5113427639007568,0.8912261724472046
2024-12-07 16:32:25.895918600,9.295918701171876,-0.4174501895904541,1.594433307647705,1.3546159267425537
2024-12-07 16:32:25.905946600,9.305946533203125,-0.5772397518157959,1.3675322532653809,1.6912392377853394
2024-12-07 16:32:25.915974700,9.315974609375,-0.5953491926193237,1.0351699590682983,1.844637155532837
2024-12-07 16:32:25.926002700,9.326002685546875,-0.5335639119148254,0.7752456068992615,1.784982442855835
2024-12-07 16:32:25.936030700,9.33603076171875,-0.4110586047172546,0.4876244366168976,1.4984264373779297
2024-12-07 16:32:25.946058800,9.346058837890626,-0.1660479754209518,0.0657800287008285,1.0616683959960938
2024-12-07 16:32:25.956086800,9.356086669921876,0.1226384788751602,-0.1014663651585578,0.7175882458686829
2024-12-07 16:32:25.966115000,9.366114990234376,0.3356912136077881,-0.0066578979603946,0.5269060134887695
2024-12-07 16:32:25.976143000,9.37614306640625,0.42410808801651,0.0924116224050521,0.3777691125869751
2024-12-07 16:32:25.986171100,9.386171142578124,0.4177165031433105,0.0338221192359924,0.2328932583332061
2024-12-07 16:32:25.996199200,9.39619921875,0.3751059472560882,-0.0673779249191284,0.1167795285582542
2024-12-07 16:32:26.006227200,9.406227294921877,0.3420827984809875,-0.1472726911306381,0.0581900253891944
2024-12-07 16:32:26.016255200,9.416255126953123,0.3175817131996155,-0.160055860877037,0.0219710618257522
2024-12-07 16:32:26.026283500,9.426283447265623,0.302668035030365,-0.1291632205247879,-0.0270310640335083
2024-12-07 16:32:26.036311600,9.4363115234375,0.2973417043685913,-0.0950747802853584,-0.0781637206673622
2024-12-07 16:32:26.046339600,9.446339599609376,0.302668035030365,-0.010918952524662,-0.1069258376955986
2024-12-07 16:32:26.056367600,9.45636767578125,0.2589922249317169,0.0743021368980407,-0.1005342528223991
2024-12-07 16:32:26.066395600,9.466395751953126,0.1514005959033966,0.1360874325037002,-0.0653805583715438
2024-12-07 16:32:26.076423700,9.476423583984374,0.0778974071145057,0.1755021810531616,-0.0153131652623415
2024-12-07 16:32:26.086452000,9.486451904296874,0.0533963404595851,0.1872200816869735,0.0081226350739598
2024-12-07 16:32:26.096480000,9.49647998046875,0.0768321380019187,0.1733716577291488,0.0006657897611148
2024-12-07 16:32:26.106507800,9.5065078125,0.1535311192274093,0.1712411344051361,-0.0153131652623415
2024-12-07 16:32:26.116535800,9.516535888671877,0.2547311782836914,0.2159821987152099,-0.0334226451814174
2024-12-07 16:32:26.126563800,9.526563720703123,0.3655185997486114,0.2948117256164551,-0.0451405458152294
2024-12-07 16:32:26.136592000,9.536591796875,0.469914436340332,0.3171822428703308,-0.057923711836338
2024-12-07 16:32:26.146620000,9.546619873046875,0.5572660565376282,0.2223737835884094,-0.0664458200335502
2024-12-07 16:32:26.156648000,9.55664794921875,0.6233124136924744,0.072171613574028,-0.0430100187659263
2024-12-07 16:32:26.166676000,9.566676025390626,0.6552702784538269,-0.105727419257164,0.0219710618257522
2024-12-07 16:32:26.176704000,9.5767041015625,0.6531397700309753,-0.3102580308914184,0.12423637509346
2024-12-07 16:32:26.186732000,9.58673193359375,0.6307692527770996,-0.5360939502716064,0.2254364192485809
2024-12-07 16:32:26.196760000,9.596760009765624,0.5988113284111023,-0.6671213507652283,0.3138532936573028
2024-12-07 16:32:26.206788000,9.6067880859375,0.558331310749054,-0.7512772083282471,0.3639206886291504
2024-12-07 16:32:26.216816000,9.616816162109377,0.5178512930870056,-0.8269109129905701,0.3500722646713257
2024-12-07 16:32:26.226844200,9.62684423828125,0.4922849535942077,-0.7981488108634949,0.3191796243190765
2024-12-07 16:32:26.236872200,9.6368720703125,0.4624575674533844,-0.743820309638977,0.3053312003612518
2024-12-07 16:32:26.246900200,9.646900146484375,0.4262386262416839,-0.7214497923851013,0.2882869839668274
2024-12-07 16:32:26.256928300,9.65692822265625,0.4059986174106598,-0.6948181986808777,0.258459597826004
2024-12-07 16:32:26.266956300,9.666956298828126,0.4102596640586853,-0.7076013684272766,0.1849564015865326
2024-12-07 16:32:26.276984300,9.676984375,0.4273038804531097,-0.7928224802017212,0.0667121335864067
2024-12-07 16:32:26.287012400,9.687012451171874,0.421977549791336,-0.9174582958221436,-0.0504668653011322
2024-12-07 16:32:26.297040400,9.697040283203124,0.3665838539600372,-1.0506162643432615,-0.1165132075548172
2024-12-07 16:32:26.307068400,9.707068359375,0.2717753946781158,-1.099618434906006,-0.1495363861322403
2024-12-07 16:32:26.317096400,9.717096435546877,0.1833585053682327,-1.120923638343811,-0.1900164037942886
2024-12-07 16:32:26.327124500,9.72712451171875,0.1247690021991729,-1.108140468597412,-0.2390185296535492
2024-12-07 16:32:26.337152300,9.73715234375,0.0661795064806938,-0.990961492061615,-0.3018690943717956
2024-12-07 16:32:26.347180300,9.74718017578125,-0.0233026426285505,-0.7981488108634949,-0.3604585826396942
2024-12-07 16:32:26.357208300,9.757208251953124,-0.129829004406929,-0.6468813419342041,-0.4233091473579407
2024-12-07 16:32:26.367236400,9.767236328125,-0.2225069403648376,-0.4870918095111847,-0.4957470595836639
2024-12-07 16:32:26.377264400,9.777264404296876,-0.3226417303085327,-0.2537990510463714,-0.5404881238937378
2024-12-07 16:32:26.387292400,9.78729248046875,-0.4834965467453003,-0.0503337085247039,-0.5085302591323853
2024-12-07 16:32:26.397320700,9.79732080078125,-0.6720482110977173,0.0700410827994346,-0.3785680532455444
2024-12-07 16:32:26.407348700,9.8073486328125,-0.8552735447883606,-0.0577905513346195,-0.1889511346817016
2024-12-07 16:32:26.417376800,9.817376708984376,-0.9309072494506836,-0.4593949317932129,0.1125184744596481
2024-12-07 16:32:26.427404800,9.82740478515625,-0.7775092720985413,-0.6191844940185547,0.5854955315589905
2024-12-07 16:32:26.437432800,9.837432861328123,-0.1788311302661895,-0.4008054435253143,0.9157272577285768
2024-12-07 16:32:26.447460900,9.8474609375,0.2121206223964691,0.0093210572376847,0.8454198837280273
2024-12-07 16:32:26.457489200,9.8574892578125,0.3261038362979889,0.2340916842222213,0.5535376071929932
2024-12-07 16:32:26.467517200,9.86751708984375,0.2877543270587921,0.270310640335083,0.2786996066570282
2024-12-07 16:32:26.477545200,9.877545166015626,0.1631184965372085,0.0806937217712402,0.0251668542623519
2024-12-07 16:32:26.487573200,9.8875732421875,-0.010519478470087,-0.1366200596094131,-0.22943115234375
2024-12-07 16:32:26.497601300,9.897601318359374,-0.1436774283647537,-0.2016011476516723,-0.4893554747104645
2024-12-07 16:32:26.507629300,9.90762939453125,-0.2448774725198745,-0.170708492398262,-0.7247787714004517
2024-12-07 16:32:26.517657600,9.91765771484375,-0.3024017214775085,-0.076965294778347,-0.8419577479362488
2024-12-07 16:32:26.527685600,9.927685546875,-0.2576606571674347,0.0732368752360344,-0.8430230021476746
2024-12-07 16:32:26.537713700,9.937713623046877,-0.1255679577589035,0.2681801319122314,-0.7396924495697021
2024-12-07 16:32:26.547741700,9.94774169921875,0.0118510583415627,0.3853591084480285,-0.5426186919212341
2024-12-07 16:32:26.557769700,9.957769775390624,0.1503353267908096,0.3278348743915558,-0.350871205329895
2024-12-07 16:32:26.567797800,9.9677978515625,0.2707101106643677,0.2138516753911972,-0.2486059069633484
2024-12-07 16:32:26.577825800,9.97782568359375,0.2792322337627411,0.1840242892503738,-0.2326269447803497
2024-12-07 16:32:26.587854000,9.98785400390625,0.1822932362556457,0.1723063886165619,-0.2251701056957245
2024-12-07 16:32:26.597882000,9.997882080078124,0.0448742322623729,0.1637842804193496,-0.2017343044281005
2024-12-07 16:32:26.607910100,10.00791015625,-0.1266332119703292,0.1115863695740699,-0.1740374416112899
2024-12-07 16:32:26.617938200,10.017938232421876,-0.2917490899562835,0.0295610651373863,-0.1729721873998642
2024-12-07 16:32:26.627966200,10.02796630859375,-0.4025365114212036,-0.105727419257164,-0.2166479974985122
2024-12-07 16:32:26.637994200,10.037994140625,-0.4547344148159027,-0.2623211741447449,-0.2890859246253967
2024-12-07 16:32:26.648022500,10.0480224609375,-0.4504733681678772,-0.4199801981449127,-0.3285006880760193
2024-12-07 16:32:26.658050600,10.058050537109375,-0.3993407189846039,-0.546746551990509,-0.3455449044704437
2024-12-07 16:32:26.668078600,10.06807861328125,-0.3247722387313843,-0.6479465961456299,-0.3700459599494934
2024-12-07 16:32:26.678106600,10.078106689453126,-0.2470080107450485,-0.6948181986808777,-0.4105259776115417
2024-12-07 16:32:26.688134700,10.088134765625,-0.1703090220689773,-0.6820350289344788,-0.4499407410621643
2024-12-07 16:32:26.698162700,10.09816259765625,-0.0978710949420929,-0.6309024095535278,-0.4872249662876129
2024-12-07 16:32:26.708191000,10.10819091796875,-0.0392815954983234,-0.5701823830604553,-0.5149217844009399
2024-12-07 16:32:26.718219000,10.118218994140625,-0.0019973693415522,-0.500940203666687,-0.5191828608512878
2024-12-07 16:32:26.728247000,10.1282470703125,0.0001331579551333,-0.4114580750465393,-0.4872249662876129
2024-12-07 16:32:26.738275000,10.138275146484377,-0.0201068520545959,-0.3155843615531921,-0.4201133549213409
2024-12-07 16:32:26.748303000,10.14830322265625,-0.0584563426673412,-0.2388853728771209,-0.3530017435550689
2024-12-07 16:32:26.758331100,10.1583310546875,-0.1085237339138984,-0.1920137703418731,-0.3071953952312469
2024-12-07 16:32:26.768359400,10.168359375,-0.1426121741533279,-0.160055860877037,-0.283759593963623
2024-12-07 16:32:26.778387500,10.178387451171876,-0.1788311302661895,-0.0982705727219581,-0.2763027548789978
2024-12-07 16:32:26.788415500,10.18841552734375,-0.2086585164070129,0.0018642114009708,-0.2816290855407715
2024-12-07 16:32:26.798443500,10.198443603515624,-0.2267680019140243,0.1222390010952949,-0.3103911876678467
2024-12-07 16:32:26.808471600,10.208471435546874,-0.2448774725198745,0.2255695760250091,-0.3540669977664947
2024-12-07 16:32:26.818499600,10.21849951171875,-0.2747048735618591,0.3012032806873321,-0.3956122994422912
2024-12-07 16:32:26.828527600,10.228527587890625,-0.3162501454353332,0.3555317521095276,-0.417982816696167
2024-12-07 16:32:26.838556000,10.238555908203123,-0.3492733240127563,0.4077296555042267,-0.4233091473579407
2024-12-07 16:32:26.848584000,10.248583984375,-0.3663175404071808,0.4822981059551239,-0.4307659864425659
2024-12-07 16:32:26.858612000,10.258612060546875,-0.3705785870552063,0.5600623488426208,-0.4456796646118164
2024-12-07 16:32:26.868640000,10.268639892578124,-0.3375554084777832,0.5813676118850708,-0.4542017877101898
2024-12-07 16:32:26.878668000,10.27866796875,-0.2885532975196838,0.6079992055892944,-0.4765723347663879
2024-12-07 16:32:26.888696000,10.288696044921876,-0.240616425871849,0.6740455627441406,-0.5351617932319641
2024-12-07 16:32:26.898724400,10.298724365234374,-0.2043974548578262,0.6857634782791138,-0.6075997352600098
2024-12-07 16:32:26.908752400,10.30875244140625,-0.1724395453929901,0.5952160358428955,-0.6555365920066833
2024-12-07 16:32:26.918780400,10.318780517578125,-0.1170458421111106,0.4386222958564758,-0.6491450071334839
2024-12-07 16:32:26.928808400,10.328808349609377,-0.0307594873011112,0.2830938100814819,-0.5841639637947083
2024-12-07 16:32:26.938836500,10.33883642578125,0.0768321380019187,0.1797632426023483,-0.4765723347663879
2024-12-07 16:32:26.948864500,10.348864501953123,0.2067943066358566,0.1552621722221374,-0.3540669977664947
2024-12-07 16:32:26.958892800,10.358892822265624,0.3250385820865631,0.1637842804193496,-0.3039996027946472
2024-12-07 16:32:26.968920800,10.3689208984375,0.3985417485237121,0.1541969180107116,-0.3551322519779205
2024-12-07 16:32:26.978948900,10.378948974609376,0.4017375409603119,0.1605884879827499,-0.3743070065975189
2024-12-07 16:32:26.988977000,10.388976806640626,0.3261038362979889,0.1531316488981247,-0.3444796204566955
2024-12-07 16:32:26.999005000,10.3990048828125,0.2302301079034805,0.088150568306446,-0.285890132188797
2024-12-07 16:32:27.009033000,10.409032958984374,0.1183774247765541,0.0508663393557071,-0.1282311081886291
2024-12-07 16:32:27.019061200,10.419061279296876,-0.0147805325686931,0.0700410827994346,0.0890826731920242
2024-12-07 16:32:27.029089300,10.42908935546875,-0.1426121741533279,0.1179779469966888,0.3032006621360779
2024-12-07 16:32:27.039117300,10.439117431640623,-0.2438122183084488,0.2138516753911972,0.5130575895309448
2024-12-07 16:32:27.049145300,10.449145263671875,-0.3258375227451324,0.3576622605323791,0.7293061017990112
2024-12-07 16:32:27.059173400,10.45917333984375,-0.4004059731960296,0.517451822757721,0.9370325207710266
2024-12-07 16:32:27.069201400,10.469201416015624,-0.440885990858078,0.6580666303634644,1.094691514968872
2024-12-07 16:32:27.079229400,10.4792294921875,-0.4238417744636535,0.8050730228424072,1.193761110305786
2024-12-07 16:32:27.089257700,10.4892578125,-0.3471427857875824,0.9968204498291016,1.2512853145599363
2024-12-07 16:32:27.099285800,10.49928564453125,-0.2075932472944259,1.1906983852386477,1.299222111701965
2024-12-07 16:32:27.109313800,10.509313720703124,0.0065247397869825,1.354749083518982,1.3492895364761353
2024-12-07 16:32:27.119341800,10.519341796875,0.2589922249317169,1.4602100849151611,1.40574848651886
2024-12-07 16:32:27.129369900,10.529369873046877,0.4826975762844085,1.3153343200683594,1.4355759620666504
2024-12-07 16:32:27.139398000,10.53939794921875,0.6478134393692017,0.7922898530960083,1.266198992729187
2024-12-07 16:32:27.149426200,10.54942626953125,0.7820366621017456,0.2202432602643966,0.922118842601776
2024-12-07 16:32:27.159454200,10.5594541015625,0.9045419692993164,-0.0237021166831254,0.6185187101364136
2024-12-07 16:32:27.169482200,10.569482177734375,0.9301083087921144,-0.0098536890000104,0.3703122735023498
2024-12-07 16:32:27.179510300,10.57951025390625,0.8512787818908691,-0.0290284343063831,0.12423637509346
2024-12-07 16:32:27.189538300,10.589538330078126,0.7905587553977966,-0.2548643350601196,-0.1154479458928108
2024-12-07 16:32:27.199566300,10.59956640625,0.7511440515518188,-0.4838960170745849,-0.2709764242172241
2024-12-07 16:32:27.209594600,10.6095947265625,0.6840324401855469,-0.5201149582862854,-0.2933469712734222
2024-12-07 16:32:27.219622700,10.61962255859375,0.6115944981575012,-0.4103928208351135,-0.2304964214563369
2024-12-07 16:32:27.229650700,10.629650634765625,0.5636576414108276,-0.3954791128635406,-0.1495363861322403
2024-12-07 16:32:27.239678700,10.6396787109375,0.5391565561294556,-0.5254412889480591,-0.0984037294983863
2024-12-07 16:32:27.249706800,10.649706787109375,0.515720784664154,-0.6905571818351746,-0.0770984590053558
2024-12-07 16:32:27.259734800,10.65973486328125,0.4741754829883575,-0.7448856234550476,-0.0451405458152294
2024-12-07 16:32:27.269763000,10.66976318359375,0.4038680791854858,-0.6617950201034546,0.0464721247553825
2024-12-07 16:32:27.279791000,10.679791015625,0.3303648829460144,-0.5701823830604553,0.212653249502182
2024-12-07 16:32:27.289819100,10.689819091796876,0.2504701018333435,-0.6095971465110779,0.3767038583755493
2024-12-07 16:32:27.299847200,10.69984716796875,0.1705753356218338,-0.7704519033432007,0.4906870722770691
2024-12-07 16:32:27.309875200,10.709875244140624,0.101333200931549,-0.9217193722724916,0.5652555227279663
2024-12-07 16:32:27.319903200,10.7199033203125,0.0384826473891735,-1.0037447214126587,0.6099966168403625
2024-12-07 16:32:27.329931300,10.72993115234375,-0.0190415866672992,-1.0261151790618896,0.6238450407981873
2024-12-07 16:32:27.339959600,10.73995947265625,-0.0733700320124626,-1.0133320093154907,0.6068007946014404
2024-12-07 16:32:27.349987600,10.749987548828123,-0.1319595277309417,-0.9930920004844666,0.5460807681083679
2024-12-07 16:32:27.360015600,10.760015625,-0.196940615773201,-0.957938313484192,0.4331628382205963
2024-12-07 16:32:27.370043600,10.770043701171875,-0.2842922210693359,-0.91213196516037,0.2925480306148529
2024-12-07 16:32:27.380071700,10.78007177734375,-0.3791007101535797,-0.894022524356842,0.1625858694314956
2024-12-07 16:32:27.390099700,10.790099609375,-0.451538622379303,-0.8535425066947937,0.0592552907764911
2024-12-07 16:32:27.400128000,10.8001279296875,-0.4771049618721008,-0.7427550554275513,-0.0376837030053138
2024-12-07 16:32:27.410156000,10.810156005859374,-0.4771049618721008,-0.6064013242721558,-0.1910816729068756
2024-12-07 16:32:27.420184000,10.82018408203125,-0.4355596601963043,-0.4476770460605621,-0.3988080620765686
2024-12-07 16:32:27.430212000,10.830212158203125,-0.3343596160411834,-0.2516685426235199,-0.5777723789215088
2024-12-07 16:32:27.440240000,10.840240234375,-0.195875346660614,-0.0439421236515045,-0.615056574344635
2024-12-07 16:32:27.450268200,10.85026806640625,-0.090414248406887,-0.0279631707817316,-0.3753722608089447
2024-12-07 16:32:27.460296200,10.860296142578123,-0.1213068962097168,-0.3699128031730652,0.0709731876850128
2024-12-07 16:32:27.470324200,10.87032421875,-0.1532648056745529,-0.8716519474983215,0.6110618710517883
2024-12-07 16:32:27.480352300,10.880352294921876,0.0832237228751182,-1.195492148399353,0.9668599367141724
2024-12-07 16:32:27.490380300,10.89038037109375,0.3623228073120117,-1.0772478580474854,0.9508809447288512
2024-12-07 16:32:27.500408300,10.900408203125,0.5338302254676819,-0.5829655528068542,0.7399587631225586
2024-12-07 16:32:27.510436400,10.910436279296874,0.6808366179466248,-0.1771000772714615,0.4672512710094452
2024-12-07 16:32:27.520464400,10.92046435546875,0.6957502961158752,-0.2420811653137207,0.1764342933893203
2024-12-07 16:32:27.530492400,10.930492431640625,0.5167860388755798,-0.8886961936950684,-0.0739026665687561
2024-12-07 16:32:27.540520400,10.9405205078125,0.2014679908752441,-1.6407723426818848,-0.1985385119915008
2024-12-07 16:32:27.550548500,10.950548583984377,-0.0989363640546798,-1.9763303995132449,-0.1740374416112899
2024-12-07 16:32:27.560576500,10.960576416015623,-0.3609912097454071,-1.9710040092468264,-0.1442100703716278
2024-12-07 16:32:27.570604500,10.9706044921875,-0.5293028950691223,-1.7419723272323608,-0.1431448012590408
2024-12-07 16:32:27.580632600,10.980632568359376,-0.5239765644073486,-1.339302659034729,-0.1292963773012161
2024-12-07 16:32:27.590660600,10.99066064453125,-0.3545996248722076,-0.8428898453712463,-0.0824247747659683
2024-12-07 16:32:27.600688600,11.000688720703126,-0.0541952885687351,-0.406131774187088,-0.0504668653011322
2024-12-07 16:32:27.610716700,11.010716552734374,0.2792322337627411,-0.0737695097923278,-0.06964161247015
2024-12-07 16:32:27.620744400,11.020744384765624,0.5093291997909546,0.1850895583629608,-0.1559279710054397
2024-12-07 16:32:27.630772500,11.0307724609375,0.5860281586647034,0.4215780794620514,-0.2986733019351959
2024-12-07 16:32:27.640800500,11.040800537109376,0.5402218103408813,0.4183822870254516,-0.3700459599494934
2024-12-07 16:32:27.650828500,11.05082861328125,0.3910849094390869,0.0146473748609423,-0.2901511788368225
2024-12-07 16:32:27.660856600,11.060856689453123,0.1972069293260574,-0.4657865166664123,-0.113317422568798
2024-12-07 16:32:27.670884600,11.070884521484375,0.0310258027166128,-0.6458160877227783,0.0198405347764492
2024-12-07 16:32:27.680912600,11.08091259765625,-0.049934234470129,-0.5552686452865601,0.0251668542623519
2024-12-07 16:32:27.690940700,11.090940673828126,-0.0296942237764596,-0.2996053993701935,-0.0739026665687561
2024-12-07 16:32:27.700968700,11.10096875,0.0448742322623729,-0.1014663651585578,-0.1846900880336761
2024-12-07 16:32:27.710996700,11.110996826171874,0.0960068851709365,0.0221042204648256,-0.2358227372169494
2024-12-07 16:32:27.721024800,11.121024658203124,0.113051101565361,0.1328916400671005,-0.2688459157943725
2024-12-07 16:32:27.731052800,11.131052734375,0.1077247858047485,0.2351569533348083,-0.3018690943717956
2024-12-07 16:32:27.741080800,11.141080810546876,0.0821584612131118,0.3299654126167297,-0.3263701498508453
2024-12-07 16:32:27.751108900,11.15110888671875,0.0310258027166128,0.3928159773349762,-0.3412838280200958
2024-12-07 16:32:27.761137000,11.161136962890623,-0.0509994961321353,0.383228600025177,-0.3359575271606445
2024-12-07 16:32:27.771165000,11.1711650390625,-0.1458079665899276,0.3203780353069305,-0.3093259334564209
2024-12-07 16:32:27.781193000,11.18119287109375,-0.2150501012802124,0.2468748539686203,-0.2794985473155975
2024-12-07 16:32:27.791221000,11.191220947265624,-0.2597911655902862,0.19467693567276,-0.2709764242172241
2024-12-07 16:32:27.801249000,11.2012490234375,-0.2810964286327362,0.1797632426023483,-0.285890132188797
2024-12-07 16:32:27.811277000,11.211277099609376,-0.2938795983791351,0.2021337747573852,-0.2986733019351959
2024-12-07 16:32:27.821305000,11.22130517578125,-0.306662768125534,0.2468748539686203,-0.296542763710022
2024-12-07 16:32:27.831333000,11.2313330078125,-0.319445937871933,0.3001380264759063,-0.294412225484848
2024-12-07 16:32:27.841361200,11.241361083984376,-0.3503385782241821,0.3480748832225799,-0.3125217258930206
2024-12-07 16:32:27.851389200,11.25138916015625,-0.3918838500976562,0.3363569974899292,-0.3338269889354706
2024-12-07 16:32:27.861417200,11.261417236328125,-0.4344944059848785,0.2671148478984833,-0.3455449044704437
2024-12-07 16:32:27.871445500,11.271445556640623,-0.4749744236469269,0.2095906287431717,-0.3540669977664947
2024-12-07 16:32:27.881473500,11.2814736328125,-0.4930838942527771,0.2213085144758224,-0.36152383685112
2024-12-07 16:32:27.891501600,11.29150146484375,-0.4643217921257019,0.3107906579971313,-0.3711112141609192
2024-12-07 16:32:27.901529600,11.301529541015626,-0.4089280664920807,0.4450138807296753,-0.3881554305553436
2024-12-07 16:32:27.911557600,11.3115576171875,-0.3620564937591553,0.5952160358428955,-0.4009386003017425
2024-12-07 16:32:27.921585700,11.321585693359374,-0.3364901542663574,0.7475487589836121,-0.3998733460903168
2024-12-07 16:32:27.931614000,11.331614013671874,-0.3205111920833587,0.890294075012207,-0.4083954393863678
2024-12-07 16:32:27.941642000,11.34164208984375,-0.2960101366043091,1.0266478061676023,-0.4371575713157654
2024-12-07 16:32:27.951670000,11.351669921875,-0.262986958026886,1.1693931818008425,-0.4701807498931885
2024-12-07 16:32:27.961698000,11.361697998046877,-0.2342248409986496,1.3259868621826172,-0.4957470595836639
2024-12-07 16:32:27.971726000,11.37172607421875,-0.2182458937168121,1.481515407562256,-0.5181176066398621
2024-12-07 16:32:27.981754000,11.381754150390623,-0.2235722094774246,1.5869765281677246,-0.5202481150627136
2024-12-07 16:32:27.991782400,11.391782470703124,-0.240616425871849,1.5880417823791504,-0.474441796541214
2024-12-07 16:32:28.001810400,11.401810546875,-0.2427469491958618,1.535843849182129,-0.3625891208648681
2024-12-07 16:32:28.011838500,11.41183837890625,-0.1905490309000015,1.5486270189285278,-0.1868206113576889
2024-12-07 16:32:28.021866500,11.421866455078124,-0.0680437162518501,1.5251911878585815,0.0187752712517976
2024-12-07 16:32:28.031894500,11.43189453125,0.007590003311634,1.2759195566177368,0.1157142594456672
2024-12-07 16:32:28.041922600,11.441922607421876,0.021438430994749,1.054344654083252,0.0784300342202186
2024-12-07 16:32:28.051950600,11.45195068359375,-0.0030626328662037,1.0021467208862305,0.0336889624595642
2024-12-07 16:32:28.061979000,11.461978759765625,-0.074435293674469,0.9318393468856812,-0.002530001103878
2024-12-07 16:32:28.072007000,11.4720068359375,-0.1351553201675415,0.7858982682228088,-0.0249005369842052
2024-12-07 16:32:28.082035000,11.482034912109375,-0.174570083618164,0.6218476295471191,0.0496679171919822
2024-12-07 16:32:28.092063000,11.49206298828125,-0.241681694984436,0.5217128396034241,0.2222406268119812
2024-12-07 16:32:28.102091000,11.502091064453126,-0.3109238147735595,0.5057339072227478,0.3308975100517273
2024-12-07 16:32:28.112119000,11.512119140625,-0.3428817391395569,0.4727107286453247,0.3085269927978515
2024-12-07 16:32:28.122147300,11.522147216796874,-0.3205111920833587,0.4301002025604248,0.1934785097837448
2024-12-07 16:32:28.132175400,11.53217529296875,-0.2352901101112365,0.5984118580818176,0.1103879436850547
