time,seconds_elapsed,z,y,x
2024-12-07 16:03:40.563521800,0.158521728515625,-0.0395479127764701,-0.02689790725708,-0.0691089779138565
2024-12-07 16:03:40.573465000,0.168465087890625,-0.033156331628561,-0.0513989701867103,-0.0723047703504562
2024-12-07 16:03:40.583446800,0.17844677734375,-0.0235689580440521,-0.066312663257122,-0.0755005627870559
2024-12-07 16:03:40.593467400,0.18846728515625,0.0009321057004854,-0.0918789878487587,-0.0712395086884498
2024-12-07 16:03:40.603524900,0.19852490234375,0.0286289602518081,-0.104662150144577,-0.063782662153244
2024-12-07 16:03:40.613617400,0.208617431640625,0.0147805325686931,-0.0886831954121589,-0.0701742395758628
2024-12-07 16:03:40.623740400,0.218740478515625,-0.007590003311634,-0.0684431865811348,-0.0680437162518501
2024-12-07 16:03:40.633889000,0.228888916015625,-0.0225036945194005,-0.0300936978310346,-0.0627174004912376
2024-12-07 16:03:40.644057600,0.2390576171875,-0.033156331628561,-0.013049479573965,-0.0584563426673412
2024-12-07 16:03:40.654239200,0.2492392578125,-0.0065247397869825,-0.0460726507008075,-0.0435426495969295
2024-12-07 16:03:40.664427800,0.259427734375,0.0137152690440416,-0.0631168708205223,-0.0264984332025051
2024-12-07 16:03:40.674615000,0.269614990234375,0.022237379103899,-0.0716389790177345,-0.0509994961321353
2024-12-07 16:03:40.684642600,0.279642578125,0.010519478470087,-0.1227716356515884,-0.0403468608856201
2024-12-07 16:03:40.694670000,0.289670166015625,-0.0565921291708946,-0.1664474457502365,0.021438430994749
2024-12-07 16:03:40.704697600,0.299697509765625,-0.1098553165793418,-0.1078579425811767,-0.022237379103899
2024-12-07 16:03:40.714725000,0.30972509765625,-0.0640489757061004,-0.1078579425811767,-0.052064761519432
2024-12-07 16:03:40.724752600,0.319752685546875,0.0126500055193901,-0.1685779690742492,-0.0424773879349231
2024-12-07 16:03:40.734780000,0.32977978515625,0.0509994961321353,-0.1632516533136367,-0.0605868697166442
2024-12-07 16:03:40.744807400,0.339807373046875,0.0350205413997173,-0.066312663257122,-0.0925447791814804
2024-12-07 16:03:40.754835000,0.3498349609375,-0.0001331579551333,0.032756857573986,-0.1213068962097168
2024-12-07 16:03:40.764862500,0.359862548828125,-0.0448742322623729,0.0774979293346405,-0.1543300747871399
2024-12-07 16:03:40.774890000,0.369889892578125,-0.1055942550301551,0.0689758211374282,-0.1830921918153762
2024-12-07 16:03:40.784917500,0.37991748046875,-0.180162712931633,0.1350221633911132,-0.2438122183084488
2024-12-07 16:03:40.794945000,0.389945068359375,-0.2398174703121185,0.1723063886165619,-0.3024017214775085
2024-12-07 16:03:40.804972500,0.39997265625,-0.2749711871147156,0.1339569091796875,-0.3226417303085327
2024-12-07 16:03:40.815000000,0.41,-0.2824280261993408,0.0636495053768158,-0.3151848912239074
2024-12-07 16:03:40.825027600,0.420027587890625,-0.2643185555934906,0.044474758207798,-0.3002711832523346
2024-12-07 16:03:40.835055000,0.43005517578125,-0.1929458826780319,0.0135821113362908,-0.2885532975196838
2024-12-07 16:03:40.845082600,0.44008251953125,-0.0651142373681068,-0.0599210783839225,-0.2672480046749115
2024-12-07 16:03:40.855110100,0.450110107421875,0.038216333836317,-0.1131842583417892,-0.2278332561254501
2024-12-07 16:03:40.865137400,0.460137451171875,0.0680437162518501,-0.1749695539474487,-0.1926795542240142
2024-12-07 16:03:40.875165000,0.4701650390625,0.0211721155792474,-0.2761695981025696,-0.1767006069421768
2024-12-07 16:03:40.885192400,0.4801923828125,-0.0757668763399124,-0.347542256116867,-0.1607216447591781
2024-12-07 16:03:40.895220000,0.490219970703125,-0.1641837656497955,-0.4370244145393371,-0.1351553201675415
2024-12-07 16:03:40.905247500,0.50024755859375,-0.2451438009738922,-0.3922833502292633,-0.1170458421111106
2024-12-07 16:03:40.915275000,0.51027490234375,-0.3165164589881897,-0.3901528120040893,-0.1511342823505401
2024-12-07 16:03:40.925302500,0.520302490234375,-0.348474383354187,-0.3592601716518402,-0.2214416861534118
2024-12-07 16:03:40.935330000,0.530330078125,-0.356996476650238,-0.2793653905391693,-0.2438122183084488
2024-12-07 16:03:40.945357600,0.540357666015625,-0.3282343447208404,-0.1771000772714615,-0.2342248409986496
2024-12-07 16:03:40.955385000,0.550385009765625,-0.1982721984386444,-0.1344895362854004,-0.2427469491958618
2024-12-07 16:03:40.965412600,0.56041259765625,-0.005459476262331,-0.1302284747362136,-0.2225069403648376
2024-12-07 16:03:40.975440100,0.570440185546875,0.1649827063083648,-0.0503337085247039,-0.1532648056745529
2024-12-07 16:03:40.985467600,0.580467529296875,0.2235722094774246,0.0061252657324075,-0.1031974181532859
2024-12-07 16:03:40.995495000,0.590494873046875,0.1713742911815643,0.0615189746022224,-0.1213068962097168
2024-12-07 16:03:41.005522400,0.6005224609375,0.1234374269843101,0.1062600463628768,-0.2001364082098007
2024-12-07 16:03:41.015550000,0.610550048828125,0.1703090220689773,0.1360874325037002,-0.2960101366043091
2024-12-07 16:03:41.025577500,0.620577392578125,0.2842922210693359,-0.0396810695528984,-0.3428817391395569
2024-12-07 16:03:41.035605000,0.63060498046875,0.2896185517311096,-0.622380256652832,-0.3322291076183319
2024-12-07 16:03:41.045632500,0.640632568359375,0.3791007101535797,-0.9462204575538636,-0.4046670198440552
2024-12-07 16:03:41.055660000,0.650659912109375,0.5751091837882996,-0.9036098718643188,-0.5016059875488281
2024-12-07 16:03:41.065687600,0.6606875,0.8052061796188354,-0.8056056499481201,-0.5761744976043701
2024-12-07 16:03:41.075715000,0.670715087890625,1.0161283016204834,-0.9515467286109924,-0.5783050060272217
2024-12-07 16:03:41.085742600,0.68074267578125,1.2526168823242188,-1.493765950202942,-0.5452818274497986
2024-12-07 16:03:41.095770000,0.69077001953125,1.5306507349014282,-2.417349576950073,-0.4526038765907287
2024-12-07 16:03:41.105797600,0.700797607421875,1.7138760089874268,-3.960916519165039,-0.3354249000549316
2024-12-07 16:03:41.115825200,0.7108251953125,1.926928758621216,-4.96972131729126,-0.2992059290409088
2024-12-07 16:03:41.125852400,0.720852294921875,2.174069881439209,-4.963329792022705,-0.440885990858078
2024-12-07 16:03:41.135880000,0.7308798828125,2.344512224197388,-4.324171543121338,-0.5633913278579712
2024-12-07 16:03:41.145907500,0.740907470703125,2.1751351356506348,-3.2397329807281494,-0.6081323623657227
2024-12-07 16:03:41.155935000,0.75093505859375,2.005758285522461,-2.1244020462036133,-0.5740439295768738
2024-12-07 16:03:41.165962500,0.76096240234375,1.6254591941833496,-1.1859047412872314,-0.4611259996891022
2024-12-07 16:03:41.175990000,0.770989990234375,1.0353031158447266,-0.6117276549339294,-0.4046670198440552
2024-12-07 16:03:41.186017500,0.781017578125,0.5069323182106018,-0.2996053993701935,-0.3833617568016052
2024-12-07 16:03:41.196044800,0.791044921875,0.0009321057004854,-0.3273022472858429,-0.3471427857875824
2024-12-07 16:03:41.206072300,0.801072265625,-0.4613923132419586,-0.500940203666687,-0.2938795983791351
2024-12-07 16:03:41.216099800,0.811099853515625,-0.6957502961158752,-0.6905571818351746,-0.1468732208013534
2024-12-07 16:03:41.226127400,0.82112744140625,-0.5625923871994019,-0.5936181545257568,0.0118510583415627
2024-12-07 16:03:41.236154600,0.831154541015625,-0.4081291258335113,-0.3464770019054413,0.0917458310723304
2024-12-07 16:03:41.246182100,0.84118212890625,-0.3452785909175873,-0.1355548053979873,0.101333200931549
2024-12-07 16:03:41.256209700,0.851209716796875,-0.4603270590305328,-0.1792306005954742,0.0565921291708946
2024-12-07 16:03:41.266237200,0.8612373046875,-0.5721797347068787,-0.4103928208351135,-0.0041278963908553
2024-12-07 16:03:41.276264400,0.871264404296875,-0.5604618191719055,-0.6703171730041504,-0.0776310861110687
2024-12-07 16:03:41.286292000,0.8812919921875,-0.5348954796791077,-0.8918919563293457,-0.1490037590265274
2024-12-07 16:03:41.296319500,0.891319580078125,-0.554070234298706,-0.978178322315216,-0.2150501012802124
2024-12-07 16:03:41.306346800,0.9013466796875,-0.4944154918193817,-0.932371973991394,-0.3237069845199585
2024-12-07 16:03:41.316374300,0.911374267578125,-0.2270343154668808,-0.8972182869911194,-0.6262418627738953
2024-12-07 16:03:41.326401800,0.92140185546875,-0.2611227631568908,-0.4093275666236877,-0.3972101807594299
2024-12-07 16:03:41.336429300,0.93142919921875,-0.2131858915090561,0.2063948363065719,0.0225036945194005
2024-12-07 16:03:41.346456600,0.94145654296875,-0.0384826473891735,0.3800328075885772,0.1055942550301551
2024-12-07 16:03:41.356484000,0.951484130859375,0.1276984810829162,0.259658008813858,0.0235689580440521
2024-12-07 16:03:41.366511600,0.96151171875,0.2214416861534118,0.137152686715126,-0.0264984332025051
2024-12-07 16:03:41.376539000,0.971538818359375,0.252334326505661,0.0380831733345985,-0.024367906153202
2024-12-07 16:03:41.386566400,0.98156640625,0.2235722094774246,0.0018642114009708,0.0310258027166128
2024-12-07 16:03:41.396594000,0.991593994140625,0.1948100924491882,-0.0013315795222297,0.102398470044136
2024-12-07 16:03:41.406621400,1.001621337890625,0.2001364082098007,0.0071905297227203,0.1066595241427421
2024-12-07 16:03:41.416648700,1.011648681640625,0.2171806246042251,0.018908429890871,0.060853186994791
2024-12-07 16:03:41.426676200,1.02167626953125,0.2320943176746368,0.0402137041091918,0.0139815853908658
2024-12-07 16:03:41.436703700,1.031703857421875,0.2533995807170868,0.046605285257101,-0.0307594873011112
2024-12-07 16:03:41.446731000,1.04173095703125,0.2619217038154602,0.0221042204648256,-0.0669784545898437
2024-12-07 16:03:41.456758500,1.051758544921875,0.2565953731536865,-0.0226368531584739,-0.091479517519474
2024-12-07 16:03:41.466786000,1.0617861328125,0.2448774725198745,-0.0695084556937217,-0.0946753025054931
2024-12-07 16:03:41.476813600,1.0718134765625,0.2225069403648376,-0.1099884733557701,-0.0808268785476684
2024-12-07 16:03:41.486841000,1.081841064453125,0.2043974548578262,-0.1643169224262237,-0.0616521313786506
2024-12-07 16:03:41.496868400,1.091868408203125,0.1916143000125885,-0.228232741355896,-0.0531300231814384
2024-12-07 16:03:41.506896000,1.101895751953125,0.184157446026802,-0.2623211741447449,-0.0552605502307415
2024-12-07 16:03:41.516923400,1.11192333984375,0.1798963993787765,-0.282561182975769,-0.0627174004912376
2024-12-07 16:03:41.526951000,1.121950927734375,0.1724395453929901,-0.3049317300319671,-0.0701742395758628
2024-12-07 16:03:41.536978400,1.131978515625,0.1639174371957779,-0.3091927766799927,-0.0776310861110687
2024-12-07 16:03:41.547006000,1.142005859375,0.1500690132379531,-0.2878875136375427,-0.091479517519474
2024-12-07 16:03:41.557033500,1.152033447265625,0.140481635928154,-0.2229064106941223,-0.1010668873786926
2024-12-07 16:03:41.567061000,1.16206103515625,0.1330247968435287,-0.1163800507783889,-0.0936100408434867
2024-12-07 16:03:41.577088500,1.172088623046875,0.1245026886463165,0.0029294749256223,-0.0818921402096748
2024-12-07 16:03:41.587116000,1.182115966796875,0.1170458421111106,0.0902810916304588,-0.0691089779138565
2024-12-07 16:03:41.597143600,1.1921435546875,0.0978710949420929,0.1499358564615249,-0.0446079149842262
2024-12-07 16:03:41.607171000,1.202171142578125,0.0701742395758628,0.1957421898841858,-0.022237379103899
2024-12-07 16:03:41.617198600,1.212198486328125,0.0403468608856201,0.2095906287431717,0.0011984215816482
2024-12-07 16:03:41.627225900,1.222225830078125,0.0147805325686931,0.2053295671939849,0.0395479127764701
2024-12-07 16:03:41.637253400,1.23225341796875,-0.0129163218662142,0.2266348451375961,0.0810931921005249
2024-12-07 16:03:41.647281000,1.242281005859375,-0.0299605391919612,0.261788547039032,0.1002679392695427
2024-12-07 16:03:41.657308400,1.252308349609375,-0.0374173857271671,0.2820285558700561,0.0928110927343368
2024-12-07 16:03:41.667336000,1.2623359375,-0.0438089668750762,0.3075948655605316,0.0715058222413063
2024-12-07 16:03:41.677363500,1.272363525390625,-0.0576573945581913,0.3384875357151031,0.0512658134102821
2024-12-07 16:03:41.687391000,1.282390869140625,-0.0725710839033126,0.3438138365745544,0.021438430994749
2024-12-07 16:03:41.697418500,1.29241845703125,-0.0906805694103241,0.2862896025180816,-0.0073236874304711
2024-12-07 16:03:41.707446000,1.302446044921875,-0.1077247858047485,0.1786979734897613,-0.0233026426285505
2024-12-07 16:03:41.717473500,1.3124736328125,-0.1226384788751602,0.0625842362642288,-0.0350205413997173
2024-12-07 16:03:41.727501000,1.3225009765625,-0.1343563795089721,-0.0428768619894981,-0.052064761519432
2024-12-07 16:03:41.737528600,1.332528564453125,-0.1439437568187713,-0.1376853287220001,-0.0691089779138565
2024-12-07 16:03:41.747555800,1.342555908203125,-0.1471395343542099,-0.1909485012292862,-0.0818921402096748
2024-12-07 16:03:41.757583400,1.352583251953125,-0.1407479643821716,-0.1973400861024856,-0.0850879326462745
2024-12-07 16:03:41.767611000,1.36261083984375,-0.1279647946357727,-0.1760348230600357,-0.079761616885662
2024-12-07 16:03:41.777638400,1.372638427734375,-0.1109205782413482,-0.1387505829334259,-0.0680437162518501
2024-12-07 16:03:41.787666000,1.382666015625,-0.0917458310723304,-0.0876179337501525,-0.0541952885687351
2024-12-07 16:03:41.797693400,1.392693359375,-0.073636345565319,-0.0322242267429828,-0.038216333836317
2024-12-07 16:03:41.807721000,1.402720947265625,-0.0576573945581913,0.0295610651373863,-0.024367906153202
2024-12-07 16:03:41.817748500,1.41274853515625,-0.0502005480229854,0.1019989922642707,-0.0179763231426477
2024-12-07 16:03:41.827776000,1.42277587890625,-0.0480700209736824,0.1595232337713241,-0.0126500055193901
2024-12-07 16:03:41.837803500,1.432803466796875,-0.0533963404595851,0.192546397447586,-0.0009321057004854
2024-12-07 16:03:41.847831000,1.4428310546875,-0.060853186994791,0.2085253596305847,0.021438430994749
2024-12-07 16:03:41.857858600,1.452858642578125,-0.0693752914667129,0.2127864062786102,0.0533963404595851
2024-12-07 16:03:41.867886000,1.462885986328125,-0.0757668763399124,0.2117211520671844,0.0832237228751182
2024-12-07 16:03:41.877913300,1.472913330078125,-0.0757668763399124,0.2159821987152099,0.1002679392695427
2024-12-07 16:03:41.887940900,1.48294091796875,-0.0725710839033126,0.2266348451375961,0.1034637317061424
2024-12-07 16:03:41.897968400,1.492968505859375,-0.0619184486567974,0.2372874766588211,0.0938763618469238
2024-12-07 16:03:41.907996000,1.502995849609375,-0.0502005480229854,0.2468748539686203,0.0789626687765121
2024-12-07 16:03:41.918023400,1.5130234375,-0.0480700209736824,0.261788547039032,0.0619184486567974
2024-12-07 16:03:41.928051000,1.523051025390625,-0.0587226599454879,0.2639190554618835,0.0406131781637668
2024-12-07 16:03:41.938078500,1.533078369140625,-0.0778974071145057,0.2585927546024322,0.0171773768961429
2024-12-07 16:03:41.948106000,1.54310595703125,-0.102398470044136,0.2575274705886841,-0.0073236874304711
2024-12-07 16:03:41.958133500,1.553133544921875,-0.1332911103963852,0.2564622163772583,-0.0296942237764596
2024-12-07 16:03:41.968161000,1.5631611328125,-0.157792180776596,0.2564622163772583,-0.0478037074208259
2024-12-07 16:03:41.978188500,1.5731884765625,-0.1748363971710205,0.2628538012504577,-0.0627174004912376
2024-12-07 16:03:41.988216000,1.583216064453125,-0.1844237744808197,0.2575274705886841,-0.074435293674469
2024-12-07 16:03:41.998243600,1.59324365234375,-0.1876195520162582,0.2415485233068466,-0.0765658244490623
2024-12-07 16:03:42.008270800,1.603270751953125,-0.1897500902414322,0.2245043069124221,-0.0680437162518501
2024-12-07 16:03:42.018298400,1.61329833984375,-0.1961416751146316,0.2085253596305847,-0.0446079149842262
2024-12-07 16:03:42.028326000,1.623325927734375,-0.2025332450866699,0.1893506050109863,-0.0190415866672992
2024-12-07 16:03:42.038353400,1.633353515625,-0.2078595608472824,0.1765674501657486,-0.0009321057004854
2024-12-07 16:03:42.048381000,1.643380859375,-0.2110553532838821,0.1691105961799621,0.0097205303609371
2024-12-07 16:03:42.058408400,1.653408447265625,-0.2121206223964691,0.1637842804193496,0.0161121133714914
2024-12-07 16:03:42.068436000,1.66343603515625,-0.2110553532838821,0.1573926955461502,0.0203731674700975
2024-12-07 16:03:42.078463500,1.67346337890625,-0.2057290375232696,0.1712411344051361,0.0139815853908658
2024-12-07 16:03:42.088491000,1.683490966796875,-0.2014679908752441,0.2085253596305847,0.0022636852227151
2024-12-07 16:03:42.098518500,1.6935185546875,-0.1940111368894577,0.2447443157434463,-0.0094542149454355
2024-12-07 16:03:42.108545800,1.7035458984375,-0.179097443819046,0.2745717167854309,-0.0211721155792474
2024-12-07 16:03:42.118573300,1.7135732421875,-0.1545963883399963,0.2937464416027069,-0.0307594873011112
2024-12-07 16:03:42.128600800,1.723600830078125,-0.1226384788751602,0.2958769798278808,-0.0488689690828323
2024-12-07 16:03:42.138628400,1.73362841796875,-0.0906805694103241,0.2916159331798553,-0.0701742395758628
2024-12-07 16:03:42.148655600,1.743655517578125,-0.0683100298047065,0.2841590642929077,-0.0850879326462745
2024-12-07 16:03:42.158683100,1.75368310546875,-0.0672447681427002,0.259658008813858,-0.0850879326462745
2024-12-07 16:03:42.168710700,1.763710693359375,-0.0800279304385185,0.1989379823207855,-0.0893489867448806
2024-12-07 16:03:42.178738200,1.77373828125,-0.101333200931549,0.137152686715126,-0.1000016257166862
2024-12-07 16:03:42.188765400,1.783765380859375,-0.1226384788751602,0.0838895142078399,-0.107458472251892
2024-12-07 16:03:42.198793000,1.79379296875,-0.1375521719455719,0.0498010739684104,-0.0925447791814804
2024-12-07 16:03:42.208820500,1.803820556640625,-0.1396826952695846,0.0519316010177135,-0.0669784545898437
2024-12-07 16:03:42.218847700,1.81384765625,-0.1322258561849594,0.088150568306446,-0.0605868697166442
2024-12-07 16:03:42.228875300,1.823875244140625,-0.1194426864385604,0.1403484791517257,-0.0776310861110687
2024-12-07 16:03:42.238902800,1.83390283203125,-0.1098553165793418,0.192546397447586,-0.1085237339138984
2024-12-07 16:03:42.248930300,1.843930419921875,-0.1109205782413482,0.2319611608982086,-0.1394163817167282
2024-12-07 16:03:42.258957600,1.85395751953125,-0.1215732097625732,0.2692453861236572,-0.1564605981111526
2024-12-07 16:03:42.268985000,1.863985107421875,-0.1418132185935974,0.2852243483066559,-0.1596563905477523
2024-12-07 16:03:42.279012600,1.8740126953125,-0.1705753356218338,0.2660495936870575,-0.1468732208013534
2024-12-07 16:03:42.289040000,1.884039794921875,-0.1950764060020446,0.2372874766588211,-0.1127847880125045
2024-12-07 16:03:42.299067400,1.8940673828125,-0.2153164148330688,0.2117211520671844,-0.0627174004912376
2024-12-07 16:03:42.309095000,1.904094970703125,-0.2291648387908935,0.204264298081398,-0.0083889514207839
2024-12-07 16:03:42.319122400,1.914122314453125,-0.23662169277668,0.2159821987152099,0.0448742322623729
2024-12-07 16:03:42.329149700,1.924149658203125,-0.2312953621149063,0.247940108180046,0.0981374159455299
2024-12-07 16:03:42.339177200,1.93417724609375,-0.2206427305936813,0.2980075180530548,0.1545963883399963
2024-12-07 16:03:42.349204700,1.944204833984375,-0.2142511457204818,0.3597927987575531,0.2099900990724563
2024-12-07 16:03:42.359232000,1.95423193359375,-0.2078595608472824,0.3960117697715759,0.2653838098049164
2024-12-07 16:03:42.369259500,1.964259521484375,-0.2121206223964691,0.4141212403774261,0.3186469972133636
2024-12-07 16:03:42.379287000,1.974287109375,-0.2195774614810943,0.4119907021522522,0.3527354300022125
2024-12-07 16:03:42.389314600,1.984314453125,-0.2206427305936813,0.3789675533771515,0.3580617308616638
2024-12-07 16:03:42.399341800,1.994341796875,-0.223838523030281,0.3459443747997284,0.3282343447208404
2024-12-07 16:03:42.409369300,2.004369384765625,-0.2259690463542938,0.3118559420108795,0.2792322337627411
2024-12-07 16:03:42.419396900,2.01439697265625,-0.2206427305936813,0.2798980176448822,0.224903792142868
2024-12-07 16:03:42.429424000,2.024424072265625,-0.2099900990724563,0.2585927546024322,0.1833585053682327
2024-12-07 16:03:42.439451600,2.03445166015625,-0.2014679908752441,0.2458095848560333,0.1567269116640091
2024-12-07 16:03:42.449479200,2.044479248046875,-0.1972069293260574,0.2372874766588211,0.1407479643821716
2024-12-07 16:03:42.459506700,2.054506591796875,-0.1940111368894577,0.2127864062786102,0.1332911103963852
2024-12-07 16:03:42.469534000,2.064533935546875,-0.1865542978048324,0.192546397447586,0.1332911103963852
2024-12-07 16:03:42.479561500,2.0745615234375,-0.1705753356218338,0.181893765926361,0.1226384788751602
2024-12-07 16:03:42.489589000,2.084589111328125,-0.1503353267908096,0.2010685056447982,0.1066595241427421
2024-12-07 16:03:42.499616300,2.0946162109375,-0.1268995255231857,0.2468748539686203,0.0970721468329429
2024-12-07 16:03:42.509643800,2.104643798828125,-0.1055942550301551,0.2916159331798553,0.0960068851709365
2024-12-07 16:03:42.519671300,2.11467138671875,-0.0970721468329429,0.3278348743915558,0.1045289933681488
2024-12-07 16:03:42.529698800,2.12469873046875,-0.0970721468329429,0.3470096290111542,0.1109205782413482
2024-12-07 16:03:42.539726000,2.13472607421875,-0.1034637317061424,0.3544664680957794,0.1066595241427421
2024-12-07 16:03:42.549753600,2.144753662109375,-0.1194426864385604,0.3565970063209533,0.1119858399033546
2024-12-07 16:03:42.559781000,2.154781005859375,-0.1332911103963852,0.3512706756591797,0.1354216337203979
2024-12-07 16:03:42.569808600,2.16480859375,-0.1450090110301971,0.3310306668281555,0.1631184965372085
2024-12-07 16:03:42.579836000,2.1748359375,-0.1609879732131958,0.3043990731239319,0.1844237744808197
2024-12-07 16:03:42.589863400,2.184863525390625,-0.1716406047344207,0.2724411785602569,0.2174469381570816
2024-12-07 16:03:42.599891000,2.194890869140625,-0.1972069293260574,0.2607232630252838,0.2643185555934906
2024-12-07 16:03:42.609918200,2.204918212890625,-0.2206427305936813,0.2660495936870575,0.3090596199035644
2024-12-07 16:03:42.619945700,2.21494580078125,-0.2334259003400802,0.2639190554618835,0.3335606753826141
2024-12-07 16:03:42.629973200,2.22497314453125,-0.2387522161006927,0.2532664239406585,0.3175817131996155
2024-12-07 16:03:42.640000800,2.235000732421875,-0.2334259003400802,0.2649843394756317,0.2866890728473663
2024-12-07 16:03:42.650028000,2.245028076171875,-0.2217079997062683,0.2969422340393066,0.2504701018333435
2024-12-07 16:03:42.660055600,2.2550556640625,-0.2025332450866699,0.30546435713768,0.2035985141992569
2024-12-07 16:03:42.670083000,2.2650830078125,-0.1822932362556457,0.2756369709968567,0.1428784877061844
2024-12-07 16:03:42.680110300,2.2751103515625,-0.1663142889738083,0.2319611608982086,0.0864195153117179
2024-12-07 16:03:42.690137900,2.285137939453125,-0.1471395343542099,0.1978727281093597,0.0448742322623729
2024-12-07 16:03:42.700165400,2.295165283203125,-0.1226384788751602,0.1691105961799621,0.0171773768961429
2024-12-07 16:03:42.710193000,2.30519287109375,-0.0896153002977371,0.1307611167430877,0.0086552668362855
2024-12-07 16:03:42.720220200,2.31522021484375,-0.0523310750722885,0.0902810916304588,0.0086552668362855
2024-12-07 16:03:42.730247700,2.32524755859375,-0.0118510583415627,0.0870852991938591,0.0107857948169112
2024-12-07 16:03:42.740275200,2.335275146484375,0.0339552797377109,0.0242347475141286,0.019307903945446
2024-12-07 16:03:42.750302500,2.345302490234375,0.0680437162518501,-0.0631168708205223,0.1300953179597854
2024-12-07 16:03:42.760330000,2.355330078125,0.090414248406887,-0.0556600242853164,0.2419480085372924
2024-12-07 16:03:42.770357500,2.365357421875,0.1415469050407409,-0.0279631707817316,0.2802974879741668
2024-12-07 16:03:42.780385000,2.375385009765625,0.2086585164070129,-0.1089232042431831,0.3761712312698364
2024-12-07 16:03:42.790412500,2.38541259765625,0.2619217038154602,-0.2985401451587677,0.5285038948059082
2024-12-07 16:03:42.800439800,2.395439697265625,0.2832269668579101,-0.3933486044406891,0.7490134835243225
2024-12-07 16:03:42.810467300,2.40546728515625,0.2960101366043091,-0.425306499004364,0.868323028087616
2024-12-07 16:03:42.820494800,2.415494873046875,0.3354249000549316,-0.3816306889057159,0.8363651037216187
2024-12-07 16:03:42.830522400,2.4255224609375,0.3908185958862304,-0.2122537791728973,0.7202513813972473
2024-12-07 16:03:42.840550000,2.4355498046875,0.4579302072525024,0.0689758211374282,0.6094639897346497
2024-12-07 16:03:42.850577400,2.445577392578125,0.5229113101959229,0.3480748832225799,0.6265081763267517
2024-12-07 16:03:42.860605000,2.45560498046875,0.551673412322998,0.5558013319969177,0.8129293322563171
2024-12-07 16:03:42.870632400,2.465632568359375,0.5601955056190491,0.6346307992935181,0.9972199201583862
2024-12-07 16:03:42.880660000,2.475659912109375,0.5836313366889954,0.5291697382926941,1.0270472764968872
2024-12-07 16:03:42.890687500,2.4856875,0.5932186841964722,0.3097254037857055,0.8981503844261169
2024-12-07 16:03:42.900715000,2.495715087890625,0.5932186841964722,0.1030642539262771,0.734099805355072
2024-12-07 16:03:42.910742500,2.505742431640625,0.5655218362808228,-0.0695084556937217,0.6297039985656738
2024-12-07 16:03:42.920770000,2.51577001953125,0.4984102249145508,-0.2175800949335098,0.5551354885101318
2024-12-07 16:03:42.930797300,2.52579736328125,0.4004059731960296,-0.3315632939338684,0.4752407371997833
2024-12-07 16:03:42.940824800,2.535824951171875,0.3002711832523346,-0.4018706977367401,0.3857586085796356
2024-12-07 16:03:42.950852400,2.545852294921875,0.2267680019140243,-0.4466117918491363,0.3154512047767639
2024-12-07 16:03:42.960879900,2.5558798828125,0.1948100924491882,-0.5179844498634338,0.2728406488895416
2024-12-07 16:03:42.970907400,2.565907470703125,0.1937448233366012,-0.5723128914833069,0.223838523030281
2024-12-07 16:03:42.980935000,2.575934814453125,0.2161153554916381,-0.5307676196098328,0.1514005959033966
2024-12-07 16:03:42.990962400,2.58596240234375,0.2480732649564743,-0.4434159994125366,0.0842889845371246
2024-12-07 16:03:43.000990000,2.595989990234375,0.2565953731536865,-0.3571296334266662,0.0384826473891735
2024-12-07 16:03:43.011017500,2.606017578125,0.2938795983791351,-0.3251717388629913,0.0011984215816482
2024-12-07 16:03:43.021045000,2.616044921875,0.3588607013225555,-0.3656517565250397,-0.0275636967271566
2024-12-07 16:03:43.031072500,2.626072509765625,0.3716438412666321,-0.3635212182998657,-0.0286289602518081
2024-12-07 16:03:43.041100000,2.63610009765625,0.363121747970581,-0.358194887638092,-0.0083889514207839
2024-12-07 16:03:43.051127600,2.64612744140625,0.3386206924915313,-0.4071970283985138,0.0246342215687036
2024-12-07 16:03:43.061154800,2.65615478515625,0.3119890987873077,-0.5041360259056091,0.0661795064806938
2024-12-07 16:03:43.071182300,2.666182373046875,0.2874880135059356,-0.6117276549339294,0.1109205782413482
2024-12-07 16:03:43.081209900,2.6762099609375,0.2619217038154602,-0.6745781898498535,0.1599227041006088
2024-12-07 16:03:43.091237400,2.6862373046875,0.2715090811252594,-0.6745781898498535,0.1918806135654449
2024-12-07 16:03:43.101265000,2.696264892578125,0.3098585605621338,-0.6649908423423767,0.2004027217626571
2024-12-07 16:03:43.111292400,2.70629248046875,0.3673827946186065,-0.6149234175682068,0.1950764060020446
2024-12-07 16:03:43.121319700,2.716319580078125,0.438755452632904,-0.5478118062019348,0.1556616425514221
2024-12-07 16:03:43.131347200,2.72634716796875,0.4920186400413513,-0.5201149582862854,0.1375521719455719
2024-12-07 16:03:43.141374700,2.736374755859375,0.5229113101959229,-0.5914876461029053,0.1620532274246215
2024-12-07 16:03:43.151402200,2.74640234375,0.5378249883651733,-0.6916224360466003,0.1876195520162582
2024-12-07 16:03:43.161429500,2.756429443359375,0.5484775900840759,-0.781104564666748,0.2004027217626571
2024-12-07 16:03:43.171457000,2.76645703125,0.543151319026947,-0.8418245911598206,0.2206427305936813
2024-12-07 16:03:43.181484500,2.776484619140625,0.5207807421684265,-0.8492814302444458,0.2430132627487182
2024-12-07 16:03:43.191511800,2.78651171875,0.495214432477951,-0.8130624890327454,0.2675143182277679
2024-12-07 16:03:43.201539300,2.796539306640625,0.4749744236469269,-0.7683213949203491,0.2845585644245147
2024-12-07 16:03:43.211566800,2.80656689453125,0.4344944059848785,-0.6671213507652283,0.2856238186359405
2024-12-07 16:03:43.221594400,2.816594482421875,0.4057323038578033,-0.6330329179763794,0.29201540350914
2024-12-07 16:03:43.231621600,2.82662158203125,0.384427011013031,-0.7022750377655029,0.3122554123401642
2024-12-07 16:03:43.241649200,2.836649169921875,0.3567301630973816,-0.8247803449630737,0.2834932804107666
2024-12-07 16:03:43.251676700,2.8466767578125,0.3354249000549316,-0.8450203537940979,0.1982721984386444
2024-12-07 16:03:43.261704000,2.856703857421875,0.319445937871933,-0.6745781898498535,0.1173121556639671
2024-12-07 16:03:43.271731500,2.8667314453125,0.2938795983791351,-0.4913528561592102,0.0502005480229854
2024-12-07 16:03:43.281759000,2.876759033203125,0.250203788280487,-0.404001235961914,0.005459476262331
2024-12-07 16:03:43.291786500,2.886786376953125,0.195875346660614,-0.4178496599197387,-0.0115847419947385
2024-12-07 16:03:43.301813800,2.896813720703125,0.1575258672237396,-0.4114580750465393,-0.0233026426285505
2024-12-07 16:03:43.311841300,2.90684130859375,0.140481635928154,-0.3805654346942901,-0.0403468608856201
2024-12-07 16:03:43.321868800,2.916868896484375,0.1468732208013534,-0.3752391040325165,-0.0456731803715229
2024-12-07 16:03:43.331896000,2.92689599609375,0.1596563905477523,-0.3965443968772888,-0.0467384420335292
2024-12-07 16:03:43.341923600,2.936923583984375,0.1617869138717651,-0.4221107065677643,-0.0627174004912376
2024-12-07 16:03:43.351951000,2.946951171875,0.1596563905477523,-0.4412854611873626,-0.0968058332800865
2024-12-07 16:03:43.361978600,2.956978515625,0.1671132296323776,-0.4455465078353882,-0.1372858583927154
2024-12-07 16:03:43.372006000,2.967005859375,0.1788311302661895,-0.4242412447929382,-0.1756353378295898
2024-12-07 16:03:43.382033400,2.977033447265625,0.1830921918153762,-0.3922833502292633,-0.2129195630550384
2024-12-07 16:03:43.392061000,2.98706103515625,0.1756353378295898,-0.3816306889057159,-0.2470080107450485
2024-12-07 16:03:43.402088200,2.997088134765625,0.1585911214351654,-0.3880222737789154,-0.2683132886886596
2024-12-07 16:03:43.412115700,3.00711572265625,0.1394163817167282,-0.4050664901733398,-0.2906838059425354
2024-12-07 16:03:43.422143200,3.017143310546875,0.1234374269843101,-0.416784405708313,-0.327968031167984
2024-12-07 16:03:43.432170800,3.027170654296875,0.0968058332800865,-0.4274370372295379,-0.384427011013031
2024-12-07 16:03:43.442198000,3.037197998046875,0.0840226709842681,-0.3177148699760437,-0.3791007101535797
2024-12-07 16:03:43.452225500,3.0472255859375,0.0755005627870559,-0.2836264371871948,-0.3343596160411834
2024-12-07 16:03:43.462253000,3.057253173828125,0.0680437162518501,-0.3315632939338684,-0.298140674829483
2024-12-07 16:03:43.472280300,3.0672802734375,0.0712395086884498,-0.3560643792152405,-0.2885532975196838
2024-12-07 16:03:43.482307800,3.077307861328125,0.0776310861110687,-0.349672794342041,-0.2917490899562835
2024-12-07 16:03:43.492335400,3.08733544921875,0.0840226709842681,-0.3134538233280182,-0.2800311744213104
2024-12-07 16:03:43.502363000,3.09736279296875,0.0968058332800865,-0.2442116886377334,-0.2480732649564743
2024-12-07 16:03:43.512390100,3.10739013671875,0.1127847880125045,-0.15899059176445,-0.2118543088436126
2024-12-07 16:03:43.522417700,3.117417724609375,0.1213068962097168,-0.1035968884825706,-0.196940615773201
2024-12-07 16:03:43.532445200,3.127445068359375,0.1127847880125045,-0.0822916179895401,-0.1990711390972137
2024-12-07 16:03:43.542472700,3.13747265625,0.0882837250828743,-0.1185105815529823,-0.2086585164070129
2024-12-07 16:03:43.552500000,3.1475,0.0478037074208259,-0.2133190482854843,-0.2246374636888504
2024-12-07 16:03:43.562527500,3.157527587890625,-0.007590003311634,-0.3432812094688415,-0.2470080107450485
2024-12-07 16:03:43.572555000,3.167554931640625,-0.0661795064806938,-0.4775044322013855,-0.2800311744213104
2024-12-07 16:03:43.582582300,3.177582275390625,-0.1226384788751602,-0.5659213066101074,-0.3045322299003601
2024-12-07 16:03:43.592609800,3.18760986328125,-0.1716406047344207,-0.5978792309761047,-0.3119890987873077
2024-12-07 16:03:43.602637300,3.19763720703125,-0.2057290375232696,-0.5861613154411316,-0.3151848912239074
2024-12-07 16:03:43.612664800,3.207664794921875,-0.2142511457204818,-0.5169191956520081,-0.3247722387313843
2024-12-07 16:03:43.622692000,3.217692138671875,-0.1822932362556457,-0.4093275666236877,-0.3428817391395569
2024-12-07 16:03:43.632719600,3.2277197265625,-0.1194426864385604,-0.3187801539897918,-0.3556649088859558
2024-12-07 16:03:43.642747100,3.2377470703125,-0.0459394939243793,-0.2537990510463714,-0.3450122475624084
2024-12-07 16:03:43.652774400,3.2477744140625,0.0201068520545959,-0.1749695539474487,-0.3247722387313843
2024-12-07 16:03:43.662802000,3.257802001953125,0.0595216043293476,-0.0886831954121589,-0.3013364672660827
2024-12-07 16:03:43.672829400,3.267829345703125,0.0861531943082809,-0.0215715896338224,-0.2693785429000854
2024-12-07 16:03:43.682857000,3.27785693359375,0.0893489867448806,0.0316915921866893,-0.2491385340690612
2024-12-07 16:03:43.692884200,3.28788427734375,0.0584563426673412,0.0743021368980407,-0.2320943176746368
2024-12-07 16:03:43.702911700,3.297911865234375,0.0009321057004854,0.072171613574028,-0.2001364082098007
2024-12-07 16:03:43.712939300,3.307939208984375,-0.0576573945581913,0.0231694839894771,-0.1628521829843521
2024-12-07 16:03:43.722966500,3.317966552734375,-0.114116370677948,-0.052464235574007,-0.1330247968435287
2024-12-07 16:03:43.732994000,3.327994140625,-0.169510081410408,-0.1430116444826126,-0.1106542572379112
2024-12-07 16:03:43.743021600,3.338021484375,-0.2110553532838821,-0.2218411564826965,-0.0978710949420929
2024-12-07 16:03:43.753049000,3.348049072265625,-0.224903792142868,-0.228232741355896,-0.1117195263504982
2024-12-07 16:03:43.763076400,3.358076416015625,-0.1982721984386444,-0.1675127148628235,-0.1564605981111526
2024-12-07 16:03:43.773103900,3.368103759765625,-0.1258342713117599,-0.0620516054332256,-0.2225069403648376
2024-12-07 16:03:43.783131400,3.37813134765625,-0.0363521203398704,0.0838895142078399,-0.2864227592945099
2024-12-07 16:03:43.793158700,3.38815869140625,0.0328900143504142,0.2191779911518097,-0.3332943618297577
2024-12-07 16:03:43.803186200,3.398186279296875,0.0669784545898437,0.3012032806873321,-0.3567301630973816
2024-12-07 16:03:43.813213700,3.408213623046875,0.0616521313786506,0.316116988658905,-0.3599259555339813
2024-12-07 16:03:43.823241200,3.4182412109375,0.0254331696778535,0.2841590642929077,-0.3439469933509826
2024-12-07 16:03:43.833268500,3.4282685546875,-0.019307903945446,0.2277000993490219,-0.3141196072101593
2024-12-07 16:03:43.843296000,3.4382958984375,-0.0725710839033126,0.1637842804193496,-0.2832269668579101
2024-12-07 16:03:43.853323500,3.448323486328125,-0.1247690021991729,0.1222390010952949,-0.2693785429000854
2024-12-07 16:03:43.863351000,3.45835107421875,-0.168444812297821,0.0849547758698463,-0.2619217038154602
2024-12-07 16:03:43.873378300,3.46837841796875,-0.2057290375232696,0.046605285257101,-0.2544648647308349
2024-12-07 16:03:43.883405800,3.47840576171875,-0.2280995845794677,-0.0087884254753589,-0.2278332561254501
2024-12-07 16:03:43.893433300,3.488433349609375,-0.2387522161006927,-0.0844221413135528,-0.184157446026802
2024-12-07 16:03:43.903460600,3.498460693359375,-0.2334259003400802,-0.1621863842010498,-0.1319595277309417
2024-12-07 16:03:43.913488100,3.508488037109375,-0.2057290375232696,-0.2047969400882721,-0.0978710949420929
2024-12-07 16:03:43.923515600,3.518515625,-0.1514005959033966,-0.1973400861024856,-0.0946753025054931
2024-12-07 16:03:43.933543200,3.528543212890625,-0.0789626687765121,-0.1557948142290115,-0.1085237339138984
2024-12-07 16:03:43.943570400,3.5385703125,-0.0171773768961429,-0.0695084556937217,-0.1319595277309417
2024-12-07 16:03:43.953598000,3.548597900390625,0.0211721155792474,0.0391484387218952,-0.1617869138717651
2024-12-07 16:03:43.963625500,3.55862548828125,0.0478037074208259,0.1318263709545135,-0.1990711390972137
2024-12-07 16:03:43.973652700,3.56865283203125,0.0659131854772567,0.1691105961799621,-0.241681694984436
2024-12-07 16:03:43.983680300,3.57868017578125,0.0733700320124626,0.1573926955461502,-0.2789659202098846
2024-12-07 16:03:43.993707800,3.588707763671875,0.0605868697166442,0.1147821545600891,-0.3183806836605072
2024-12-07 16:03:44.003735300,3.5987353515625,0.0350205413997173,0.0498010739684104,-0.3482080399990082
2024-12-07 16:03:44.013762600,3.608762451171875,-0.0001331579551333,-0.010918952524662,-0.3492733240127563
2024-12-07 16:03:44.023790000,3.6187900390625,-0.021438430994749,-0.0620516054332256,-0.3215764760971069
2024-12-07 16:03:44.033817600,3.628817626953125,-0.0235689580440521,-0.0705737173557281,-0.2938795983791351
2024-12-07 16:03:44.043844900,3.638844970703125,-0.0161121133714914,-0.0556600242853164,-0.262986958026886
2024-12-07 16:03:44.053872400,3.648872314453125,-0.0065247397869825,-0.0375505425035953,-0.2193111479282379
2024-12-07 16:03:44.063900000,3.65889990234375,-0.007590003311634,0.0082557927817106,-0.184157446026802
2024-12-07 16:03:44.073927400,3.668927490234375,-0.0150468489155173,0.0657800287008285,-0.1511342823505401
2024-12-07 16:03:44.083954700,3.67895458984375,-0.0299605391919612,0.1115863695740699,-0.1223721578717231
2024-12-07 16:03:44.093982200,3.688982177734375,-0.0544616021215915,0.1595232337713241,-0.1031974181532859
2024-12-07 16:03:44.104009700,3.699009765625,-0.073636345565319,0.1712411344051361,-0.0755005627870559
2024-12-07 16:03:44.114037000,3.709037109375,-0.0874847769737243,0.182959035038948,-0.0435426495969295
2024-12-07 16:03:44.124064500,3.719064453125,-0.0960068851709365,0.2202432602643966,-0.0137152690440416
2024-12-07 16:03:44.134092000,3.729092041015625,-0.0917458310723304,0.2628538012504577,0.0043942127376794
2024-12-07 16:03:44.144119600,3.73911962890625,-0.0778974071145057,0.2958769798278808,0.005459476262331
2024-12-07 16:03:44.154146800,3.749146728515625,-0.0587226599454879,0.3320959508419037,-0.0115847419947385
2024-12-07 16:03:44.164174300,3.75917431640625,-0.0480700209736824,0.3683148920536041,-0.0531300231814384
2024-12-07 16:03:44.174201900,3.769201904296875,-0.0480700209736824,0.4183822870254516,-0.1106542572379112
2024-12-07 16:03:44.184229400,3.7792294921875,-0.0416784398257732,0.4364917874336242,-0.1575258672237396
2024-12-07 16:03:44.194256600,3.789256591796875,-0.0256994850933551,0.4215780794620514,-0.1830921918153762
2024-12-07 16:03:44.204284200,3.7992841796875,-0.0022636852227151,0.393881231546402,-0.1948100924491882
2024-12-07 16:03:44.214311700,3.809311767578125,0.0233026426285505,0.3853591084480285,-0.2043974548578262
2024-12-07 16:03:44.224339000,3.8193388671875,0.038216333836317,0.3853591084480285,-0.2097237855195999
2024-12-07 16:03:44.234366500,3.829366455078125,0.0371510684490203,0.3864243924617767,-0.2022669315338134
2024-12-07 16:03:44.244394000,3.83939404296875,0.0137152690440416,0.3896201848983764,-0.1777658760547638
2024-12-07 16:03:44.254421500,3.84942138671875,-0.0097205303609371,0.3491401672363281,-0.129829004406929
2024-12-07 16:03:44.264448800,3.85944873046875,-0.0438089668750762,0.30546435713768,-0.0925447791814804
2024-12-07 16:03:44.274476300,3.869476318359375,-0.0864195153117179,0.2777675092220306,-0.0712395086884498
2024-12-07 16:03:44.284503600,3.879503662109375,-0.1151816323399543,0.2607232630252838,-0.0456731803715229
2024-12-07 16:03:44.294531000,3.889531005859375,-0.1407479643821716,0.2564622163772583,-0.0201068520545959
2024-12-07 16:03:44.304558300,3.899558349609375,-0.1514005959033966,0.261788547039032,-0.0019973693415522
2024-12-07 16:03:44.314585900,3.9095859375,-0.1524658650159835,0.2756369709968567,0.0001331579551333
2024-12-07 16:03:44.324613000,3.919613037109375,-0.1428784877061844,0.2756369709968567,-0.0147805325686931
2024-12-07 16:03:44.334640600,3.929640625,-0.1332911103963852,0.2948117256164551,-0.0478037074208259
2024-12-07 16:03:44.344668000,3.93966796875,-0.1226384788751602,0.3193127810955047,-0.074435293674469
2024-12-07 16:03:44.354695400,3.9496953125,-0.114116370677948,0.3406180441379547,-0.0978710949420929
2024-12-07 16:03:44.364722700,3.95972265625,-0.1066595241427421,0.3427485823631286,-0.1095889955759048
2024-12-07 16:03:44.374750200,3.969750244140625,-0.0960068851709365,0.3363569974899292,-0.1095889955759048
2024-12-07 16:03:44.384777500,3.979777587890625,-0.0960068851709365,0.3395527899265289,-0.1063932031393051
2024-12-07 16:03:44.394805000,3.989804931640625,-0.1045289933681488,0.3523359596729278,-0.0978710949420929
2024-12-07 16:03:44.404832300,3.999832275390625,-0.1173121556639671,0.3683148920536041,-0.0850879326462745
2024-12-07 16:03:44.414859800,4.00985986328125,-0.1322258561849594,0.3544664680957794,-0.0648479238152504
2024-12-07 16:03:44.424887000,4.019886962890625,-0.1343563795089721,0.3022685647010803,-0.0339552797377109
2024-12-07 16:03:44.434914600,4.02991455078125,-0.1439437568187713,0.2788327634334564,-0.0233026426285505
2024-12-07 16:03:44.444941800,4.03994189453125,-0.1705753356218338,0.2852243483066559,-0.0254331696778535
2024-12-07 16:03:44.454969300,4.04996923828125,-0.1886848211288452,0.2767022252082824,-0.0190415866672992
2024-12-07 16:03:44.464996600,4.05999658203125,-0.1940111368894577,0.2777675092220306,-0.0169110596179962
2024-12-07 16:03:44.475024100,4.070024169921875,-0.1993374526500702,0.3075948655605316,-0.0254331696778535
2024-12-07 16:03:44.485051400,4.080051513671875,-0.2014679908752441,0.3597927987575531,-0.0392815954983234
2024-12-07 16:03:44.495079000,4.090078857421875,-0.2025332450866699,0.4109254479408264,-0.0573910772800445
2024-12-07 16:03:44.505106200,4.100106201171875,-0.1908153444528579,0.3949464857578277,-0.0563258156180381
2024-12-07 16:03:44.515133700,4.1101337890625,-0.1876195520162582,0.3789675533771515,-0.0584563426673412
2024-12-07 16:03:44.525161000,4.120160888671875,-0.1961416751146316,0.3779022693634033,-0.0584563426673412
2024-12-07 16:03:44.535188500,4.1301884765625,-0.2057290375232696,0.3683148920536041,-0.0478037074208259
2024-12-07 16:03:44.545215700,4.1402158203125,-0.2185122072696685,0.3597927987575531,-0.038216333836317
2024-12-07 16:03:44.555243300,4.1502431640625,-0.2195774614810943,0.318247526884079,-0.0169110596179962
2024-12-07 16:03:44.565270800,4.160270751953125,-0.223838523030281,0.3012032806873321,-0.0115847419947385
2024-12-07 16:03:44.575298000,4.170298095703125,-0.2291648387908935,0.3097254037857055,-0.0137152690440416
2024-12-07 16:03:44.585325600,4.18032568359375,-0.235556423664093,0.318247526884079,-0.0158457960933446
2024-12-07 16:03:44.595353000,4.19035302734375,-0.2430132627487182,0.3331612050533294,-0.0137152690440416
2024-12-07 16:03:44.605380600,4.200380615234375,-0.2536658942699432,0.3672496378421783,-0.010519478470087
2024-12-07 16:03:44.615407900,4.210407958984375,-0.2685796022415161,0.4332959949970245,-0.0147805325686931
2024-12-07 16:03:44.625435400,4.220435302734375,-0.2707101106643677,0.5004075765609741,-0.0126500055193901
2024-12-07 16:03:44.635463000,4.230462890625,-0.2568616867065429,0.5355613231658936,-0.0030626328662037
2024-12-07 16:03:44.645490200,4.240490234375,-0.2526006400585174,0.5653886795043945,0.0011984215816482
2024-12-07 16:03:44.655517700,4.250517578125,-0.2430132627487182,0.5760413408279419,0.0097205303609371
2024-12-07 16:03:44.665545200,4.260545166015625,-0.2227732539176941,0.5547360181808472,0.021438430994749
2024-12-07 16:03:44.675572700,4.27057275390625,-0.2004027217626571,0.5153213143348694,0.033156331628561
2024-12-07 16:03:44.685600000,4.28060009765625,-0.1759016513824463,0.5099949836730957,0.0363521203398704
2024-12-07 16:03:44.695627500,4.29062744140625,-0.1492700725793838,0.5579318404197693,0.019307903945446
2024-12-07 16:03:44.705655000,4.300655029296875,-0.1173121556639671,0.6250434517860413,0.0022636852227151
2024-12-07 16:03:44.715682300,4.310682373046875,-0.0864195153117179,0.6815024018287659,-0.0115847419947385
2024-12-07 16:03:44.725709800,4.320709716796875,-0.074701614677906,0.7091992497444153,-0.0201068520545959
2024-12-07 16:03:44.735737300,4.3307373046875,-0.0821584612131118,0.7070687413215637,-0.0233026426285505
2024-12-07 16:03:44.745764900,4.340764892578125,-0.0981374159455299,0.6719150543212891,-0.0211721155792474
2024-12-07 16:03:44.755792100,4.350792236328125,-0.1279647946357727,0.593085527420044,0.0022636852227151
2024-12-07 16:03:44.765819600,4.360819580078125,-0.1641837656497955,0.4876244366168976,0.0480700209736824
2024-12-07 16:03:44.775847200,4.37084716796875,-0.1993374526500702,0.4194475710391998,0.1098553165793418
2024-12-07 16:03:44.785874700,4.380874755859375,-0.2323606312274933,0.3619233071804046,0.1993374526500702
2024-12-07 16:03:44.795902000,4.39090185546875,-0.2526006400585174,0.2990727722644806,0.29201540350914
2024-12-07 16:03:44.805929500,4.400929443359375,-0.2515353858470917,0.2500706315040588,0.3697796463966369
2024-12-07 16:03:44.815957000,4.41095703125,-0.223838523030281,0.2287653684616089,0.4336954653263092
2024-12-07 16:03:44.825984300,4.420984375,-0.1844237744808197,0.1957421898841858,0.4901544451713562
2024-12-07 16:03:44.836011800,4.43101171875,-0.1439437568187713,0.1414137482643127,0.5380913019180298
2024-12-07 16:03:44.846039300,4.441039306640625,-0.101333200931549,0.0593884475529193,0.5892239809036255
2024-12-07 16:03:44.856066800,4.45106689453125,-0.0438089668750762,-0.0343547537922859,0.6435524225234985
2024-12-07 16:03:44.866094000,4.461093994140625,0.0094542149454355,-0.1185105815529823,0.7074682116508484
2024-12-07 16:03:44.876121600,4.47112158203125,0.0488689690828323,-0.1952095627784729,0.8065377473831177
2024-12-07 16:03:44.886149000,4.481149169921875,0.079761616885662,-0.2474074810743332,0.8992156982421875
2024-12-07 16:03:44.896176400,4.49117626953125,0.102132149040699,-0.2644517123699188,0.9546093940734864
2024-12-07 16:03:44.906204000,4.501203857421875,0.1276984810829162,-0.2772348523139953,0.9929588437080384
2024-12-07 16:03:44.916231400,4.5112314453125,0.1671132296323776,-0.2591253817081451,0.9908283352851868
2024-12-07 16:03:44.926259000,4.521259033203125,0.2203764170408249,-0.15899059176445,0.93117356300354
2024-12-07 16:03:44.936286200,4.5312861328125,0.2757701277732849,0.0487358123064041,0.8246471881866455
2024-12-07 16:03:44.946313700,4.541313720703125,0.3492733240127563,0.30546435713768,0.658466100692749
2024-12-07 16:03:44.956341200,4.55134130859375,0.4419512450695038,0.5067991614341736,0.4613923132419586
2024-12-07 16:03:44.966368500,4.561368408203125,0.5005407333374023,0.5739107728004456,0.2930806577205658
2024-12-07 16:03:44.976396000,4.57139599609375,0.527172327041626,0.4524707198143005,0.2195774614810943
2024-12-07 16:03:44.986423600,4.581423583984375,0.5356944799423218,0.2053295671939849,0.2206427305936813
2024-12-07 16:03:44.996451000,4.591451171875,0.4792354702949524,-0.0993358343839645,0.23662169277668
2024-12-07 16:03:45.006478300,4.601478271484375,0.3492733240127563,-0.414653867483139,0.2419480085372924
2024-12-07 16:03:45.016505900,4.611505859375,0.1809616535902023,-0.696948766708374,0.223838523030281
2024-12-07 16:03:45.026533400,4.621533447265625,0.0414121225476264,-0.7928224802017212,0.2025332450866699
2024-12-07 16:03:45.036560600,4.631560546875,-0.007590003311634,-0.6745781898498535,0.1599227041006088
2024-12-07 16:03:45.046588200,4.641588134765625,0.049934234470129,-0.414653867483139,0.085354246199131
2024-12-07 16:03:45.056615700,4.65161572265625,0.0861531943082809,-0.2143843024969101,0.0097205303609371
2024-12-07 16:03:45.066643200,4.661643310546875,0.0541952885687351,-0.1568600684404373,-0.0126500055193901
2024-12-07 16:03:45.076670500,4.67167041015625,0.0446079149842262,-0.121706373989582,0.0235689580440521
2024-12-07 16:03:45.086698000,4.681697998046875,0.0339552797377109,-0.1536642760038375,0.0512658134102821
2024-12-07 16:03:45.096725500,4.6917255859375,0.022237379103899,-0.237820103764534,0.0661795064806938
2024-12-07 16:03:45.106752800,4.701752685546875,0.0254331696778535,-0.328367531299591,0.0725710839033126
2024-12-07 16:03:45.116780300,4.7117802734375,0.0478037074208259,-0.3805654346942901,0.0597879216074943
2024-12-07 16:03:45.126807800,4.721807861328125,0.0978710949420929,-0.3784348964691162,0.0459394939243793
2024-12-07 16:03:45.136835300,4.73183544921875,0.1788311302661895,-0.3400854170322418,0.0512658134102821
2024-12-07 16:03:45.146862600,4.741862548828125,0.2640522122383117,-0.3123885691165924,0.0661795064806938
2024-12-07 16:03:45.156890000,4.75189013671875,0.3439469933509826,-0.3198454082012176,0.0800279304385185
2024-12-07 16:03:45.166917600,4.761917724609375,0.4078628122806549,-0.3571296334266662,0.0938763618469238
2024-12-07 16:03:45.176945200,4.771945068359375,0.449408084154129,-0.3518033027648926,0.1194426864385604
2024-12-07 16:03:45.186972400,4.781972412109375,0.4803007543087005,-0.2591253817081451,0.1471395343542099
2024-12-07 16:03:45.197000000,4.792,0.4888228476047516,-0.149403229355812,0.157792180776596
2024-12-07 16:03:45.207027500,4.80202734375,0.4760396778583526,-0.0865526720881462,0.1780321896076202
2024-12-07 16:03:45.217054700,4.8120546875,0.4483428299427032,-0.105727419257164,0.2142511457204818
2024-12-07 16:03:45.227082200,4.822082275390625,0.4153196513652801,-0.1387505829334259,0.2643185555934906
2024-12-07 16:03:45.237109800,4.83210986328125,0.4046670198440552,-0.1472726911306381,0.3271690905094147
2024-12-07 16:03:45.247137300,4.84213720703125,0.4270375669002533,-0.161121129989624,0.3921501636505127
2024-12-07 16:03:45.257164500,4.85216455078125,0.4579302072525024,-0.2175800949335098,0.4390217661857605
2024-12-07 16:03:45.267192000,4.862192138671875,0.495214432477951,-0.2942790687084198,0.4326302111148834
2024-12-07 16:03:45.277219600,4.872219482421875,0.5335639119148254,-0.3805654346942901,0.3836280703544616
2024-12-07 16:03:45.287246800,4.882246826171875,0.5378249883651733,-0.416784405708313,0.3175817131996155
2024-12-07 16:03:45.297274400,4.8922744140625,0.5122586488723755,-0.4093275666236877,0.2685796022415161
2024-12-07 16:03:45.307302000,4.902302001953125,0.4781702160835266,-0.4423507153987884,0.2579269707202911
2024-12-07 16:03:45.317329400,4.912329345703125,0.3982754349708557,-0.5169191956520081,0.2536658942699432
2024-12-07 16:03:45.327356700,4.922356689453125,0.3002711832523346,-0.5360939502716064,0.2014679908752441
2024-12-07 16:03:45.337384200,4.93238427734375,0.2544648647308349,-0.4093275666236877,0.1652490198612213
2024-12-07 16:03:45.347411500,4.942411376953125,0.2587259113788605,-0.2687127590179443,0.167379543185234
2024-12-07 16:03:45.357439000,4.95243896484375,0.2661827504634857,-0.2740390598773956,0.1556616425514221
2024-12-07 16:03:45.367466200,4.96246630859375,0.2715090811252594,-0.3017359375953674,0.1396826952695846
2024-12-07 16:03:45.377493800,4.97249365234375,0.2810964286327362,-0.2665822207927704,0.1268995255231857
2024-12-07 16:03:45.387521000,4.98252099609375,0.2949448823928833,-0.2292979955673217,0.0917458310723304
2024-12-07 16:03:45.397548500,4.992548583984375,0.2949448823928833,-0.2207758873701095,0.0406131781637668
2024-12-07 16:03:45.407575800,5.002575927734375,0.2683132886886596,-0.2665822207927704,-0.0073236874304711
2024-12-07 16:03:45.417603300,5.012603271484375,0.2075932472944259,-0.3890875577926636,-0.0563258156180381
2024-12-07 16:03:45.427630600,5.022630615234375,0.1596563905477523,-0.3976096510887146,-0.0648479238152504
2024-12-07 16:03:45.437658000,5.032658203125,0.1276984810829162,-0.406131774187088,-0.0584563426673412
2024-12-07 16:03:45.447685400,5.042685302734375,0.074435293674469,-0.4540686309337616,-0.0701742395758628
2024-12-07 16:03:45.457713000,5.052712890625,0.0030626328662037,-0.4593949317932129,-0.1159805804491043
2024-12-07 16:03:45.467740200,5.062740234375,-0.0597879216074943,-0.4700475931167602,-0.1660479754209518
2024-12-07 16:03:45.477767700,5.072767578125,-0.1109205782413482,-0.5030707716941833,-0.185222715139389
2024-12-07 16:03:45.487795000,5.082794921875,-0.157792180776596,-0.5254412889480591,-0.196940615773201
2024-12-07 16:03:45.497822500,5.092822509765625,-0.2004027217626571,-0.5573992133140564,-0.2203764170408249
2024-12-07 16:03:45.507849700,5.102849609375,-0.2312953621149063,-0.5158539414405823,-0.2533995807170868
2024-12-07 16:03:45.517877200,5.112877197265625,-0.2323606312274933,-0.4210454523563385,-0.2565953731536865
2024-12-07 16:03:45.527904500,5.122904541015625,-0.2387522161006927,-0.3933486044406891,-0.2491385340690612
2024-12-07 16:03:45.537932000,5.13293212890625,-0.2515353858470917,-0.3741738498210907,-0.2384859025478363
2024-12-07 16:03:45.547959300,5.142959228515625,-0.2664490640163421,-0.3869570195674896,-0.2161153554916381
2024-12-07 16:03:45.557986800,5.15298681640625,-0.2973417043685913,-0.414653867483139,-0.1713742911815643
2024-12-07 16:03:45.568014000,5.16301416015625,-0.3452785909175873,-0.4540686309337616,-0.0946753025054931
2024-12-07 16:03:45.578041600,5.17304150390625,-0.4006722867488861,-0.5137233734130859,-0.0158457960933446
2024-12-07 16:03:45.588068900,5.18306884765625,-0.4475438892841339,-0.5339633822441101,0.0384826473891735
2024-12-07 16:03:45.598096400,5.193096435546875,-0.4560659825801849,-0.5573992133140564,0.0928110927343368
2024-12-07 16:03:45.608124000,5.2031240234375,-0.3857586085796356,-0.6149234175682068,0.1503353267908096
2024-12-07 16:03:45.618151200,5.213151123046875,-0.29201540350914,-0.6277065873146057,0.2110553532838821
2024-12-07 16:03:45.628178700,5.2231787109375,-0.1812279820442199,-0.5265065431594849,0.2323606312274933
2024-12-07 16:03:45.638206000,5.2332060546875,-0.0533963404595851,-0.339020162820816,0.1556616425514221
2024-12-07 16:03:45.648233500,5.2432333984375,0.0680437162518501,-0.0950747802853584,-0.0318247526884079
2024-12-07 16:03:45.658260700,5.2532607421875,0.1564605981111526,0.1605884879827499,-0.2438122183084488
2024-12-07 16:03:45.668288300,5.263288330078125,0.2320943176746368,0.3043990731239319,-0.3854922652244568
2024-12-07 16:03:45.678315500,5.2733154296875,0.3034669756889343,0.3331612050533294,-0.4728438854217529
2024-12-07 16:03:45.688343000,5.283343017578125,0.3482080399990082,0.2830938100814819,-0.5655218362808228
2024-12-07 16:03:45.698370300,5.293370361328125,0.3684480488300323,0.1744369268417358,-0.6507429480552673
2024-12-07 16:03:45.708397800,5.303397705078125,0.363121747970581,0.005060002207756,-0.6922882199287415
2024-12-07 16:03:45.718425000,5.313425048828125,0.3130543529987335,-0.2090579867362976,-0.6677871346473694
2024-12-07 16:03:45.728452600,5.32345263671875,0.2129195630550384,-0.3560643792152405,-0.5793702602386475
2024-12-07 16:03:45.738479900,5.33347998046875,0.1085237339138984,-0.3805654346942901,-0.4813660085201263
2024-12-07 16:03:45.748507400,5.34350732421875,0.0509994961321353,-0.3123885691165924,-0.4270375669002533
2024-12-07 16:03:45.758534700,5.35353466796875,0.0009321057004854,-0.2388853728771209,-0.3993407189846039
2024-12-07 16:03:45.768562200,5.363562255859375,-0.073636345565319,-0.2591253817081451,-0.3652522563934326
2024-12-07 16:03:45.778589700,5.373589599609375,-0.1556616425514221,-0.3464770019054413,-0.3013364672660827
2024-12-07 16:03:45.788617000,5.383616943359375,-0.2398174703121185,-0.4572644233703613,-0.2342248409986496
2024-12-07 16:03:45.798644500,5.39364453125,-0.300537496805191,-0.5392897129058838,-0.1990711390972137
2024-12-07 16:03:45.808672000,5.403672119140625,-0.3229080438613891,-0.5286371111869812,-0.2118543088436126
2024-12-07 16:03:45.818699500,5.413699462890625,-0.3271690905094147,-0.4455465078353882,-0.260856419801712
2024-12-07 16:03:45.828726800,5.423726806640625,-0.3122554123401642,-0.3028011918067932,-0.3109238147735595
2024-12-07 16:03:45.838754300,5.43375439453125,-0.2653838098049164,-0.1685779690742492,-0.3354249000549316
2024-12-07 16:03:45.848781800,5.44378173828125,-0.2067943066358566,-0.0609863437712192,-0.3482080399990082
2024-12-07 16:03:45.858809000,5.45380908203125,-0.1641837656497955,0.0263652745634317,-0.3503385782241821
2024-12-07 16:03:45.868836600,5.463836669921875,-0.1439437568187713,0.0679105594754219,-0.3364901542663574
2024-12-07 16:03:45.878864100,5.473864013671875,-0.1215732097625732,0.0945421457290649,-0.298140674829483
2024-12-07 16:03:45.888891600,5.4838916015625,-0.0896153002977371,0.1222390010952949,-0.2480732649564743
2024-12-07 16:03:45.898919000,5.4939189453125,-0.0544616021215915,0.1328916400671005,-0.195875346660614
2024-12-07 16:03:45.908946400,5.503946533203125,-0.0246342215687036,0.1339569091796875,-0.1532648056745529
2024-12-07 16:03:45.918974000,5.513973876953125,-0.0150468489155173,0.137152686715126,-0.1266332119703292
2024-12-07 16:03:45.929001200,5.524001220703125,-0.0278300121426582,0.1392832249403,-0.119176372885704
2024-12-07 16:03:45.939028700,5.53402880859375,-0.060853186994791,0.1456748098134994,-0.1266332119703292
2024-12-07 16:03:45.949056300,5.54405615234375,-0.1098553165793418,0.1584579646587371,-0.140481635928154
2024-12-07 16:03:45.959083800,5.554083740234375,-0.1492700725793838,0.1520663797855377,-0.1426121741533279
2024-12-07 16:03:45.969111000,5.564111083984375,-0.1780321896076202,0.1467400640249252,-0.1511342823505401
2024-12-07 16:03:45.979138600,5.574138671875,-0.1908153444528579,0.1435442715883255,-0.1756353378295898
2024-12-07 16:03:45.989166000,5.584166015625,-0.1929458826780319,0.1467400640249252,-0.2001364082098007
2024-12-07 16:03:45.999193300,5.594193359375,-0.180162712931633,0.1456748098134994,-0.2150501012802124
2024-12-07 16:03:46.009220900,5.604220947265625,-0.1503353267908096,0.1414137482643127,-0.2182458937168121
2024-12-07 16:03:46.019248400,5.614248291015625,-0.1066595241427421,0.1414137482643127,-0.2182458937168121
2024-12-07 16:03:46.029276000,5.62427587890625,-0.0597879216074943,0.1691105961799621,-0.2214416861534118
2024-12-07 16:03:46.039303200,5.63430322265625,-0.0342215932905674,0.2287653684616089,-0.2374206334352493
2024-12-07 16:03:46.049330700,5.64433056640625,-0.0320910662412643,0.2905506491661072,-0.2533995807170868
2024-12-07 16:03:46.059358200,5.654358154296875,-0.0363521203398704,0.3299654126167297,-0.250203788280487
2024-12-07 16:03:46.069385700,5.6643857421875,-0.0587226599454879,0.3576622605323791,-0.2331595867872238
2024-12-07 16:03:46.079413000,5.6744130859375,-0.0917458310723304,0.3768370151519775,-0.2065279930830001
2024-12-07 16:03:46.089440500,5.6844404296875,-0.1098553165793418,0.3874896466732025,-0.1628521829843521
2024-12-07 16:03:46.099468000,5.694468017578125,-0.1268995255231857,0.43755704164505,-0.1223721578717231
2024-12-07 16:03:46.109495300,5.704495361328125,-0.1439437568187713,0.5036033987998962,-0.0968058332800865
2024-12-07 16:03:46.119522800,5.714522705078125,-0.1524658650159835,0.5494097471237183,-0.091479517519474
2024-12-07 16:03:46.129550300,5.72455029296875,-0.1609879732131958,0.5813676118850708,-0.1000016257166862
2024-12-07 16:03:46.139577900,5.734577880859375,-0.169510081410408,0.5824328660964966,-0.1127847880125045
2024-12-07 16:03:46.149605000,5.744605224609375,-0.179097443819046,0.5483444333076477,-0.1266332119703292
2024-12-07 16:03:46.159632600,5.754632568359375,-0.1822932362556457,0.4769718050956726,-0.1383511126041412
2024-12-07 16:03:46.169660200,5.76466015625,-0.1833585053682327,0.3981422781944275,-0.1553953289985656
2024-12-07 16:03:46.179687400,5.7746875,-0.1769669204950332,0.3257043659687042,-0.1628521829843521
2024-12-07 16:03:46.189715000,5.78471484375,-0.1663142889738083,0.2862896025180816,-0.1660479754209518
2024-12-07 16:03:46.199742500,5.794742431640625,-0.1471395343542099,0.2788327634334564,-0.1681784987449646
2024-12-07 16:03:46.209770000,5.80477001953125,-0.1247690021991729,0.2724411785602569,-0.1639174371957779
2024-12-07 16:03:46.219797200,5.81479736328125,-0.1045289933681488,0.2745717167854309,-0.1713742911815643
2024-12-07 16:03:46.229824800,5.82482470703125,-0.0832237228751182,0.3129211962223053,-0.196940615773201
2024-12-07 16:03:46.239852300,5.834852294921875,-0.0672447681427002,0.3480748832225799,-0.2107890397310257
2024-12-07 16:03:46.249879600,5.844879638671875,-0.0427437052130699,0.337422251701355,-0.1937448233366012
2024-12-07 16:03:46.259907000,5.854906982421875,-0.0161121133714914,0.2905506491661072,-0.1692437678575515
2024-12-07 16:03:46.269934300,5.864934326171875,0.0019973693415522,0.2447443157434463,-0.1521995365619659
2024-12-07 16:03:46.279961900,5.8749619140625,0.0126500055193901,0.2074600905179977,-0.1383511126041412
2024-12-07 16:03:46.289989000,5.884989013671875,0.0233026426285505,0.1776327192783355,-0.1319595277309417
2024-12-07 16:03:46.300016600,5.8950166015625,0.0264984332025051,0.1392832249403,-0.1245026886463165
2024-12-07 16:03:46.310044000,5.9050439453125,0.0169110596179962,0.1190432086586952,-0.119176372885704
2024-12-07 16:03:46.320071400,5.915071533203125,-0.0022636852227151,0.1030642539262771,-0.1095889955759048
2024-12-07 16:03:46.330098700,5.9250986328125,-0.0235689580440521,0.0870852991938591,-0.1010668873786926
2024-12-07 16:03:46.340126200,5.935126220703125,-0.0544616021215915,0.0860200375318527,-0.102132149040699
2024-12-07 16:03:46.350153500,5.945153564453125,-0.0832237228751182,0.071106344461441,-0.1053279414772987
2024-12-07 16:03:46.360181000,5.955180908203125,-0.1119858399033546,0.0370179116725921,-0.1010668873786926
2024-12-07 16:03:46.370208300,5.965208251953125,-0.1258342713117599,0.0114515842869877,-0.0936100408434867
2024-12-07 16:03:46.380235800,5.97523583984375,-0.1162468940019607,0.0199736934155225,-0.0968058332800865
2024-12-07 16:03:46.390263000,5.985262939453125,-0.0896153002977371,0.0636495053768158,-0.1053279414772987
2024-12-07 16:03:46.400290600,5.99529052734375,-0.0406131781637668,0.1424790173768997,-0.0968058332800865
2024-12-07 16:03:46.410317800,6.00531787109375,0.0126500055193901,0.2426137924194336,-0.0829574093222618
2024-12-07 16:03:46.420345300,6.015345458984375,0.049934234470129,0.3299654126167297,-0.0723047703504562
2024-12-07 16:03:46.430372600,6.02537255859375,0.0435426495969295,0.4087949097156524,-0.0755005627870559
2024-12-07 16:03:46.440400100,6.035400146484375,-0.0043942127376794,0.4993423223495483,-0.079761616885662
2024-12-07 16:03:46.450427400,6.045427490234375,-0.060853186994791,0.5589970946311951,-0.0712395086884498
2024-12-07 16:03:46.460455000,6.055454833984375,-0.1162468940019607,0.593085527420044,-0.0403468608856201
2024-12-07 16:03:46.470482200,6.065482177734375,-0.1759016513824463,0.6079992055892944,0.0086552668362855
2024-12-07 16:03:46.480509700,6.075509765625,-0.2121206223964691,0.6111950278282166,0.0715058222413063
2024-12-07 16:03:46.490537000,6.085536865234375,-0.2312953621149063,0.5824328660964966,0.1258342713117599
2024-12-07 16:03:46.500564500,6.095564453125,-0.2483395934104919,0.4812328517436981,0.1545963883399963
2024-12-07 16:03:46.510591700,6.105591796875,-0.2664490640163421,0.3534012138843536,0.1631184965372085
2024-12-07 16:03:46.520619300,6.115619384765625,-0.2834932804107666,0.2564622163772583,0.1599227041006088
2024-12-07 16:03:46.530646500,6.125646484375,-0.2962764501571655,0.2053295671939849,0.1439437568187713
2024-12-07 16:03:46.540674000,6.135674072265625,-0.2941459119319916,0.1797632426023483,0.1205079481005668
2024-12-07 16:03:46.550701300,6.145701416015625,-0.2696448564529419,0.1914811432361602,0.0885500386357307
2024-12-07 16:03:46.560728800,6.155728759765625,-0.2291648387908935,0.2553969621658325,0.0363521203398704
2024-12-07 16:03:46.570756400,6.16575634765625,-0.1876195520162582,0.3619233071804046,-0.0286289602518081
2024-12-07 16:03:46.580783600,6.17578369140625,-0.1631184965372085,0.483363389968872,-0.0882837250828743
2024-12-07 16:03:46.590811100,6.18581103515625,-0.1631184965372085,0.601607620716095,-0.1255679577589035
2024-12-07 16:03:46.600838400,6.19583837890625,-0.180162712931633,0.6719150543212891,-0.1394163817167282
2024-12-07 16:03:46.610866000,6.205865966796875,-0.1865542978048324,0.6293044686317444,-0.1159805804491043
2024-12-07 16:03:46.620893200,6.21589306640625,-0.1769669204950332,0.5398223400115967,-0.074435293674469
2024-12-07 16:03:46.630920700,6.225920654296875,-0.1588574349880218,0.4663191735744476,-0.0392815954983234
2024-12-07 16:03:46.640948000,6.235947998046875,-0.1343563795089721,0.393881231546402,-0.0169110596179962
2024-12-07 16:03:46.650975500,6.2459755859375,-0.1087900474667549,0.3097254037857055,0.0033289489801973
2024-12-07 16:03:46.661002800,6.256002685546875,-0.0992026776075363,0.2862896025180816,0.0299605391919612
2024-12-07 16:03:46.671030300,6.2660302734375,-0.0821584612131118,0.2639190554618835,0.102398470044136
2024-12-07 16:03:46.681057500,6.2760576171875,-0.0661795064806938,0.2319611608982086,0.1769669204950332
2024-12-07 16:03:46.691085000,6.2860849609375,-0.0459394939243793,0.2095906287431717,0.2323606312274933
2024-12-07 16:03:46.701112300,6.2961123046875,-0.0171773768961429,0.2692453861236572,0.2579269707202911
2024-12-07 16:03:46.711139800,6.306139892578125,0.0083889514207839,0.3779022693634033,0.2749711871147156
2024-12-07 16:03:46.721167000,6.3161669921875,0.0233026426285505,0.4460791349411011,0.3218427896499634
2024-12-07 16:03:46.731194600,6.326194580078125,0.0211721155792474,0.4546012580394745,0.3921501636505127
2024-12-07 16:03:46.741222000,6.336221923828125,0.0073236874304711,0.4183822870254516,0.4720449447631836
2024-12-07 16:03:46.751249400,6.34624951171875,-0.0139815853908658,0.3534012138843536,0.545548141002655
2024-12-07 16:03:46.761276700,6.356276611328125,-0.0374173857271671,0.2660495936870575,0.6009418368339539
2024-12-07 16:03:46.771304200,6.36630419921875,-0.0565921291708946,0.1318263709545135,0.6328997611999512
2024-12-07 16:03:46.781331500,6.37633154296875,-0.0597879216074943,-0.0695084556937217,0.6446176767349243
2024-12-07 16:03:46.791359000,6.38635888671875,-0.0427437052130699,-0.3059969842433929,0.6467481851577759
2024-12-07 16:03:46.801386200,6.39638623046875,-0.0022636852227151,-0.5392897129058838,0.6297039985656738
2024-12-07 16:03:46.811413800,6.406413818359375,0.0467384420335292,-0.7736477255821228,0.6147902607917786
2024-12-07 16:03:46.821441000,6.41644091796875,0.0850879326462745,-1.0048099756240845,0.6243776679039001
2024-12-07 16:03:46.831468500,6.426468505859375,0.1063932031393051,-1.1496857404708862,0.6371608376502991
2024-12-07 16:03:46.841495800,6.436495849609375,0.119176372885704,-1.115597367286682,0.5977460741996765
2024-12-07 16:03:46.851523300,6.4465234375,0.1575258672237396,-0.8844351172447205,0.5231776237487793
2024-12-07 16:03:46.861550600,6.456550537109375,0.2246374636888504,-0.5243760347366333,0.4496744275093078
2024-12-07 16:03:46.871578000,6.466578125,0.2960101366043091,-0.2016011476516723,0.4091944098472595
2024-12-07 16:03:46.881605600,6.476605712890625,0.3024017214775085,0.0316915921866893,0.421977549791336
2024-12-07 16:03:46.891633200,6.486633056640625,0.2715090811252594,0.238352745771408,0.4059986174106598
2024-12-07 16:03:46.901660400,6.496660400390625,0.2597911655902862,0.3693801760673523,0.3207775056362152
2024-12-07 16:03:46.911688000,6.50668798828125,0.2789659202098846,0.3597927987575531,0.2099900990724563
2024-12-07 16:03:46.921715500,6.516715576171875,0.2960101366043091,0.2756369709968567,0.1119858399033546
2024-12-07 16:03:46.931742700,6.52674267578125,0.2992059290409088,0.1872200816869735,0.0288952756673097
2024-12-07 16:03:46.941770200,6.536770263671875,0.3055975139141083,0.0945421457290649,-0.0307594873011112
2024-12-07 16:03:46.951797800,6.5467978515625,0.3034669756889343,0.0210389569401741,-0.0595216043293476
2024-12-07 16:03:46.961825300,6.5568251953125,0.2800311744213104,-0.0183757971972227,-0.0488689690828323
2024-12-07 16:03:46.971852500,6.5668525390625,0.2597911655902862,-0.0471379160881042,-0.0211721155792474
2024-12-07 16:03:46.981880000,6.576880126953125,0.2438122183084488,-0.0535294972360134,-0.0009321057004854
2024-12-07 16:03:46.991907600,6.586907470703125,0.2225069403648376,-0.052464235574007,0.0022636852227151
2024-12-07 16:03:47.001935000,6.59693505859375,0.1980058848857879,-0.0865526720881462,0.0086552668362855
2024-12-07 16:03:47.011962400,6.60696240234375,0.1798963993787765,-0.1664474457502365,0.0235689580440521
2024-12-07 16:03:47.021990000,6.616989990234375,0.1713742911815643,-0.2889527678489685,0.0406131781637668
2024-12-07 16:03:47.032017400,6.627017333984375,0.1788311302661895,-0.4157191216945648,0.0640489757061004
2024-12-07 16:03:47.042044700,6.637044677734375,0.195875346660614,-0.5211802124977112,0.0949416235089302
2024-12-07 16:03:47.052072200,6.647072265625,0.2278332561254501,-0.5904223918914795,0.1418132185935974
2024-12-07 16:03:47.062099700,6.657099609375,0.2672480046749115,-0.6127929091453552,0.1854890286922454
2024-12-07 16:03:47.072127200,6.667127197265625,0.308793306350708,-0.5978792309761047,0.223838523030281
2024-12-07 16:03:47.082154500,6.677154541015625,0.3428817391395569,-0.5499423742294312,0.2504701018333435
2024-12-07 16:03:47.092182000,6.68718212890625,0.3780354261398315,-0.4625907242298126,0.2675143182277679
2024-12-07 16:03:47.102209500,6.69720947265625,0.4036017656326294,-0.3837612271308899,0.2845585644245147
2024-12-07 16:03:47.112236800,6.70723681640625,0.4046670198440552,-0.3699128031730652,0.2930806577205658
2024-12-07 16:03:47.122264300,6.717264404296875,0.3972101807594299,-0.3795001804828644,0.2792322337627411
2024-12-07 16:03:47.132291800,6.727291748046875,0.3897533416748047,-0.4018706977367401,0.2536658942699432
2024-12-07 16:03:47.142319400,6.7373193359375,0.3652522563934326,-0.4444812536239624,0.2217079997062683
2024-12-07 16:03:47.152346600,6.7473466796875,0.3588607013225555,-0.4636560082435608,0.1812279820442199
2024-12-07 16:03:47.162374100,6.7573740234375,0.4057323038578033,-0.4071970283985138,0.1439437568187713
2024-12-07 16:03:47.172401700,6.767401611328125,0.4824312627315521,-0.2793653905391693,0.1322258561849594
2024-12-07 16:03:47.182429000,6.777428955078125,0.5665870904922485,-0.1984053552150726,0.1386174261569976
2024-12-07 16:03:47.192456400,6.78745654296875,0.6358292102813721,-0.1802958697080612,0.1567269116640091
2024-12-07 16:03:47.202484000,6.79748388671875,0.6326334476470947,-0.2793653905391693,0.1386174261569976
2024-12-07 16:03:47.212511500,6.807511474609375,0.594283938407898,-0.500940203666687,0.0874847769737243
2024-12-07 16:03:47.222538800,6.817538818359375,0.5356944799423218,-0.6543381810188293,0.0832237228751182
2024-12-07 16:03:47.232566300,6.827566162109375,0.4557996690273285,-0.6468813419342041,0.1226384788751602
2024-12-07 16:03:47.242593500,6.837593505859375,0.3545996248722076,-0.6309024095535278,0.1343563795089721
2024-12-07 16:03:47.252621000,6.84762109375,0.2565953731536865,-0.6255760788917542,0.1332911103963852
2024-12-07 16:03:47.262648300,6.8576484375,0.1926795542240142,-0.659664511680603,0.1375521719455719
2024-12-07 16:03:47.272675800,6.86767578125,0.1553953289985656,-0.6500771641731262,0.1535311192274093
2024-12-07 16:03:47.282703000,6.877703125,0.128763735294342,-0.7012097835540771,0.1545963883399963
2024-12-07 16:03:47.292730600,6.887730712890625,0.1202416345477104,-0.7970834970474243,0.1514005959033966
2024-12-07 16:03:47.302758000,6.8977578125,0.107458472251892,-0.8620645999908447,0.1599227041006088
2024-12-07 16:03:47.312785400,6.907785400390625,0.0765658244490623,-0.911066710948944,0.1727058738470077
2024-12-07 16:03:47.322812700,6.917812744140625,0.0605868697166442,-0.9270457029342652,0.1599227041006088
2024-12-07 16:03:47.332840200,6.927840087890625,0.0616521313786506,-0.8769782781600952,0.1066595241427421
2024-12-07 16:03:47.342867500,6.937867431640625,0.0541952885687351,-0.7970834970474243,0.0278300121426582
2024-12-07 16:03:47.352895000,6.94789501953125,0.0392815954983234,-0.7395592927932739,-0.0509994961321353
2024-12-07 16:03:47.362922500,6.957922607421875,0.0233026426285505,-0.7299718856811523,-0.1170458421111106
2024-12-07 16:03:47.372949800,6.96794970703125,0.0062584239058196,-0.7608645558357239,-0.184157446026802
2024-12-07 16:03:47.382977300,6.977977294921875,-0.0022636852227151,-0.7651256322860718,-0.2533995807170868
2024-12-07 16:03:47.393004500,6.988004638671875,0.0030626328662037,-0.7555382251739502,-0.3055975139141083
2024-12-07 16:03:47.403032000,6.998031982421875,0.024367906153202,-0.7459508776664734,-0.2960101366043091
2024-12-07 16:03:47.413059300,7.008059326171875,0.0531300231814384,-0.7597993016242981,-0.2043974548578262
2024-12-07 16:03:47.423086800,7.0180869140625,0.0818921402096748,-0.772582471370697,-0.0446079149842262
2024-12-07 16:03:47.433114000,7.028114013671875,0.1031974181532859,-0.6788392663002014,0.1450090110301971
2024-12-07 16:03:47.443141600,7.0381416015625,0.140481635928154,-0.4498075842857361,0.3420827984809875
2024-12-07 16:03:47.453169000,7.0481689453125,0.2150501012802124,-0.1419463753700256,0.4624575674533844
2024-12-07 16:03:47.463196400,7.058196533203125,0.2906838059425354,0.1723063886165619,0.4443480968475342
2024-12-07 16:03:47.473223700,7.0682236328125,0.3162501454353332,0.4631233811378479,0.2973417043685913
2024-12-07 16:03:47.483251200,7.078251220703125,0.2640522122383117,0.6293044686317444,0.1279647946357727
2024-12-07 16:03:47.493278500,7.088278564453125,0.1628521829843521,0.5366265773773193,-0.0115847419947385
2024-12-07 16:03:47.503306000,7.098305908203125,0.063782662153244,0.3150517344474792,-0.1532648056745529
2024-12-07 16:03:47.513333200,7.108333251953125,-0.007590003311634,0.1350221633911132,-0.3343596160411834
2024-12-07 16:03:47.523360800,7.11836083984375,-0.1194426864385604,0.0785631909966468,-0.5314334034919739
2024-12-07 16:03:47.533388000,7.128387939453125,-0.2451438009738922,0.0178431663662195,-0.6475471258163452
2024-12-07 16:03:47.543415600,7.13841552734375,-0.2994722425937652,0.0519316010177135,-0.6230461001396179
2024-12-07 16:03:47.553442800,7.14844287109375,-0.2419480085372924,0.2681801319122314,-0.4941491782665252
2024-12-07 16:03:47.563470300,7.15847021484375,-0.157792180776596,0.5142560005187988,-0.3769701719284057
2024-12-07 16:03:47.573497600,7.16849755859375,-0.1119858399033546,0.638891875743866,-0.3407512009143829
2024-12-07 16:03:47.583525000,7.178525146484375,-0.085354246199131,0.6878939867019653,-0.3609912097454071
2024-12-07 16:03:47.593552400,7.188552490234375,-0.0810931921005249,0.6165213584899902,-0.4206459820270538
2024-12-07 16:03:47.603580000,7.198579833984375,-0.1322258561849594,0.4301002025604248,-0.4557996690273285
2024-12-07 16:03:47.613607200,7.208607177734375,-0.2185122072696685,0.2575274705886841,-0.4259723126888275
2024-12-07 16:03:47.623634700,7.218634765625,-0.3175817131996155,0.1051947847008705,-0.3482080399990082
2024-12-07 16:03:47.633662000,7.228661865234375,-0.3804322779178619,-0.052464235574007,-0.2555301189422607
2024-12-07 16:03:47.643689500,7.238689453125,-0.3825628161430359,-0.1643169224262237,-0.196940615773201
2024-12-07 16:03:47.653716700,7.248716796875,-0.3420827984809875,-0.2186453640460968,-0.2075932472944259
2024-12-07 16:03:47.663744300,7.258744140625,-0.2685796022415161,-0.1845569312572479,-0.2864227592945099
2024-12-07 16:03:47.673771500,7.268771484375,-0.169510081410408,-0.0673779249191284,-0.3865575492382049
2024-12-07 16:03:47.683799000,7.278799072265625,-0.0778974071145057,0.0838895142078399,-0.4579302072525024
2024-12-07 16:03:47.693826600,7.28882666015625,-0.019307903945446,0.1872200816869735,-0.4781702160835266
2024-12-07 16:03:47.703853800,7.298853759765625,0.0307594873011112,0.2213085144758224,-0.4483428299427032
2024-12-07 16:03:47.713881300,7.30888134765625,0.079761616885662,0.270310640335083,-0.395079642534256
2024-12-07 16:03:47.723908600,7.31890869140625,0.1010668873786926,0.3715106844902038,-0.3514038324356079
2024-12-07 16:03:47.733936000,7.32893603515625,0.0818921402096748,0.5004075765609741,-0.3205111920833587
2024-12-07 16:03:47.743963400,7.33896337890625,0.0403468608856201,0.6069339513778687,-0.2928143441677093
2024-12-07 16:03:47.753991000,7.348990966796875,-0.0395479127764701,0.6506097912788391,-0.2704437971115112
2024-12-07 16:03:47.764018200,7.35901806640625,-0.1556616425514221,0.6314350366592407,-0.239551156759262
2024-12-07 16:03:47.774045700,7.369045654296875,-0.2824280261993408,0.5834981799125671,-0.2043974548578262
2024-12-07 16:03:47.784073000,7.379072998046875,-0.3974764943122864,0.5142560005187988,-0.1788311302661895
2024-12-07 16:03:47.794100500,7.3891005859375,-0.4731102287769317,0.4130559861660003,-0.1767006069421768
2024-12-07 16:03:47.804127700,7.399127685546875,-0.5071986317634583,0.3065296113491058,-0.1937448233366012
2024-12-07 16:03:47.814155300,7.4091552734375,-0.5114597082138062,0.2234390527009964,-0.2033322006464004
2024-12-07 16:03:47.824182500,7.4191826171875,-0.4795017838478088,0.1701758652925491,-0.2033322006464004
2024-12-07 16:03:47.834210000,7.4292099609375,-0.4198470413684845,0.1446095407009124,-0.2033322006464004
2024-12-07 16:03:47.844237300,7.4392373046875,-0.3410175144672394,0.148870587348938,-0.2054627239704132
2024-12-07 16:03:47.854264800,7.449264892578125,-0.2579269707202911,0.1808284968137741,-0.2086585164070129
2024-12-07 16:03:47.864292000,7.4592919921875,-0.1897500902414322,0.2553969621658325,-0.2118543088436126
2024-12-07 16:03:47.874319600,7.469319580078125,-0.1482048034667968,0.3427485823631286,-0.2171806246042251
2024-12-07 16:03:47.884347000,7.479346923828125,-0.1418132185935974,0.3970770239830017,-0.2267680019140243
2024-12-07 16:03:47.894374400,7.48937451171875,-0.1503353267908096,0.3779022693634033,-0.2427469491958618
2024-12-07 16:03:47.904401700,7.499401611328125,-0.1769669204950332,0.3320959508419037,-0.2693785429000854
2024-12-07 16:03:47.914429200,7.50942919921875,-0.2121206223964691,0.3001380264759063,-0.2970753908157348
2024-12-07 16:03:47.924456400,7.51945654296875,-0.234491154551506,0.3033338189125061,-0.3237069845199585
2024-12-07 16:03:47.934484000,7.52948388671875,-0.2494048476219177,0.3565970063209533,-0.3567301630973816
2024-12-07 16:03:47.944511200,7.53951123046875,-0.2579269707202911,0.4364917874336242,-0.3854922652244568
2024-12-07 16:03:47.954538800,7.549538818359375,-0.2611227631568908,0.4918854832649231,-0.395079642534256
2024-12-07 16:03:47.964566000,7.55956591796875,-0.2557964324951172,0.4854938983917236,-0.3886880576610565
2024-12-07 16:03:47.974593500,7.569593505859375,-0.2557964324951172,0.4599275887012481,-0.3876228034496307
2024-12-07 16:03:47.984620800,7.579620849609375,-0.2675143182277679,0.4364917874336242,-0.3929491341114044
2024-12-07 16:03:47.994648300,7.5896484375,-0.2845585644245147,0.4098601937294006,-0.395079642534256
2024-12-07 16:03:48.004675600,7.599675537109375,-0.2994722425937652,0.3853591084480285,-0.3993407189846039
2024-12-07 16:03:48.014703000,7.609703125,-0.3186469972133636,0.3779022693634033,-0.4036017656326294
2024-12-07 16:03:48.024730600,7.619730712890625,-0.346343845129013,0.3864243924617767,-0.4099933505058288
2024-12-07 16:03:48.034758000,7.6297578125,-0.3751059472560882,0.3928159773349762,-0.4099933505058288
2024-12-07 16:03:48.044785400,7.639785400390625,-0.3889544010162353,0.4194475710391998,-0.3940143883228302
2024-12-07 16:03:48.054812700,7.649812744140625,-0.3942807018756866,0.4439486265182495,-0.3609912097454071
2024-12-07 16:03:48.064840200,7.659840087890625,-0.3910849094390869,0.4748412668704986,-0.3226417303085327
2024-12-07 16:03:48.074867500,7.669867431640625,-0.3868238627910614,0.4908202290534973,-0.2832269668579101
2024-12-07 16:03:48.084895000,7.67989501953125,-0.3889544010162353,0.5185170769691467,-0.241681694984436
2024-12-07 16:03:48.094922200,7.689922119140625,-0.3942807018756866,0.5515402555465698,-0.1809616535902023
2024-12-07 16:03:48.104949800,7.69994970703125,-0.3900196552276611,0.5696497559547424,-0.1031974181532859
2024-12-07 16:03:48.114977000,7.70997705078125,-0.3878891170024872,0.5877591967582703,-0.038216333836317
2024-12-07 16:03:48.125004500,7.720004638671875,-0.3942807018756866,0.6101297736167908,-0.0158457960933446
2024-12-07 16:03:48.135031800,7.73003173828125,-0.3932154476642608,0.6761760711669922,-0.0328900143504142
2024-12-07 16:03:48.145059300,7.740059326171875,-0.3996070325374603,0.7667235136032104,-0.0733700320124626
2024-12-07 16:03:48.155086600,7.750086669921875,-0.3846933245658874,0.8679235577583313,-0.0701742395758628
2024-12-07 16:03:48.165114000,7.760114013671875,-0.3410175144672394,0.9041424989700316,-0.0062584239058196
2024-12-07 16:03:48.175141400,7.770141357421875,-0.2781669795513153,0.8114646077156067,0.0533963404595851
2024-12-07 16:03:48.185169000,7.7801689453125,-0.1918806135654449,0.6548708081245422,0.0640489757061004
2024-12-07 16:03:48.195196200,7.790196044921875,-0.1098553165793418,0.5291697382926941,0.0171773768961429
2024-12-07 16:03:48.205223700,7.8002236328125,-0.0416784398257732,0.4599275887012481,-0.022237379103899
2024-12-07 16:03:48.215251000,7.8102509765625,0.0254331696778535,0.3970770239830017,-0.0201068520545959
2024-12-07 16:03:48.225278500,7.820278564453125,0.0829574093222618,0.3001380264759063,0.021438430994749
2024-12-07 16:03:48.235305700,7.8303056640625,0.1223721578717231,0.2319611608982086,0.0800279304385185
2024-12-07 16:03:48.245333200,7.840333251953125,0.1436774283647537,0.2213085144758224,0.1396826952695846
2024-12-07 16:03:48.255360500,7.850360595703125,0.1692437678575515,0.2031990438699722,0.2067943066358566
2024-12-07 16:03:48.265388000,7.860387939453125,0.2001364082098007,0.2159821987152099,0.2781669795513153
2024-12-07 16:03:48.275415300,7.870415283203125,0.2129195630550384,0.2330264151096344,0.3612575232982635
2024-12-07 16:03:48.285442800,7.88044287109375,0.1990711390972137,0.204264298081398,0.478436529636383
2024-12-07 16:03:48.295470000,7.890469970703125,0.1596563905477523,0.1691105961799621,0.6094639897346497
2024-12-07 16:03:48.305497600,7.90049755859375,0.1000016257166862,0.181893765926361,0.7372955679893494
2024-12-07 16:03:48.315524900,7.91052490234375,0.0456731803715229,0.238352745771408,0.8480830192565918
2024-12-07 16:03:48.325552400,7.920552490234375,0.0201068520545959,0.316116988658905,0.9610009789466858
2024-12-07 16:03:48.335580000,7.930579833984375,0.0179763231426477,0.4109254479408264,1.0717884302139282
2024-12-07 16:03:48.345607200,7.940607177734375,0.0467384420335292,0.525973916053772,1.1218557357788086
2024-12-07 16:03:48.355634700,7.950634765625,0.1117195263504982,0.6303697824478149,1.0643315315246582
2024-12-07 16:03:48.365662200,7.960662109375,0.2246374636888504,0.6697844862937927,0.9322388172149658
2024-12-07 16:03:48.375689700,7.970689697265625,0.3918838500976562,0.5483444333076477,0.7777756452560425
2024-12-07 16:03:48.385717000,7.980717041015625,0.5719134211540222,0.3310306668281555,0.6265081763267517
2024-12-07 16:03:48.395744500,7.99074462890625,0.7061366438865662,0.1616537570953369,0.491219699382782
2024-12-07 16:03:48.405772000,8.00077197265625,0.7732482552528381,0.0764326676726341,0.4113249182701111
2024-12-07 16:03:48.415799300,8.01079931640625,0.7860314249992371,0.0498010739684104,0.3356912136077881
2024-12-07 16:03:48.425826800,8.020826904296875,0.7998798489570618,-0.024767380207777,0.2376869469881057
2024-12-07 16:03:48.435854300,8.030854248046875,0.8446208834648132,-0.282561182975769,0.2025332450866699
2024-12-07 16:03:48.445881900,8.0408818359375,0.8946883082389832,-0.5563339591026306,0.2621880173683166
2024-12-07 16:03:48.455909000,8.0509091796875,0.8893619775772095,-0.7086666226387024,0.3474090993404388
2024-12-07 16:03:48.465936600,8.0609365234375,0.8179892897605896,-0.8386288285255432,0.4081291258335113
2024-12-07 16:03:48.475964200,8.070964111328125,0.7327682375907898,-0.9483509659767152,0.4304996728897095
2024-12-07 16:03:48.485991400,8.080991455078125,0.6848313808441162,-1.0218541622161863,0.4294344186782837
2024-12-07 16:03:48.496019000,8.09101904296875,0.6976145505905151,-0.9632646441459656,0.4326302111148834
2024-12-07 16:03:48.506046500,8.10104638671875,0.7242461442947388,-0.7629950642585754,0.4486091434955597
2024-12-07 16:03:48.516074000,8.111073974609376,0.6965492367744446,-0.5286371111869812,0.4507396817207336
2024-12-07 16:03:48.526101200,8.121101318359376,0.6390250325202942,-0.339020162820816,0.4443480968475342
2024-12-07 16:03:48.536128800,8.131128662109376,0.5825660824775696,-0.2356895804405212,0.4166512489318847
2024-12-07 16:03:48.546156300,8.14115625,0.5261070728302002,-0.1856221854686737,0.3516701459884643
2024-12-07 16:03:48.556183600,8.15118359375,0.4728438854217529,-0.1749695539474487,0.2739059031009674
2024-12-07 16:03:48.566211000,8.161211181640626,0.4238417744636535,-0.2037316709756851,0.2025332450866699
2024-12-07 16:03:48.576238600,8.171238525390624,0.3780354261398315,-0.2740390598773956,0.1386174261569976
2024-12-07 16:03:48.586266000,8.18126611328125,0.3609912097454071,-0.3688475489616394,0.0885500386357307
2024-12-07 16:03:48.596293400,8.19129345703125,0.3364901542663574,-0.4892223179340362,0.0597879216074943
2024-12-07 16:03:48.606321000,8.20132080078125,0.3162501454353332,-0.6042708158493042,0.0533963404595851
2024-12-07 16:03:48.616348400,8.211348388671874,0.2693785429000854,-0.7022750377655029,0.0533963404595851
2024-12-07 16:03:48.626375700,8.221375732421874,0.1926795542240142,-0.7874961495399475,0.0512658134102821
2024-12-07 16:03:48.636403200,8.2314033203125,0.1042626798152923,-0.8439550995826721,0.0374173857271671
2024-12-07 16:03:48.646430500,8.241430419921874,0.0019973693415522,-0.860999345779419,0.0086552668362855
2024-12-07 16:03:48.656458000,8.2514580078125,-0.1098553165793418,-0.839694082736969,-0.022237379103899
2024-12-07 16:03:48.666485200,8.2614853515625,-0.2057290375232696,-0.8386288285255432,-0.0488689690828323
2024-12-07 16:03:48.676512800,8.2715126953125,-0.2760364413261413,-0.9004141092300415,-0.0712395086884498
2024-12-07 16:03:48.686540000,8.2815400390625,-0.3292996287345886,-0.982439398765564,-0.0978710949420929
2024-12-07 16:03:48.696567600,8.291567626953125,-0.3772364854812622,-1.0431593656539917,-0.1511342823505401
2024-12-07 16:03:48.706594800,8.3015947265625,-0.4198470413684845,-1.061268925666809,-0.2161153554916381
2024-12-07 16:03:48.716622300,8.311622314453125,-0.4528702199459076,-1.0378330945968628,-0.2779006659984588
2024-12-07 16:03:48.726649600,8.321649658203125,-0.469914436340332,-1.0005488395690918,-0.3322291076183319
2024-12-07 16:03:48.736677000,8.331677001953125,-0.4965460002422333,-1.019723653793335,-0.3727091252803802
2024-12-07 16:03:48.746704400,8.341704345703125,-0.499741792678833,-1.0804436206817627,-0.4121238589286804
2024-12-07 16:03:48.756732000,8.35173193359375,-0.4688491523265838,-1.145424723625183,-0.4036017656326294
2024-12-07 16:03:48.766759200,8.36175927734375,-0.359127014875412,-1.1518163681030271,-0.3002711832523346
2024-12-07 16:03:48.776786700,8.37178662109375,-0.1897500902414322,-0.990961492061615,-0.0861531943082809
2024-12-07 16:03:48.786814000,8.38181396484375,0.0488689690828323,-0.7459508776664734,0.1620532274246215
2024-12-07 16:03:48.796841500,8.391841552734375,0.2533995807170868,-0.4934833943843841,0.3559312224388122
2024-12-07 16:03:48.806868700,8.40186865234375,0.3780354261398315,-0.2740390598773956,0.434760719537735
2024-12-07 16:03:48.816896300,8.411896240234375,0.4941491782665252,-0.2218411564826965,0.4379565119743347
2024-12-07 16:03:48.826923500,8.421923583984375,0.631568193435669,-0.237820103764534,0.4294344186782837
2024-12-07 16:03:48.836951000,8.431950927734375,0.7636608481407166,-0.1366200596094131,0.4283691346645355
2024-12-07 16:03:48.846978300,8.441978271484375,0.8297072052955627,0.0540621280670166,0.40280282497406
2024-12-07 16:03:48.857005800,8.452005859375,0.807336688041687,0.1648495495319366,0.3761712312698364
2024-12-07 16:03:48.867033000,8.462033203125,0.715723991394043,0.0966726765036583,0.3942807018756866
2024-12-07 16:03:48.877060600,8.472060546875,0.610262930393219,-0.0641821324825286,0.4986765384674072
2024-12-07 16:03:48.887087900,8.482087890625,0.5697829127311707,-0.0098536890000104,0.5775060653686523
2024-12-07 16:03:48.897115400,8.492115478515625,0.572978675365448,0.1573926955461502,0.4645881056785583
2024-12-07 16:03:48.907143000,8.502142822265625,0.5197154879570007,0.2149169445037841,0.1482048034667968
2024-12-07 16:03:48.917170200,8.512170166015625,0.3482080399990082,0.1478053331375122,-0.0957405716180801
2024-12-07 16:03:48.927197700,8.52219775390625,0.091479517519474,-0.0396810695528984,-0.1735048145055771
2024-12-07 16:03:48.937225000,8.532224853515626,-0.1961416751146316,-0.1856221854686737,-0.2427469491958618
2024-12-07 16:03:48.947252500,8.54225244140625,-0.4720449447631836,-0.3986749053001404,-0.3567301630973816
2024-12-07 16:03:48.957279700,8.55227978515625,-0.7032071352005005,-0.726776123046875,-0.449408084154129
2024-12-07 16:03:48.967307300,8.562307373046876,-0.9024114608764648,-0.9163930416107178,-0.4771049618721008
2024-12-07 16:03:48.977334500,8.57233447265625,-0.9929588437080384,-0.8705866932868958,-0.4089280664920807
2024-12-07 16:03:48.987362000,8.582362060546876,-0.822516679763794,-0.5510076284408569,-0.3258375227451324
2024-12-07 16:03:48.997389300,8.592389404296876,-0.4294344186782837,-0.1270326822996139,-0.2906838059425354
2024-12-07 16:03:49.007416800,8.602416748046876,0.0307594873011112,0.3416832983493805,-0.3013364672660827
2024-12-07 16:03:49.017444000,8.612444091796876,0.317315399646759,0.8402267098426819,-0.37590491771698
2024-12-07 16:03:49.027471600,8.6224716796875,0.3801659643650055,1.0085383653640747,-0.4909533858299255
2024-12-07 16:03:49.037499000,8.632498779296874,0.3034669756889343,0.8306393027305603,-0.5612607598304749
2024-12-07 16:03:49.047526400,8.6425263671875,0.128763735294342,0.5238434076309204,-0.5175849795341492
2024-12-07 16:03:49.057553700,8.6525537109375,-0.1002679392695427,0.2095906287431717,-0.419580727815628
2024-12-07 16:03:49.067581200,8.662581298828124,-0.3218427896499634,0.0018642114009708,-0.3545996248722076
2024-12-07 16:03:49.077608400,8.6726083984375,-0.5103944540023804,-0.0982705727219581,-0.317315399646759
2024-12-07 16:03:49.087636000,8.682635986328124,-0.6190513372421265,-0.1696432381868362,-0.2970753908157348
2024-12-07 16:03:49.097663200,8.692663330078124,-0.6275734305381775,-0.2452769577503204,-0.2960101366043091
2024-12-07 16:03:49.107690800,8.702690673828124,-0.5519397258758545,-0.29108327627182,-0.3322291076183319
2024-12-07 16:03:49.117718000,8.712718017578124,-0.413455456495285,-0.2229064106941223,-0.4057323038578033
2024-12-07 16:03:49.127745500,8.72274560546875,-0.2312953621149063,-0.0066578979603946,-0.5069323182106018
2024-12-07 16:03:49.137772800,8.732772705078125,-0.0651142373681068,0.3107906579971313,-0.5878923535346985
2024-12-07 16:03:49.147800300,8.74280029296875,0.0275636967271566,0.5579318404197693,-0.5953491926193237
2024-12-07 16:03:49.157827600,8.75282763671875,0.0563258156180381,0.6591318845748901,-0.5420860648155212
2024-12-07 16:03:49.167855000,8.762855224609375,0.0488689690828323,0.647413969039917,-0.4696480929851532
2024-12-07 16:03:49.177882400,8.77288232421875,0.0254331696778535,0.5952160358428955,-0.4004059731960296
2024-12-07 16:03:49.187910000,8.782909912109375,-0.0150468489155173,0.5611276030540466,-0.3524691164493561
2024-12-07 16:03:49.197937200,8.792937255859375,-0.060853186994791,0.5387570858001709,-0.3183806836605072
2024-12-07 16:03:49.207964700,8.802964599609375,-0.1098553165793418,0.5078644156455994,-0.2853575050830841
2024-12-07 16:03:49.217992000,8.812991943359375,-0.1631184965372085,0.4514054656028747,-0.2640522122383117
2024-12-07 16:03:49.228019500,8.82301953125,-0.2206427305936813,0.3821633458137512,-0.2757701277732849
2024-12-07 16:03:49.238047000,8.833046875,-0.2696448564529419,0.318247526884079,-0.2917490899562835
2024-12-07 16:03:49.248074200,8.84307421875,-0.3037332892417907,0.2777675092220306,-0.3109238147735595
2024-12-07 16:03:49.258101800,8.853101806640625,-0.3218427896499634,0.2788327634334564,-0.3141196072101593
2024-12-07 16:03:49.268129000,8.86312890625,-0.3186469972133636,0.2916159331798553,-0.3013364672660827
2024-12-07 16:03:49.278156500,8.873156494140625,-0.2994722425937652,0.3203780353069305,-0.2917490899562835
2024-12-07 16:03:49.288183800,8.883183837890625,-0.2568616867065429,0.3608580529689789,-0.2917490899562835
2024-12-07 16:03:49.298211300,8.89321142578125,-0.2110553532838821,0.4087949097156524,-0.2928143441677093
2024-12-07 16:03:49.308238600,8.903238525390625,-0.1929458826780319,0.4727107286453247,-0.2832269668579101
2024-12-07 16:03:49.318266000,8.91326611328125,-0.2035985141992569,0.5195823311805725,-0.252334326505661
2024-12-07 16:03:49.328293400,8.92329345703125,-0.2206427305936813,0.5185170769691467,-0.2001364082098007
2024-12-07 16:03:49.338321000,8.93332080078125,-0.2430132627487182,0.5004075765609741,-0.1415469050407409
2024-12-07 16:03:49.348348200,8.94334814453125,-0.2653838098049164,0.4865591824054718,-0.090414248406887
2024-12-07 16:03:49.358375700,8.953375732421875,-0.2888196110725403,0.4854938983917236,-0.0605868697166442
2024-12-07 16:03:49.368403000,8.96340283203125,-0.3133206665515899,0.4769718050956726,-0.0424773879349231
2024-12-07 16:03:49.378430500,8.973430419921876,-0.3420827984809875,0.439687579870224,-0.0371510684490203
2024-12-07 16:03:49.388457700,8.983457763671876,-0.3729754388332367,0.381098061800003,-0.0488689690828323
2024-12-07 16:03:49.398485200,8.9934853515625,-0.4091944098472595,0.3523359596729278,-0.0691089779138565
2024-12-07 16:03:49.408512500,9.003512451171876,-0.4336954653263092,0.3789675533771515,-0.0968058332800865
2024-12-07 16:03:49.418540000,9.0135400390625,-0.4294344186782837,0.4205128252506256,-0.1319595277309417
2024-12-07 16:03:49.428567300,9.0235673828125,-0.4155859649181366,0.4684496819972992,-0.1809616535902023
2024-12-07 16:03:49.438594800,9.0335947265625,-0.3878891170024872,0.5163865685462952,-0.229963794350624
2024-12-07 16:03:49.448622000,9.0436220703125,-0.3559312224388122,0.5366265773773193,-0.2736395895481109
2024-12-07 16:03:49.458649600,9.053649658203126,-0.3282343447208404,0.5099949836730957,-0.298140674829483
2024-12-07 16:03:49.468676900,9.0636767578125,-0.3165164589881897,0.4759065210819244,-0.3162501454353332
2024-12-07 16:03:49.478704400,9.073704345703124,-0.3218427896499634,0.4183822870254516,-0.3386206924915313
2024-12-07 16:03:49.488731600,9.083731689453124,-0.3303648829460144,0.3257043659687042,-0.3524691164493561
2024-12-07 16:03:49.498759200,9.09375927734375,-0.3090596199035644,0.2671148478984833,-0.3407512009143829
2024-12-07 16:03:49.508786400,9.103786376953124,-0.3058638274669647,0.2191779911518097,-0.3311638236045837
2024-12-07 16:03:49.518814000,9.11381396484375,-0.2824280261993408,0.2010685056447982,-0.3098585605621338
2024-12-07 16:03:49.528841200,9.12384130859375,-0.2696448564529419,0.1914811432361602,-0.3034669756889343
2024-12-07 16:03:49.538868700,9.13386865234375,-0.2526006400585174,0.2458095848560333,-0.2853575050830841
2024-12-07 16:03:49.548896000,9.14389599609375,-0.2185122072696685,0.3523359596729278,-0.239551156759262
2024-12-07 16:03:49.558923500,9.153923583984374,-0.1993374526500702,0.4929507374763489,-0.1798963993787765
2024-12-07 16:03:49.568951000,9.163950927734374,-0.2174469381570816,0.5877591967582703,-0.1383511126041412
2024-12-07 16:03:49.578978300,9.173978271484376,-0.1972069293260574,0.6900244951248169,-0.0765658244490623
2024-12-07 16:03:49.589005800,9.184005859375,-0.1780321896076202,0.7635276913642883,-0.0414121225476264
2024-12-07 16:03:49.599033000,9.194033203125,-0.1652490198612213,0.8072035312652588,-0.0446079149842262
2024-12-07 16:03:49.609060600,9.204060546875,-0.1311605870723724,0.8583361506462097,-0.0605868697166442
2024-12-07 16:03:49.619088000,9.214087890625,-0.0896153002977371,0.8881635665893555,-0.1117195263504982
2024-12-07 16:03:49.629115400,9.224115478515625,-0.0256994850933551,0.9190561771392822,-0.174570083618164
2024-12-07 16:03:49.639142700,9.234142578125,0.0147805325686931,0.9158604145050048,-0.2278332561254501
2024-12-07 16:03:49.649170200,9.244170166015625,0.0339552797377109,1.007473111152649,-0.2203764170408249
2024-12-07 16:03:49.659197400,9.254197509765625,-0.0033289489801973,1.0809762477874756,-0.1415469050407409
2024-12-07 16:03:49.669225000,9.264224853515625,-0.0384826473891735,1.0511488914489746,0.0225036945194005
2024-12-07 16:03:49.679252200,9.274252197265625,-0.0555268675088882,0.9371656775474548,0.2163816839456558
2024-12-07 16:03:49.689279700,9.28427978515625,-0.0597879216074943,0.7976161241531372,0.3921501636505127
2024-12-07 16:03:49.699307000,9.29430712890625,-0.0555268675088882,0.6570013761520386,0.5253081321716309
2024-12-07 16:03:49.709334500,9.30433447265625,-0.047004759311676,0.4791023135185241,0.6094639897346497
2024-12-07 16:03:49.719361800,9.31436181640625,-0.0480700209736824,0.2553969621658325,0.649944007396698
2024-12-07 16:03:49.729389300,9.324389404296875,-0.047004759311676,-0.0162452701479196,0.6893587112426758
2024-12-07 16:03:49.739416600,9.33441650390625,-0.0406131781637668,-0.3081275224685669,0.7671229839324951
2024-12-07 16:03:49.749444000,9.344444091796875,-0.0256994850933551,-0.5520728826522827,0.8970851302146912
2024-12-07 16:03:49.759471400,9.354471435546875,-0.0097205303609371,-0.7257108688354492,1.02385151386261
2024-12-07 16:03:49.769499000,9.364498779296875,0.0137152690440416,-0.915327787399292,1.175118923187256
2024-12-07 16:03:49.779526100,9.374526123046875,0.024367906153202,-1.1326415538787842,1.341300129890442
2024-12-07 16:03:49.789553700,9.3845537109375,0.0456731803715229,-1.2221237421035769,1.388171672821045
2024-12-07 16:03:49.799581000,9.394580810546875,0.0946753025054931,-1.0463552474975586,1.248622179031372
2024-12-07 16:03:49.809608400,9.4046083984375,0.1713742911815643,-0.5989444851875305,1.011068344116211
2024-12-07 16:03:49.819635700,9.4146357421875,0.2917490899562835,-0.0854874104261398,0.8044071793556213
2024-12-07 16:03:49.829663200,9.424663330078126,0.3972101807594299,0.1914811432361602,0.7149250507354736
2024-12-07 16:03:49.839690500,9.4346904296875,0.4323638677597046,0.2053295671939849,0.6840324401855469
2024-12-07 16:03:49.849718000,9.444718017578126,0.4451470375061035,0.0774979293346405,0.5838976502418518
2024-12-07 16:03:49.859745300,9.454745361328126,0.4611259996891022,-0.1973400861024856,0.4400870501995086
2024-12-07 16:03:49.869772800,9.464772705078126,0.4675175845623016,-0.5179844498634338,0.3229080438613891
2024-12-07 16:03:49.879800000,9.474800048828126,0.4398207366466522,-0.7363634705543518,0.224903792142868
2024-12-07 16:03:49.889827600,9.48482763671875,0.3940143883228302,-0.8258456587791443,0.113051101565361
2024-12-07 16:03:49.899855000,9.494855224609376,0.3514038324356079,-0.7906919121742249,-0.0019973693415522
2024-12-07 16:03:49.909882400,9.50488232421875,0.3013364672660827,-0.6362286806106567,-0.0861531943082809
2024-12-07 16:03:49.919910000,9.514909912109376,0.2810964286327362,-0.4370244145393371,-0.1266332119703292
2024-12-07 16:03:49.929937200,9.524937255859374,0.2693785429000854,-0.2868222296237945,-0.1351553201675415
2024-12-07 16:03:49.939964700,9.534964599609374,0.2533995807170868,-0.227167472243309,-0.1276984810829162
2024-12-07 16:03:49.949992000,9.544991943359374,0.2363553643226623,-0.2367548495531082,-0.130894273519516
2024-12-07 16:03:49.960019500,9.55501953125,0.2235722094774246,-0.2697780132293701,-0.1340900659561157
2024-12-07 16:03:49.970046700,9.565046630859374,0.2203764170408249,-0.3177148699760437,-0.130894273519516
2024-12-07 16:03:49.980074200,9.57507421875,0.2150501012802124,-0.3518033027648926,-0.129829004406929
2024-12-07 16:03:49.990101500,9.5851015625,0.2065279930830001,-0.3656517565250397,-0.130894273519516
2024-12-07 16:03:50.000129000,9.59512890625,0.185222715139389,-0.3922833502292633,-0.1095889955759048
2024-12-07 16:03:50.010156300,9.60515625,0.1585911214351654,-0.4221107065677643,-0.0456731803715229
2024-12-07 16:03:50.020183800,9.615183837890624,0.1383511126041412,-0.4274370372295379,0.0565921291708946
2024-12-07 16:03:50.030211000,9.625211181640625,0.1351553201675415,-0.4029359817504883,0.1652490198612213
2024-12-07 16:03:50.040238600,9.635238525390625,0.1564605981111526,-0.3656517565250397,0.2451438009738922
2024-12-07 16:03:50.050265900,9.645265869140625,0.2097237855195999,-0.3102580308914184,0.2888196110725403
2024-12-07 16:03:50.060293400,9.65529345703125,0.2842922210693359,-0.2740390598773956,0.3016027808189392
2024-12-07 16:03:50.070320600,9.665320556640625,0.3609912097454071,-0.2026664018630981,0.3229080438613891
2024-12-07 16:03:50.080348200,9.67534814453125,0.4355596601963043,-0.1078579425811767,0.348474383354187
2024-12-07 16:03:50.090375400,9.68537548828125,0.4888228476047516,-0.0354200154542923,0.378301739692688
2024-12-07 16:03:50.100403000,9.69540283203125,0.5101281404495239,-0.0237021166831254,0.4091944098472595
2024-12-07 16:03:50.110430200,9.70543017578125,0.497344970703125,-0.1249021589756012,0.434760719537735
2024-12-07 16:03:50.120457700,9.715457763671877,0.4653870463371277,-0.293213814496994,0.4464786350727081
2024-12-07 16:03:50.130485000,9.725485107421877,0.4110586047172546,-0.4743086397647857,0.4518049359321594
2024-12-07 16:03:50.140512500,9.735512451171877,0.3705785870552063,-0.6042708158493042,0.4336954653263092
2024-12-07 16:03:50.150539800,9.745539794921877,0.3556649088859558,-0.6543381810188293,0.3996070325374603
2024-12-07 16:03:50.160567300,9.7555673828125,0.3577954173088074,-0.6585992574691772,0.3580617308616638
2024-12-07 16:03:50.170594600,9.765594482421877,0.4036017656326294,-0.5978792309761047,0.2984069883823395
2024-12-07 16:03:50.180622000,9.7756220703125,0.4600607454776764,-0.5446160435676575,0.2312953621149063
2024-12-07 16:03:50.190649300,9.7856494140625,0.5101281404495239,-0.5286371111869812,0.1652490198612213
2024-12-07 16:03:50.200676900,9.7956767578125,0.5442165732383728,-0.5392897129058838,0.1045289933681488
2024-12-07 16:03:50.210704100,9.8057041015625,0.5697829127311707,-0.5499423742294312,0.049135286360979
2024-12-07 16:03:50.220731600,9.815731689453123,0.551673412322998,-0.6255760788917542,-0.0062584239058196
2024-12-07 16:03:50.230759000,9.825759033203123,0.5016059875488281,-0.7321024537086487,-0.0616521313786506
2024-12-07 16:03:50.240786400,9.835786376953124,0.4419512450695038,-0.8205193281173706,-0.1085237339138984
2024-12-07 16:03:50.250814000,9.84581396484375,0.37590491771698,-0.8631298542022705,-0.1553953289985656
2024-12-07 16:03:50.260841200,9.85584130859375,0.306662768125534,-0.8428898453712463,-0.2086585164070129
2024-12-07 16:03:50.270868700,9.86586865234375,0.2363553643226623,-0.7885614037513733,-0.262986958026886
2024-12-07 16:03:50.280896000,9.87589599609375,0.1703090220689773,-0.743820309638977,-0.308793306350708
2024-12-07 16:03:50.290923500,9.885923583984376,0.1276984810829162,-0.7384940385818481,-0.3407512009143829
2024-12-07 16:03:50.300950800,9.89595068359375,0.1031974181532859,-0.7640603184700012,-0.3556649088859558
2024-12-07 16:03:50.310978300,9.905978271484376,0.0978710949420929,-0.7960182428359985,-0.3588607013225555
2024-12-07 16:03:50.321005600,9.916005615234376,0.1138500496745109,-0.8428898453712463,-0.3524691164493561
2024-12-07 16:03:50.331033000,9.926033203125,0.1394163817167282,-0.9174582958221436,-0.3322291076183319
2024-12-07 16:03:50.341060400,9.936060302734376,0.1415469050407409,-1.023984670639038,-0.306662768125534
2024-12-07 16:03:50.351087900,9.946087890625,0.119176372885704,-1.144359469413757,-0.2842922210693359
2024-12-07 16:03:50.361115100,9.956115234375,0.0829574093222618,-1.2349069118499756,-0.2779006659984588
2024-12-07 16:03:50.371142700,9.966142578125,0.0488689690828323,-1.2594079971313477,-0.2885532975196838
2024-12-07 16:03:50.381170000,9.976169921875,0.0169110596179962,-1.1571426391601562,-0.298140674829483
2024-12-07 16:03:50.391197400,9.986197509765624,0.0158457960933446,-0.915327787399292,-0.2565953731536865
2024-12-07 16:03:50.401224700,9.996224609375,0.0712395086884498,-0.6884266138076782,-0.1788311302661895
2024-12-07 16:03:50.411252200,10.006252197265624,0.1159805804491043,-0.5275717973709106,-0.119176372885704
2024-12-07 16:03:50.421279500,10.016279541015624,0.1245026886463165,-0.3720433413982391,-0.0840226709842681
2024-12-07 16:03:50.431307000,10.02630712890625,0.1053279414772987,-0.1557948142290115,-0.0723047703504562
2024-12-07 16:03:50.441334300,10.036334228515624,0.1117195263504982,0.0540621280670166,-0.0733700320124626
2024-12-07 16:03:50.451361800,10.04636181640625,0.185222715139389,0.3779022693634033,-0.0328900143504142
2024-12-07 16:03:50.461389000,10.05638916015625,0.3545996248722076,0.7123950719833374,0.0523310750722885
2024-12-07 16:03:50.471416600,10.06641650390625,0.4430165290832519,0.8455530405044556,0.0395479127764701
2024-12-07 16:03:50.481443800,10.07644384765625,0.4568649530410766,0.8231824636459351,-0.0371510684490203
2024-12-07 16:03:50.491471400,10.086471435546876,0.4323638677597046,0.6697844862937927,-0.0818921402096748
2024-12-07 16:03:50.501498600,10.09649853515625,0.3162501454353332,0.4269044101238251,-0.0733700320124626
2024-12-07 16:03:50.511526100,10.106526123046876,0.1031974181532859,0.1797632426023483,-0.091479517519474
2024-12-07 16:03:50.521553400,10.116553466796876,-0.1535311192274093,0.0402137041091918,-0.1330247968435287
2024-12-07 16:03:50.531581000,10.126580810546876,-0.367649108171463,0.0423442311584949,-0.2043974548578262
2024-12-07 16:03:50.541608200,10.136608154296876,-0.5434176325798035,0.0370179116725921,-0.3577954173088074
2024-12-07 16:03:50.551635700,10.1466357421875,-0.6744450330734253,0.0061252657324075,-0.505867063999176
2024-12-07 16:03:50.561663000,10.1566630859375,-0.7980156540870667,-0.0354200154542923,-0.5410207509994507
2024-12-07 16:03:50.571690500,10.1666904296875,-0.9034767150878906,-0.0737695097923278,-0.451538622379303
2024-12-07 16:03:50.581718000,10.176718017578125,-0.9066725373268129,-0.1472726911306381,-0.3375554084777832
2024-12-07 16:03:50.591745300,10.186745361328123,-0.7532745599746704,-0.282561182975769,-0.2278332561254501
2024-12-07 16:03:50.601772800,10.196772705078123,-0.4326302111148834,-0.3571296334266662,-0.1202416345477104
2024-12-07 16:03:50.611800000,10.206800048828123,-0.0896153002977371,-0.1185105815529823,-0.128763735294342
2024-12-07 16:03:50.621827600,10.21682763671875,0.1000016257166862,0.2543317079544067,-0.2651174962520599
2024-12-07 16:03:50.631854800,10.226854736328123,0.2342248409986496,0.4492749273777008,-0.4153196513652801
2024-12-07 16:03:50.641882400,10.23688232421875,0.3460775315761566,0.5909550189971924,-0.5122586488723755
2024-12-07 16:03:50.651909600,10.24690966796875,0.3290333151817322,0.6612623929977417,-0.5101281404495239
2024-12-07 16:03:50.661937200,10.256937255859375,0.2257027328014373,0.5558013319969177,-0.3993407189846039
2024-12-07 16:03:50.671964400,10.26696435546875,0.0840226709842681,0.448209673166275,-0.2555301189422607
2024-12-07 16:03:50.681992000,10.276991943359375,-0.0789626687765121,0.391750693321228,-0.1447426974773407
2024-12-07 16:03:50.692019200,10.287019287109375,-0.2227732539176941,0.3587275445461273,-0.0818921402096748
2024-12-07 16:03:50.702046700,10.297046630859375,-0.3197122514247894,0.3619233071804046,-0.0648479238152504
2024-12-07 16:03:50.712074000,10.307073974609375,-0.3612575232982635,0.3853591084480285,-0.090414248406887
2024-12-07 16:03:50.722101500,10.3171015625,-0.3516701459884643,0.3960117697715759,-0.1543300747871399
2024-12-07 16:03:50.732128800,10.327128662109375,-0.3122554123401642,0.3534012138843536,-0.2363553643226623
2024-12-07 16:03:50.742156300,10.33715625,-0.2717753946781158,0.2500706315040588,-0.308793306350708
2024-12-07 16:03:50.752183600,10.34718359375,-0.2291648387908935,0.1744369268417358,-0.3322291076183319
2024-12-07 16:03:50.762211000,10.357211181640626,-0.1854890286922454,0.1478053331375122,-0.3024017214775085
2024-12-07 16:03:50.772238300,10.36723828125,-0.1407479643821716,0.1169126853346824,-0.2544648647308349
2024-12-07 16:03:50.782265900,10.377265869140626,-0.1002679392695427,0.098803199827671,-0.229963794350624
2024-12-07 16:03:50.792293000,10.387293212890626,-0.0661795064806938,0.1350221633911132,-0.240616425871849
2024-12-07 16:03:50.802320600,10.397320556640626,-0.0395479127764701,0.2191779911518097,-0.2715090811252594
2024-12-07 16:03:50.812348000,10.407347900390626,-0.0278300121426582,0.2905506491661072,-0.3183806836605072
2024-12-07 16:03:50.822375400,10.41737548828125,-0.0288952756673097,0.3523359596729278,-0.3673827946186065
2024-12-07 16:03:50.832402700,10.427402587890626,-0.0406131781637668,0.4301002025604248,-0.3886880576610565
2024-12-07 16:03:50.842430200,10.43743017578125,-0.0587226599454879,0.4769718050956726,-0.3684480488300323
2024-12-07 16:03:50.852457500,10.44745751953125,-0.0800279304385185,0.4705802202224731,-0.327968031167984
2024-12-07 16:03:50.862485000,10.457485107421874,-0.1077247858047485,0.4215780794620514,-0.2970753908157348
2024-12-07 16:03:50.872512300,10.46751220703125,-0.1439437568187713,0.3619233071804046,-0.2874880135059356
2024-12-07 16:03:50.882539800,10.477539794921874,-0.1929458826780319,0.3193127810955047,-0.2949448823928833
2024-12-07 16:03:50.892567000,10.487567138671874,-0.2376869469881057,0.2980075180530548,-0.2960101366043091
2024-12-07 16:03:50.902594600,10.497594482421874,-0.2685796022415161,0.3225085735321045,-0.2885532975196838
2024-12-07 16:03:50.912622000,10.5076220703125,-0.2866890728473663,0.3448790907859802,-0.2810964286327362
2024-12-07 16:03:50.922649300,10.5176494140625,-0.2877543270587921,0.3480748832225799,-0.2736395895481109
2024-12-07 16:03:50.932676900,10.5276767578125,-0.2802974879741668,0.337422251701355,-0.2672480046749115
2024-12-07 16:03:50.942704000,10.5377041015625,-0.2632532715797424,0.32676962018013,-0.260856419801712
2024-12-07 16:03:50.952731400,10.5477314453125,-0.2483395934104919,0.3331612050533294,-0.2672480046749115
2024-12-07 16:03:50.962758700,10.557758544921874,-0.2291648387908935,0.3853591084480285,-0.2928143441677093
2024-12-07 16:03:50.972786200,10.5677861328125,-0.2057290375232696,0.4546012580394745,-0.317315399646759
2024-12-07 16:03:50.982813400,10.5778134765625,-0.2046637833118438,0.4972118139266968,-0.3482080399990082
2024-12-07 16:03:50.992840700,10.5878408203125,-0.2280995845794677,0.5185170769691467,-0.3918838500976562
2024-12-07 16:03:51.002868200,10.5978681640625,-0.2536658942699432,0.5376918315887451,-0.4142543971538543
2024-12-07 16:03:51.012895500,10.6078955078125,-0.2888196110725403,0.5355613231658936,-0.4057323038578033
2024-12-07 16:03:51.022922800,10.6179228515625,-0.3175817131996155,0.5430181622505188,-0.3620564937591553
2024-12-07 16:03:51.032950300,10.6279501953125,-0.3303648829460144,0.5579318404197693,-0.2960101366043091
2024-12-07 16:03:51.042977500,10.6379775390625,-0.3165164589881897,0.5568665862083435,-0.2097237855195999
2024-12-07 16:03:51.053004800,10.6480048828125,-0.3101248741149902,0.494016021490097,-0.1596563905477523
2024-12-07 16:03:51.063032300,10.6580322265625,-0.2824280261993408,0.4844286441802978,-0.1468732208013534
2024-12-07 16:03:51.073059600,10.6680595703125,-0.2589922249317169,0.5057339072227478,-0.1692437678575515
2024-12-07 16:03:51.083086800,10.6780869140625,-0.2557964324951172,0.5217128396034241,-0.2139848321676254
2024-12-07 16:03:51.093114400,10.6881142578125,-0.2685796022415161,0.5494097471237183,-0.2491385340690612
2024-12-07 16:03:51.103141600,10.6981416015625,-0.3079943358898163,0.5536707639694214,-0.2768353819847107
2024-12-07 16:03:51.113169000,10.7081689453125,-0.3356912136077881,0.6239781975746155,-0.2651174962520599
2024-12-07 16:03:51.123196200,10.718196044921877,-0.3665838539600372,0.6719150543212891,-0.2619217038154602
2024-12-07 16:03:51.133223700,10.7282236328125,-0.3878891170024872,0.6697844862937927,-0.2683132886886596
2024-12-07 16:03:51.143251000,10.7382509765625,-0.40280282497406,0.5920202732086182,-0.2715090811252594
2024-12-07 16:03:51.153278200,10.7482783203125,-0.3846933245658874,0.5728455185890198,-0.2363553643226623
2024-12-07 16:03:51.163305700,10.7583056640625,-0.3143859207630157,0.5376918315887451,-0.1479384899139404
2024-12-07 16:03:51.173333000,10.7683330078125,-0.1961416751146316,0.4418180882930755,-0.0446079149842262
2024-12-07 16:03:51.183360300,10.7783603515625,-0.0821584612131118,0.3352917432785034,-0.0041278963908553
2024-12-07 16:03:51.193387800,10.7883876953125,0.0328900143504142,0.1648495495319366,-0.0051931603811681
2024-12-07 16:03:51.203415000,10.7984150390625,0.1138500496745109,0.0593884475529193,-0.0158457960933446
2024-12-07 16:03:51.213442300,10.8084423828125,0.1607216447591781,0.0529968664050102,-0.0126500055193901
2024-12-07 16:03:51.223469800,10.8184697265625,0.2001364082098007,0.0295610651373863,0.0533963404595851
2024-12-07 16:03:51.233497000,10.8284970703125,0.2225069403648376,-0.0300936978310346,0.2089248299598693
2024-12-07 16:03:51.243524600,10.838524658203124,0.2235722094774246,-0.0727042406797409,0.3985417485237121
2024-12-07 16:03:51.253551900,10.8485517578125,0.185222715139389,-0.105727419257164,0.5796365737915039
2024-12-07 16:03:51.263579400,10.858579345703124,0.1213068962097168,-0.1312937438488006,0.7586008906364441
2024-12-07 16:03:51.273606700,10.868606689453124,0.0659131854772567,-0.1856221854686737,0.9482178092002868
2024-12-07 16:03:51.283634200,10.87863427734375,0.0350205413997173,-0.2292979955673217,1.1484873294830322
2024-12-07 16:03:51.293661400,10.888661376953126,0.0179763231426477,-0.227167472243309,1.3008201122283936
2024-12-07 16:03:51.303689000,10.89868896484375,0.0286289602518081,-0.1632516533136367,1.3668663501739502
2024-12-07 16:03:51.313716200,10.90871630859375,0.052064761519432,0.0061252657324075,1.3945633172988892
2024-12-07 16:03:51.323743700,10.91874365234375,0.107458472251892,0.1978727281093597,1.3903021812438965
2024-12-07 16:03:51.333771000,10.92877099609375,0.196940615773201,0.3065296113491058,1.3370389938354492
2024-12-07 16:03:51.343798500,10.938798583984376,0.2576606571674347,0.2404832690954208,1.2827105522155762
2024-12-07 16:03:51.353825800,10.94882568359375,0.1948100924491882,0.0689758211374282,1.258209466934204
2024-12-07 16:03:51.363853300,10.958853271484376,0.1031974181532859,-0.0908137261867523,1.1889673471450806
2024-12-07 16:03:51.373880800,10.968880859375,0.0627174004912376,-0.1802958697080612,1.028112530708313
2024-12-07 16:03:51.383908000,10.978908203125,0.0616521313786506,-0.3049317300319671,0.8257125020027161
2024-12-07 16:03:51.393935600,10.988935546875,0.1095889955759048,-0.4444812536239624,0.5892239809036255
2024-12-07 16:03:51.403963000,10.998962890625,0.2193111479282379,-0.4679170548915863,0.3271690905094147
2024-12-07 16:03:51.413990400,11.008990478515624,0.3769701719284057,-0.347542256116867,0.1407479643821716
2024-12-07 16:03:51.424017700,11.019017578125,0.4930838942527771,-0.1291632205247879,0.1055942550301551
2024-12-07 16:03:51.434045200,11.029045166015624,0.5207807421684265,0.0519316010177135,0.1535311192274093
2024-12-07 16:03:51.444072400,11.039072509765624,0.4877575933933258,0.1563274413347244,0.2035985141992569
2024-12-07 16:03:51.454100000,11.049099853515624,0.449408084154129,0.182959035038948,0.1620532274246215
2024-12-07 16:03:51.464127200,11.059127197265624,0.4334291517734527,0.1616537570953369,0.0235689580440521
2024-12-07 16:03:51.474154800,11.06915478515625,0.4398207366466522,0.0902810916304588,-0.130894273519516
2024-12-07 16:03:51.484182000,11.07918212890625,0.4547344148159027,0.0093210572376847,-0.2246374636888504
2024-12-07 16:03:51.494209500,11.08920947265625,0.4323638677597046,-0.0151800066232681,-0.2257027328014373
2024-12-07 16:03:51.504236800,11.09923681640625,0.3652522563934326,-0.0162452701479196,-0.1607216447591781
2024-12-07 16:03:51.514264300,11.109264404296876,0.3130543529987335,-0.0759000331163406,-0.0669784545898437
2024-12-07 16:03:51.524291600,11.11929150390625,0.2938795983791351,-0.1845569312572479,0.0011984215816482
2024-12-07 16:03:51.534319000,11.129319091796877,0.2821617126464844,-0.2633864283561706,0.0374173857271671
2024-12-07 16:03:51.544346400,11.139346435546877,0.2779006659984588,-0.2484727501869201,0.074701614677906
2024-12-07 16:03:51.554374000,11.149373779296877,0.2779006659984588,-0.1834916621446609,0.1173121556639671
2024-12-07 16:03:51.564401200,11.159401123046877,0.2640522122383117,-0.1398158520460128,0.1716406047344207
2024-12-07 16:03:51.574428700,11.1694287109375,0.2448774725198745,-0.0982705727219581,0.23662169277668
2024-12-07 16:03:51.584456000,11.1794560546875,0.2225069403648376,-0.0833568796515464,0.2941459119319916
2024-12-07 16:03:51.594483500,11.1894833984375,0.1980058848857879,-0.1035968884825706,0.3367564678192138
2024-12-07 16:03:51.604510700,11.1995107421875,0.1788311302661895,-0.1664474457502365,0.3793670237064361
2024-12-07 16:03:51.614538200,11.209538330078123,0.1607216447591781,-0.2410158962011337,0.421977549791336
2024-12-07 16:03:51.624565500,11.2195654296875,0.1468732208013534,-0.3219759464263916,0.4550007283687591
2024-12-07 16:03:51.634593000,11.229593017578123,0.1223721578717231,-0.3858917653560638,0.4763059914112091
2024-12-07 16:03:51.644620300,11.239620361328123,0.0946753025054931,-0.4593949317932129,0.4986765384674072
2024-12-07 16:03:51.654647800,11.249647705078123,0.0648479238152504,-0.546746551990509,0.521047055721283
2024-12-07 16:03:51.664675000,11.259675048828123,0.0573910772800445,-0.5616602301597595,0.5093291997909546
2024-12-07 16:03:51.674702600,11.26970263671875,0.0691089779138565,-0.4902876019477844,0.4763059914112091
2024-12-07 16:03:51.684729900,11.279729736328123,0.0893489867448806,-0.3944138586521148,0.3878891170024872
2024-12-07 16:03:51.694757400,11.28975732421875,0.0925447791814804,-0.293213814496994,0.2717753946781158
2024-12-07 16:03:51.704785000,11.299784912109375,0.0989363640546798,-0.2111885100603103,0.157792180776596
2024-12-07 16:03:51.714812200,11.309812255859375,0.0893489867448806,-0.2122537791728973,0.0576573945581913
2024-12-07 16:03:51.724839700,11.319839599609375,0.0840226709842681,-0.3518033027648926,-0.052064761519432
2024-12-07 16:03:51.734867000,11.329866943359375,0.102132149040699,-0.5861613154411316,-0.1436774283647537
2024-12-07 16:03:51.744894500,11.33989453125,0.1362205892801284,-0.810931921005249,-0.1894837766885757
2024-12-07 16:03:51.754921700,11.349921630859376,0.1809616535902023,-0.9249151349067688,-0.2225069403648376
2024-12-07 16:03:51.764949200,11.35994921875,0.2225069403648376,-0.8961530327796936,-0.2619217038154602
2024-12-07 16:03:51.774976500,11.3699765625,0.2565953731536865,-0.7906919121742249,-0.2928143441677093
2024-12-07 16:03:51.785004000,11.380004150390626,0.2960101366043091,-0.6585992574691772,-0.2885532975196838
2024-12-07 16:03:51.795031300,11.39003125,0.3109238147735595,-0.6021402478218079,-0.2619217038154602
2024-12-07 16:03:51.805058800,11.400058837890626,0.3045322299003601,-0.6458160877227783,-0.2107890397310257
2024-12-07 16:03:51.815086000,11.410086181640626,0.3258375227451324,-0.735298216342926,-0.1500690132379531
2024-12-07 16:03:51.825113600,11.420113525390626,0.3908185958862304,-0.7597993016242981,-0.0946753025054931
2024-12-07 16:03:51.835140900,11.430140869140626,0.4664523303508758,-0.7033402919769287,-0.0339552797377109
2024-12-07 16:03:51.845168400,11.44016845703125,0.5079975724220276,-0.6692518591880798,0.0512658134102821
2024-12-07 16:03:51.855195600,11.450195556640624,0.5282375812530518,-0.7203845381736755,0.1545963883399963
2024-12-07 16:03:51.865223200,11.46022314453125,0.5687175989151001,-0.7374287843704224,0.2856238186359405
2024-12-07 16:03:51.875250400,11.47025048828125,0.6028060913085938,-0.5946834087371826,0.4102596640586853
2024-12-07 16:03:51.885278000,11.48027783203125,0.5878923535346985,-0.3965443968772888,0.5167860388755798
2024-12-07 16:03:51.895305200,11.49030517578125,0.5356944799423218,-0.293213814496994,0.5625923871994019
2024-12-07 16:03:51.905332700,11.500332763671874,0.4632565379142761,-0.2580601274967193,0.5093291997909546
2024-12-07 16:03:51.915360000,11.510360107421874,0.3503385782241821,-0.1408811211585998,0.3687143921852112
2024-12-07 16:03:51.925387500,11.520387451171874,0.2161153554916381,-0.0343547537922859,0.1556616425514221
2024-12-07 16:03:51.935414800,11.530414794921874,0.1010668873786926,-0.0599210783839225,-0.091479517519474
2024-12-07 16:03:51.945442300,11.5404423828125,0.0350205413997173,-0.2452769577503204,-0.3609912097454071
2024-12-07 16:03:51.955469600,11.550469482421876,-0.074701614677906,-0.4860265254974365,-0.6262418627738953
2024-12-07 16:03:51.965497000,11.5604970703125,-0.2121206223964691,-0.7555382251739502,-0.8052061796188354
2024-12-07 16:03:51.975524400,11.5705244140625,-0.2611227631568908,-0.9334372878074646,-0.8797746300697327
