time,seconds_elapsed,z,y,x
2024-12-07 16:12:55.220463600,0.134463623046875,-0.1805621832609176,0.4651207327842712,-0.0556600242853164
2024-12-07 16:12:55.230407700,0.14440771484375,-0.104928471148014,0.2616553902626037,-0.0641821324825286
2024-12-07 16:12:55.240390100,0.15439013671875,-0.1230379492044448,0.2520680129528045,-0.0748347714543342
2024-12-07 16:12:55.250411300,0.164411376953125,-0.153930589556694,0.2989396154880523,-0.0748347714543342
2024-12-07 16:12:55.260469800,0.1744697265625,-0.1933453530073166,0.3458112180233001,-0.0396810695528984
2024-12-07 16:12:55.270563000,0.18456298828125,-0.1624527126550674,0.336223840713501,-0.0290284343063831
2024-12-07 16:12:55.280687400,0.194687255859375,-0.1667137593030929,0.2861564457416534,-0.0450073890388011
2024-12-07 16:12:55.290837000,0.2048369140625,-0.1677790284156799,0.2552638053894043,-0.0908137261867523
2024-12-07 16:12:55.301006300,0.21500634765625,-0.144343227148056,0.2041311413049698,-0.1280979514122009
2024-12-07 16:12:55.311189000,0.22518896484375,-0.142212688922882,0.1114532053470611,-0.160055860877037
2024-12-07 16:12:55.321378600,0.235378662109375,-0.1933453530073166,0.0432763360440731,-0.2016011476516723
2024-12-07 16:12:55.331565300,0.2455654296875,-0.2700443267822265,0.0113184265792369,-0.2250369489192962
2024-12-07 16:12:55.341593300,0.25559326171875,-0.3392864763736725,0.0049268445000052,-0.2484727501869201
2024-12-07 16:12:55.351621000,0.26562109375,-0.3808317482471466,-0.0472710728645324,-0.3049317300319671
2024-12-07 16:12:55.361649200,0.275649169921875,-0.4117243885993957,-0.1037300452589988,-0.328367531299591
2024-12-07 16:12:55.371677200,0.28567724609375,-0.4063980877399444,-0.1910816729068756,-0.3081275224685669
2024-12-07 16:12:55.381705200,0.295705322265625,-0.3403517305850982,-0.2720417082309723,-0.293213814496994
2024-12-07 16:12:55.391733000,0.30573291015625,-0.2487390637397766,-0.3050648868083954,-0.2367548495531082
2024-12-07 16:12:55.401761000,0.315760986328125,-0.211454838514328,-0.2528669536113739,-0.1739042848348617
2024-12-07 16:12:55.411789000,0.3257890625,-0.153930589556694,-0.1431448012590408,-0.1025316268205642
2024-12-07 16:12:55.421817000,0.335817138671875,-0.1507348120212555,0.0006657897611148,-0.0194410607218742
2024-12-07 16:12:55.431844900,0.345844970703125,-0.1731053441762924,0.1370195299386978,-0.0023968431632965
2024-12-07 16:12:55.441873000,0.355872802734375,-0.1358211189508438,0.2254364192485809,-0.024767380207777
2024-12-07 16:12:55.451901000,0.36590087890625,-0.0580568686127662,0.2371543198823928,-0.0716389790177345
2024-12-07 16:12:55.461929000,0.375928955078125,0.0133157959207892,0.2083922028541565,-0.1280979514122009
2024-12-07 16:12:55.471956700,0.385956787109375,0.0910800397396087,0.1881521940231323,-0.1632516533136367
2024-12-07 16:12:55.481984800,0.39598486328125,0.1411474347114563,0.1806953400373459,-0.1749695539474487
2024-12-07 16:12:55.492012800,0.4060126953125,0.154995858669281,0.1764342933893203,-0.1771000772714615
2024-12-07 16:12:55.502040800,0.416040771484375,0.1581916511058807,0.1753690242767334,-0.149403229355812
2024-12-07 16:12:55.512068600,0.426068603515625,0.1592569202184677,0.1934785097837448,-0.0801610872149467
2024-12-07 16:12:55.522096600,0.4360966796875,0.1603221744298935,0.2233058959245681,-0.0311589613556861
2024-12-07 16:12:55.532124700,0.446124755859375,0.1560611277818679,0.279764860868454,-0.0141147430986166
2024-12-07 16:12:55.542152700,0.456152587890625,0.1464737504720688,0.3202448785305023,0.0018642114009708
2024-12-07 16:12:55.552180500,0.466180419921875,0.142212688922882,0.3308975100517273,0.0231694839894771
2024-12-07 16:12:55.562208500,0.47620849609375,0.1688442826271057,0.269112229347229,0.0359526462852954
2024-12-07 16:12:55.572236500,0.486236572265625,0.2029327303171157,0.1870869249105453,0.0039947386831045
2024-12-07 16:12:55.582264600,0.4962646484375,0.1901495605707168,0.1157142594456672,-0.0535294972360134
2024-12-07 16:12:55.592292400,0.506292236328125,0.1518000662326812,0.0560594983398914,-0.0844221413135528
2024-12-07 16:12:55.602320400,0.5163203125,0.1081242561340332,-0.030226856470108,-0.1291632205247879
2024-12-07 16:12:55.612348400,0.526348388671875,0.1081242561340332,-0.1420795321464538,-0.1557948142290115
2024-12-07 16:12:55.622376400,0.53637646484375,0.0932105705142021,-0.2507364153861999,-0.1440769135951995
2024-12-07 16:12:55.632404200,0.546404296875,0.0133157959207892,-0.2336922138929367,-0.0854874104261398
2024-12-07 16:12:55.642432300,0.556432373046875,-0.0644484534859657,-0.1484711170196533,-0.0290284343063831
2024-12-07 16:12:55.652460300,0.566460205078125,-0.088949516415596,-0.0717721357941627,0.0082557927817106
2024-12-07 16:12:55.662488300,0.57648828125,-0.021837905049324,-0.0749679282307624,0.0284958016127347
2024-12-07 16:12:55.672516000,0.58651611328125,0.0058589498512446,-0.1069258376955986,0.0114515842869877
2024-12-07 16:12:55.682544000,0.596544189453125,-0.0037284228019416,-0.1442100703716278,-0.0258326437324285
2024-12-07 16:12:55.692572200,0.606572265625,-0.0005326318205334,-0.1953427195549011,-0.05459476262331
2024-12-07 16:12:55.702600200,0.61660009765625,0.0090547408908605,-0.2017343044281005,-0.0716389790177345
2024-12-07 16:12:55.712628200,0.626628173828125,0.0420779138803482,-0.1548627018928527,-0.0908137261867523
2024-12-07 16:12:55.722656300,0.63665625,0.0452737063169479,-0.1090563684701919,-0.0844221413135528
2024-12-07 16:12:55.732684300,0.646684326171875,0.0516652874648571,-0.0920121446251869,-0.0482031814754009
2024-12-07 16:12:55.742712000,0.656712158203125,0.0697747692465782,-0.112252153456211,-0.0258326437324285
2024-12-07 16:12:55.752740000,0.666739990234375,0.0633831843733787,-0.1655153334140777,-0.0322242267429828
2024-12-07 16:12:55.762768100,0.67676806640625,0.023968432098627,-0.1687111258506775,-0.052464235574007
2024-12-07 16:12:55.772796200,0.686796142578125,0.0314252786338329,-0.1974732428789138,-0.038615807890892
2024-12-07 16:12:55.782824200,0.69682421875,0.0292947497218847,-0.2123869359493255,-0.0141147430986166
2024-12-07 16:12:55.792852200,0.706852294921875,0.0229031685739755,-0.1591237634420395,0.0093210572376847
2024-12-07 16:12:55.802880300,0.71688037109375,0.0197073780000209,-0.0504668653011322,0.0167779028415679
2024-12-07 16:12:55.812908300,0.726908203125,-0.0346210673451423,0.0741689801216125,0.0167779028415679
2024-12-07 16:12:55.822936300,0.736936279296875,-0.1358211189508438,0.1732385009527206,0.0316915921866893
2024-12-07 16:12:55.832964400,0.74696435546875,-0.2924148738384247,0.1998700946569442,0.044474758207798
2024-12-07 16:12:55.842992400,0.756992431640625,-0.3925496637821197,0.107192151248455,0.0402137041091918
2024-12-07 16:12:55.853020400,0.7670205078125,-0.4511391520500183,0.191347986459732,0.0508663393557071
2024-12-07 16:12:55.863048400,0.77704833984375,-0.4585959911346435,0.202000617980957,0.0679105594754219
2024-12-07 16:12:55.873076500,0.787076416015625,-0.4490086138248443,0.14554163813591,0.0924116224050521
2024-12-07 16:12:55.883104500,0.7971044921875,-0.4255728125572204,0.0613858178257942,0.0945421457290649
2024-12-07 16:12:55.893132500,0.807132568359375,-0.4149201810359955,-0.0195742193609476,0.0625842362642288
2024-12-07 16:12:55.903160600,0.81716064453125,-0.4074633419513702,-0.0547279193997383,-0.0151800066232681
2024-12-07 16:12:55.913188600,0.827188720703125,-0.3914843797683716,-0.0398142300546169,-0.0812263563275337
2024-12-07 16:12:55.923216600,0.837216552734375,-0.3563306927680969,0.0251668542623519,-0.0982705727219581
2024-12-07 16:12:55.933244700,0.84724462890625,-0.3126548826694488,0.0954742506146431,-0.0833568796515464
2024-12-07 16:12:55.943272700,0.857272705078125,-0.2572611570358276,0.14554163813591,-0.0609863437712192
2024-12-07 16:12:55.953300700,0.86730078125,-0.2135853618383407,0.1934785097837448,-0.038615807890892
2024-12-07 16:12:55.963328800,0.877328857421875,-0.1763011366128921,0.1998700946569442,-0.0343547537922859
2024-12-07 16:12:55.973356500,0.8873564453125,-0.1794969290494918,0.1700427085161209,-0.0258326437324285
2024-12-07 16:12:55.983384600,0.897384521484375,-0.2146506309509277,0.0997353047132492,-0.0173105336725711
2024-12-07 16:12:55.993412600,0.90741259765625,-0.2231727391481399,0.0443415977060794,-0.0119842160493135
2024-12-07 16:12:56.003440600,0.917440673828125,-0.2561959028244018,0.0123836901038885,-0.0183757971972227
2024-12-07 16:12:56.013468700,0.92746875,-0.2817622423171997,-0.0089215831831097,-0.0237021166831254
2024-12-07 16:12:56.023496700,0.93749658203125,-0.2881538271903991,-0.0227700099349021,-0.0279631707817316
2024-12-07 16:12:56.033524700,0.947524658203125,-0.2647180259227752,-0.032357383519411,-0.0258326437324285
2024-12-07 16:12:56.043552800,0.957552734375,-0.2370211631059646,-0.0035952648613601,-0.0194410607218742
2024-12-07 16:12:56.053580800,0.967580810546875,-0.221042200922966,0.0347542278468608,-0.0322242267429828
2024-12-07 16:12:56.063608800,0.97760888671875,-0.2157158851623535,0.0752342417836189,-0.0609863437712192
2024-12-07 16:12:56.073636900,0.987636962890625,-0.2306295782327652,0.1263668984174728,-0.0918789878487587
2024-12-07 16:12:56.083665000,0.997664794921875,-0.2444780021905899,0.1892174482345581,-0.1014663651585578
2024-12-07 16:12:56.093693000,1.00769287109375,-0.2625874876976013,0.2083922028541565,-0.0908137261867523
2024-12-07 16:12:56.103721000,1.017720947265625,-0.2966759204864502,0.2265016883611679,-0.076965294778347
2024-12-07 16:12:56.113749000,1.0277490234375,-0.335025429725647,0.2573943138122558,-0.066312663257122
2024-12-07 16:12:56.123777000,1.037777099609375,-0.3723096549510956,0.3202448785305023,-0.05459476262331
2024-12-07 16:12:56.133805000,1.04780517578125,-0.4159854650497436,0.3671164810657501,-0.0450073890388011
2024-12-07 16:12:56.143833000,1.0578330078125,-0.4308991432189941,0.3958786129951477,-0.0439421236515045
2024-12-07 16:12:56.153861000,1.067861083984375,-0.400006502866745,0.401204913854599,-0.0652474015951156
2024-12-07 16:12:56.163889200,1.07788916015625,-0.3510043621063232,0.3564638495445251,-0.1302284747362136
2024-12-07 16:12:56.173917200,1.087917236328125,-0.3073285520076751,0.258459597826004,-0.2090579867362976
2024-12-07 16:12:56.183945200,1.0979453125,-0.2561959028244018,0.2147837877273559,-0.2239716798067093
2024-12-07 16:12:56.193973200,1.10797314453125,-0.198671668767929,0.0166447442024946,-0.2612559199333191
2024-12-07 16:12:56.204001000,1.1180009765625,-0.1603221744298935,-0.3796333372592926,-0.3613906800746918
2024-12-07 16:12:56.214029000,1.128029052734375,-0.0410126484930515,-0.5884249806404114,-0.358194887638092
2024-12-07 16:12:56.224057000,1.13805712890625,0.0857537239789962,-0.6203829050064087,-0.2729738056659698
2024-12-07 16:12:56.234085000,1.148085205078125,0.1912148296833038,-0.6651239991188049,-0.2559295892715454
2024-12-07 16:12:56.244113200,1.158113037109375,0.3499391078948974,-0.4414186179637909,-0.1632516533136367
2024-12-07 16:12:56.254141200,1.16814111328125,0.4415517747402191,-0.3370227813720703,-0.0908137261867523
2024-12-07 16:12:56.264169200,1.178169189453125,0.4660528302192688,-0.3306311964988708,-0.0098536890000104
2024-12-07 16:12:56.274197200,1.188197265625,0.4948149621486664,-0.3157175183296203,0.0657800287008285
2024-12-07 16:12:56.284225300,1.198225341796875,0.5086634159088135,-0.1356879621744156,0.1286305785179138
2024-12-07 16:12:56.294253300,1.20825341796875,0.5044023394584656,0.1125184744596481,0.1808284968137741
2024-12-07 16:12:56.304281300,1.21828125,0.4532696902751922,0.2733732759952545,0.2436790615320205
2024-12-07 16:12:56.314309400,1.228309326171875,0.3573959469795227,0.2904174923896789,0.32676962018013
2024-12-07 16:12:56.324337400,1.23833740234375,0.2295643091201782,0.2190448343753814,0.4066644012928009
2024-12-07 16:12:56.334365400,1.248365478515625,0.1059937328100204,0.2510027587413788,0.4609928429126739
2024-12-07 16:12:56.344393500,1.2583935546875,0.0580568686127662,0.3138532936573028,0.4961465299129486
2024-12-07 16:12:56.354421500,1.26842138671875,0.088949516415596,0.2637858986854553,0.5558013319969177
2024-12-07 16:12:56.364449500,1.278449462890625,0.076166346669197,0.1157142594456672,0.5941507816314697
2024-12-07 16:12:56.374477600,1.2884775390625,0.0474042333662509,-0.0014647374628111,0.6207823753356934
2024-12-07 16:12:56.384505600,1.298505615234375,0.0324905402958393,-0.0408794917166233,0.6538055539131165
2024-12-07 16:12:56.394533600,1.30853369140625,0.0015978955198079,-0.0430100187659263,0.6878939867019653
2024-12-07 16:12:56.404561700,1.318561767578125,-0.0367515943944454,-0.0728374049067497,0.7123950719833374
2024-12-07 16:12:56.414589400,1.32858935546875,-0.0644484534859657,-0.1793637722730636,0.7475487589836121
2024-12-07 16:12:56.424617500,1.338617431640625,-0.0740358233451843,-0.2624543309211731,0.7890940308570862
2024-12-07 16:12:56.434645500,1.3486455078125,-0.077231615781784,-0.1910816729068756,0.8157256245613098
2024-12-07 16:12:56.444673500,1.358673583984375,-0.0729705616831779,-0.0611195005476474,0.8317046165466309
2024-12-07 16:12:56.454701300,1.368701416015625,-0.0793621391057968,0.0731037184596061,0.8317046165466309
2024-12-07 16:12:56.464729300,1.378729248046875,-0.1347558498382568,0.1870869249105453,0.7869635224342346
2024-12-07 16:12:56.474757400,1.38875732421875,-0.2253032624721527,0.1561942845582962,0.7358308434486389
2024-12-07 16:12:56.484785400,1.398785400390625,-0.3211769759654999,-0.1388837546110153,0.6868287324905396
2024-12-07 16:12:56.494813200,1.408813232421875,-0.4426170289516449,-0.539422869682312,0.6495444774627686
2024-12-07 16:12:56.504841200,1.41884130859375,-0.5310339331626892,-1.0283788442611694,0.513190746307373
2024-12-07 16:12:56.514869200,1.428869140625,-0.577905535697937,-1.3255873918533323,0.3086601495742798
2024-12-07 16:12:56.524897300,1.438897216796875,-0.5566002726554871,-1.3447622060775757,0.0668452903628349
2024-12-07 16:12:56.534925000,1.448925048828125,-0.4926844239234924,-1.0901641845703125,-0.0471379160881042
2024-12-07 16:12:56.544953000,1.458953125,-0.4351601898670196,-0.6225134134292603,0.0402137041091918
2024-12-07 16:12:56.554981000,1.468981201171875,-0.3488738536834717,-0.1324921697378158,0.181893765926361
2024-12-07 16:12:56.565009200,1.479009033203125,-0.265783280134201,0.0880174115300178,0.1978727281093597
2024-12-07 16:12:56.575037000,1.489036865234375,-0.2487390637397766,0.0177100077271461,0.0966726765036583
2024-12-07 16:12:56.585065000,1.49906494140625,-0.2498043179512024,-0.0600542388856411,0.0007989477599039
2024-12-07 16:12:56.595093000,1.509093017578125,-0.2061285078525543,-0.1005342528223991,-0.0673779249191284
2024-12-07 16:12:56.605121000,1.51912109375,-0.1358211189508438,-0.1932121962308883,-0.1302284747362136
2024-12-07 16:12:56.615148800,1.529148681640625,-0.1688442826271057,-0.0110521102324128,-0.1515337526798248
2024-12-07 16:12:56.625176800,1.5391767578125,-0.2284990549087524,0.0858868807554245,-0.1536642760038375
2024-12-07 16:12:56.635204900,1.549204833984375,-0.2061285078525543,-0.0249005369842052,-0.1653821766376495
2024-12-07 16:12:56.645233000,1.55923291015625,-0.1603221744298935,-0.1090563684701919,-0.1941442936658859
2024-12-07 16:12:56.655260700,1.5692607421875,-0.1113200485706329,-0.1303616315126419,-0.2292979955673217
2024-12-07 16:12:56.665288700,1.579288818359375,-0.0633831843733787,-0.1740374416112899,-0.2729738056659698
2024-12-07 16:12:56.675316700,1.589316650390625,-0.0207726415246725,-0.2326269447803497,-0.3251717388629913
2024-12-07 16:12:56.685344800,1.5993447265625,0.0133157959207892,-0.3061301410198211,-0.3688475489616394
2024-12-07 16:12:56.695372500,1.60937255859375,0.0314252786338329,-0.4350270330905914,-0.4029359817504883
2024-12-07 16:12:56.705400600,1.619400634765625,0.0367515943944454,-0.5884249806404114,-0.4231759905815124
2024-12-07 16:12:56.715428600,1.6294287109375,0.0165115855634212,-0.7087997794151306,-0.416784405708313
2024-12-07 16:12:56.725456600,1.63945654296875,-0.0037284228019416,-0.7450187802314758,-0.3731085956096649
2024-12-07 16:12:56.735484400,1.649484375,-0.0047936863265931,-0.673646092414856,-0.303866446018219
2024-12-07 16:12:56.745512400,1.659512451171875,0.0122505314648151,-0.5149217844009399,-0.2324937880039215
2024-12-07 16:12:56.755540500,1.66954052734375,0.0484694950282573,-0.329565942287445,-0.1898832470178604
2024-12-07 16:12:56.765568500,1.679568603515625,0.1081242561340332,-0.1548627018928527,-0.1877527236938476
2024-12-07 16:12:56.775596300,1.68959619140625,0.1805621832609176,-0.018508955836296,-0.2186453640460968
2024-12-07 16:12:56.785624300,1.699624267578125,0.2775011658668518,0.0752342417836189,-0.2612559199333191
2024-12-07 16:12:56.795652400,1.70965234375,0.3818970024585724,0.0752342417836189,-0.2964096069335937
2024-12-07 16:12:56.805680400,1.719680419921875,0.4671181142330169,0.0762995108962059,-0.2729738056659698
2024-12-07 16:12:56.815708200,1.729708251953125,0.523577094078064,0.1434111148118972,-0.1728390306234359
2024-12-07 16:12:56.825736200,1.739736083984375,0.5597960352897644,0.191347986459732,-0.0844221413135528
2024-12-07 16:12:56.835764200,1.74976416015625,0.5821665525436401,0.1519332230091095,-0.0226368531584739
2024-12-07 16:12:56.845792300,1.759792236328125,0.5725792050361633,0.080560564994812,0.0657800287008285
2024-12-07 16:12:56.855820300,1.7698203125,0.5150549411773682,-0.0451405458152294,0.1392832249403
2024-12-07 16:12:56.865848300,1.779848388671875,0.4223770201206207,-0.218778520822525,0.1563274413347244
2024-12-07 16:12:56.875876400,1.78987646484375,0.3020022511482239,-0.4009386003017425,0.1094558387994766
2024-12-07 16:12:56.885904400,1.799904296875,0.1667137593030929,-0.5372923612594604,0.0391484387218952
2024-12-07 16:12:56.895932400,1.809932373046875,0.0186421144753694,-0.6118608117103577,-0.02689790725708
2024-12-07 16:12:56.905960400,1.81996044921875,-0.0814926698803901,-0.6193176507949829,-0.0482031814754009
2024-12-07 16:12:56.915988500,1.829988525390625,-0.115581102669239,-0.6384924054145813,-0.0876179337501525
2024-12-07 16:12:56.926016500,1.8400166015625,-0.104928471148014,-0.6480797529220581,-0.1771000772714615
2024-12-07 16:12:56.936044500,1.85004443359375,-0.0633831843733787,-0.6246439814567566,-0.282561182975769
2024-12-07 16:12:56.946072600,1.860072509765625,-0.0090547408908605,-0.4925512671470642,-0.3379548788070678
2024-12-07 16:12:56.956100600,1.8701005859375,0.0069242138415575,-0.4041343927383423,-0.3624559640884399
2024-12-07 16:12:56.966128600,1.880128662109375,0.0058589498512446,-0.3668501675128937,-0.3656517565250397
2024-12-07 16:12:56.976156700,1.89015673828125,0.0037284228019416,-0.3348922431468963,-0.3507380485534668
2024-12-07 16:12:56.986184700,1.900184814453125,-0.0090547408908605,-0.2912164330482483,-0.3187801539897918
2024-12-07 16:12:56.996212700,1.910212646484375,-0.0484694950282573,-0.2230395674705505,-0.2623211741447449
2024-12-07 16:12:57.006240800,1.92024072265625,-0.116646371781826,-0.1846900880336761,-0.2069274634122848
2024-12-07 16:12:57.016268800,1.930268798828125,-0.1976063996553421,-0.1900164037942886,-0.15899059176445
2024-12-07 16:12:57.026296800,1.940296875,-0.2711096107959747,-0.2443448454141616,-0.1238368973135948
2024-12-07 16:12:57.036324900,1.950324951171875,-0.3211769759654999,-0.3167827725410461,-0.1089232042431831
2024-12-07 16:12:57.046352600,1.9603525390625,-0.3446127772331238,-0.3253048956394195,-0.1131842583417892
2024-12-07 16:12:57.056380700,1.970380615234375,-0.3137201368808746,-0.2805638015270233,-0.1195758432149887
2024-12-07 16:12:57.066408700,1.98040869140625,-0.2167811542749405,-0.2571280002593994,-0.1110537350177764
2024-12-07 16:12:57.076436700,1.990436767578125,-0.1006674170494079,-0.3157175183296203,-0.0748347714543342
2024-12-07 16:12:57.086464800,2.00046484375,-0.0367515943944454,-0.3444796204566955,-0.038615807890892
2024-12-07 16:12:57.096492800,2.010492919921875,-0.0335558056831359,-0.2390185296535492,-0.0535294972360134
2024-12-07 16:12:57.106520800,2.020520751953125,-0.0058589498512446,-0.1655153334140777,-0.0950747802853584
2024-12-07 16:12:57.116548900,2.030548828125,0.0292947497218847,-0.1921469271183014,-0.1334242671728134
2024-12-07 16:12:57.126577000,2.040576904296875,0.0410126484930515,-0.2592585384845733,-0.1696432381868362
2024-12-07 16:12:57.136605000,2.05060498046875,0.0410126484930515,-0.3796333372592926,-0.2016011476516723
2024-12-07 16:12:57.146633000,2.060633056640625,0.0420779138803482,-0.530900776386261,-0.2016011476516723
2024-12-07 16:12:57.156661000,2.070660888671875,0.037816859781742,-0.6374271512031555,-0.171773761510849
2024-12-07 16:12:57.166689000,2.08068896484375,0.0335558056831359,-0.682168185710907,-0.1440769135951995
2024-12-07 16:12:57.176717000,2.090717041015625,0.0303600132465362,-0.6629934310913086,-0.1430116444826126
2024-12-07 16:12:57.186745000,2.1007451171875,0.076166346669197,-0.5617933869361877,-0.1153147891163826
2024-12-07 16:12:57.196773000,2.110773193359375,0.1187768951058387,-0.4936165511608124,-0.120641104876995
2024-12-07 16:12:57.206801200,2.12080126953125,0.1592569202184677,-0.4254396557807922,-0.1685779690742492
2024-12-07 16:12:57.216829200,2.1308291015625,0.2008021920919418,-0.3221091032028198,-0.2069274634122848
2024-12-07 16:12:57.226857200,2.140857177734375,0.2263685166835785,-0.2326269447803497,-0.2292979955673217
2024-12-07 16:12:57.236885200,2.15088525390625,0.2316948473453521,-0.1719069182872772,-0.226102203130722
2024-12-07 16:12:57.246913300,2.160913330078125,0.2125200927257537,-0.1314269006252288,-0.2058621942996978
2024-12-07 16:12:57.256941300,2.17094140625,0.1826927214860916,-0.1367532163858413,-0.1888179779052734
2024-12-07 16:12:57.266969300,2.18096923828125,0.1528653353452682,-0.1793637722730636,-0.1760348230600357
2024-12-07 16:12:57.276997000,2.1909970703125,0.1272990107536316,-0.218778520822525,-0.1515337526798248
2024-12-07 16:12:57.287025200,2.201025146484375,0.1145158410072326,-0.2390185296535492,-0.1376853287220001
2024-12-07 16:12:57.297053200,2.21105322265625,0.116646371781826,-0.2145174592733383,-0.1557948142290115
2024-12-07 16:12:57.307081200,2.221081298828125,0.1241032108664512,-0.2006690353155136,-0.1728390306234359
2024-12-07 16:12:57.317109200,2.231109130859375,0.132625326514244,-0.2145174592733383,-0.171773761510849
2024-12-07 16:12:57.327137300,2.24113720703125,0.116646371781826,-0.2507364153861999,-0.1739042848348617
2024-12-07 16:12:57.337165300,2.251165283203125,0.104928471148014,-0.2518016993999481,-0.15899059176445
2024-12-07 16:12:57.347193300,2.261193359375,0.1059937328100204,-0.2400837987661361,-0.1398158520460128
2024-12-07 16:12:57.357221400,2.271221435546875,0.115581102669239,-0.2113216817378997,-0.1387505829334259
2024-12-07 16:12:57.367249400,2.28124951171875,0.1400821655988693,-0.1772332340478897,-0.1504684835672378
2024-12-07 16:12:57.377277400,2.29127734375,0.1645832359790802,-0.1676458716392517,-0.1749695539474487
2024-12-07 16:12:57.387305200,2.30130517578125,0.1773663908243179,-0.1569932252168655,-0.2143843024969101
2024-12-07 16:12:57.397333200,2.311333251953125,0.1699095517396927,-0.1378184854984283,-0.2420811653137207
2024-12-07 16:12:57.407361300,2.321361328125,0.1390169113874435,-0.1367532163858413,-0.2559295892715454
2024-12-07 16:12:57.417389300,2.331389404296875,0.0708400309085846,-0.1292963773012161,-0.2591253817081451
2024-12-07 16:12:57.427417000,2.3414169921875,-0.0015978955198079,-0.1346226930618286,-0.2495380043983459
2024-12-07 16:12:57.437445000,2.351445068359375,-0.0569916032254695,-0.1601890176534652,-0.2143843024969101
2024-12-07 16:12:57.447473200,2.36147314453125,-0.0974716246128082,-0.1484711170196533,-0.1877527236938476
2024-12-07 16:12:57.457501200,2.371501220703125,-0.116646371781826,-0.1143826842308044,-0.1792306005954742
2024-12-07 16:12:57.467529000,2.381529052734375,-0.1358211189508438,-0.0749679282307624,-0.1866874545812606
2024-12-07 16:12:57.477557000,2.391556884765625,-0.143277958035469,-0.0131826372817158,-0.1984053552150726
2024-12-07 16:12:57.487585000,2.4015849609375,-0.1272990107536316,-0.0046605286188423,-0.1898832470178604
2024-12-07 16:12:57.497613000,2.411613037109375,-0.1336905807256698,-0.0494015999138355,-0.1802958697080612
2024-12-07 16:12:57.507640800,2.421640869140625,-0.1731053441762924,-0.1143826842308044,-0.1781653463840484
2024-12-07 16:12:57.517668900,2.4316689453125,-0.1965411454439163,-0.151666909456253,-0.1568600684404373
2024-12-07 16:12:57.527697000,2.44169677734375,-0.2082590460777282,-0.1719069182872772,-0.1238368973135948
2024-12-07 16:12:57.537725000,2.451724853515625,-0.2071937769651413,-0.1665806025266647,-0.0993358343839645
2024-12-07 16:12:57.547752700,2.461752685546875,-0.1954758763313293,-0.1303616315126419,-0.0822916179895401
2024-12-07 16:12:57.557780700,2.47178076171875,-0.1805621832609176,-0.0717721357941627,-0.0641821324825286
2024-12-07 16:12:57.567808800,2.481808837890625,-0.1603221744298935,-0.0099868467077612,-0.0439421236515045
2024-12-07 16:12:57.577836800,2.4918369140625,-0.1475390195846557,0.0336889624595642,-0.038615807890892
2024-12-07 16:12:57.587864600,2.501864501953125,-0.1358211189508438,0.0635163411498069,-0.0460726507008075
2024-12-07 16:12:57.597892600,2.511892578125,-0.1368863731622696,0.0901479348540306,-0.0609863437712192
2024-12-07 16:12:57.607920600,2.521920654296875,-0.1571263819932937,0.146606907248497,-0.0844221413135528
2024-12-07 16:12:57.617948700,2.53194873046875,-0.1507348120212555,0.1838911324739456,-0.0993358343839645
2024-12-07 16:12:57.627976400,2.5419765625,-0.1347558498382568,0.2062616795301437,-0.120641104876995
2024-12-07 16:12:57.638004500,2.55200439453125,-0.1454084813594818,0.2733732759952545,-0.1749695539474487
2024-12-07 16:12:57.648032500,2.562032470703125,-0.1603221744298935,0.3713775277137756,-0.228232741355896
2024-12-07 16:12:57.658060500,2.572060546875,-0.1560611277818679,0.447011262178421,-0.2452769577503204
2024-12-07 16:12:57.668088300,2.58208837890625,-0.1709748208522796,0.5514070987701416,-0.2527337968349457
2024-12-07 16:12:57.678116400,2.592116455078125,-0.2039979845285415,0.6930871605873108,-0.2474074810743332
2024-12-07 16:12:57.688144400,2.602144287109375,-0.2530001103878021,0.8028092980384827,-0.2005358785390854
2024-12-07 16:12:57.698172400,2.61217236328125,-0.3009369671344757,0.8677904009819031,-0.1355548053979873
2024-12-07 16:12:57.708200200,2.6222001953125,-0.3552654385566711,0.9029440879821776,-0.0950747802853584
2024-12-07 16:12:57.718228200,2.632228271484375,-0.3701791167259216,0.8752472400665283,-0.0854874104261398
2024-12-07 16:12:57.728256300,2.64225634765625,-0.3669833242893219,0.8368977308273315,-0.0961400419473648
2024-12-07 16:12:57.738284300,2.6522841796875,-0.3531349003314972,0.804939866065979,-0.1089232042431831
2024-12-07 16:12:57.748312000,2.66231201171875,-0.3659180700778961,0.7293061017990112,-0.1249021589756012
2024-12-07 16:12:57.758340000,2.672340087890625,-0.3616569936275482,0.6014744639396667,-0.1355548053979873
2024-12-07 16:12:57.768368000,2.6823681640625,-0.322242259979248,0.4885565340518951,-0.1270326822996139
2024-12-07 16:12:57.778396200,2.692396240234375,-0.2593916952610016,0.4203796684741974,-0.104662150144577
2024-12-07 16:12:57.788424200,2.702424072265625,-0.199736937880516,0.4225101768970489,-0.0844221413135528
2024-12-07 16:12:57.798452000,2.712451904296875,-0.1624527126550674,0.4821649491786957,-0.0737695097923278
2024-12-07 16:12:57.808480000,2.72247998046875,-0.1315600574016571,0.5194491744041443,-0.0471379160881042
2024-12-07 16:12:57.818508000,2.732508056640625,-0.1251684725284576,0.5194491744041443,-0.0045273704454302
2024-12-07 16:12:57.828536000,2.7425361328125,-0.142212688922882,0.4992091655731201,0.0508663393557071
2024-12-07 16:12:57.838563800,2.752563720703125,-0.1635179668664932,0.4757733643054962,0.1233042627573013
2024-12-07 16:12:57.848592000,2.762591796875,-0.1816274523735046,0.4395544230937958,0.2074600905179977
2024-12-07 16:12:57.858620000,2.772619873046875,-0.2018674612045288,0.3916175365447998,0.3225085735321045
2024-12-07 16:12:57.868648000,2.78264794921875,-0.2338253706693649,0.3308975100517273,0.4599275887012481
2024-12-07 16:12:57.878675700,2.79267578125,-0.2604569494724273,0.2520680129528045,0.5696497559547424
2024-12-07 16:12:57.888703700,2.802703857421875,-0.2604569494724273,0.1945437788963318,0.6601971387863159
2024-12-07 16:12:57.898731800,2.812731689453125,-0.2412822097539901,0.1657816469669342,0.7528750896453857
2024-12-07 16:12:57.908759800,2.822759765625,-0.2135853618383407,0.1391500681638717,0.8689888119697571
2024-12-07 16:12:57.918787800,2.832787841796875,-0.2018674612045288,0.1167795285582542,0.94462251663208
2024-12-07 16:12:57.928815900,2.84281591796875,-0.1826927214860916,0.1679121851921081,0.9147951602935792
2024-12-07 16:12:57.938844000,2.852843994140625,-0.1070589944720268,0.2456764280796051,0.72304767370224
2024-12-07 16:12:57.948872000,2.862871826171875,0.0623179227113723,0.3085269927978515,0.3544664680957794
2024-12-07 16:12:57.958900000,2.87289990234375,0.2455432713031768,0.5173186659812927,-0.0620516054332256
2024-12-07 16:12:57.968928000,2.882927978515625,0.4298338890075683,0.9412935972213744,-0.3209106624126434
2024-12-07 16:12:57.978956000,2.8929560546875,0.6279729008674622,1.3428980112075806,-0.3635212182998657
2024-12-07 16:12:57.988984000,2.902984130859375,0.7632613778114319,1.5154707431793213,-0.2964096069335937
2024-12-07 16:12:57.999012000,2.91301220703125,0.8314382433891296,1.4739253520965576,-0.1483379602432251
2024-12-07 16:12:58.009040100,2.9230400390625,0.7526087760925293,1.1777820587158203,0.0434094928205013
2024-12-07 16:12:58.019068200,2.933068115234375,0.5384907722473145,0.700543999671936,0.2585927546024322
2024-12-07 16:12:58.029096200,2.94309619140625,0.2647180259227752,0.1828258782625198,0.4716454744338989
2024-12-07 16:12:58.039124200,2.953124267578125,0.0207726415246725,-0.2400837987661361,0.6527402997016907
2024-12-07 16:12:58.049152300,2.96315234375,-0.1358211189508438,-0.5458144545555115,0.7709845304489136
2024-12-07 16:12:58.059180000,2.973179931640625,-0.2988064587116241,-0.7056040167808533,0.7976161241531372
2024-12-07 16:12:58.069208000,2.9832080078125,-0.4298338890075683,-0.7024081945419312,0.7922898530960083
2024-12-07 16:12:58.079236000,2.993236083984375,-0.4724444150924682,-0.6075997352600098,0.7816371917724609
2024-12-07 16:12:58.089264000,3.00326416015625,-0.4511391520500183,-0.4691154658794403,0.739026665687561
2024-12-07 16:12:58.099292200,3.013292236328125,-0.3936149179935455,-0.3039996027946472,0.6740455627441406
2024-12-07 16:12:58.109320200,3.0233203125,-0.3158506751060486,-0.1474058628082275,0.5984118580818176
2024-12-07 16:12:58.119348200,3.03334814453125,-0.2221074700355529,-0.0515321269631385,0.5334307551383972
2024-12-07 16:12:58.129376300,3.043376220703125,-0.1219726875424385,-0.0334226451814174,0.5004075765609741
2024-12-07 16:12:58.139404300,3.053404296875,-0.035686332732439,-0.0536626577377319,0.4993423223495483
2024-12-07 16:12:58.149432300,3.063432373046875,0.0484694950282573,-0.09733846783638,0.5206475853919983
2024-12-07 16:12:58.159460400,3.07346044921875,0.1304948031902313,-0.1729721873998642,0.5302349925041199
2024-12-07 16:12:58.169488400,3.08348828125,0.2050632536411285,-0.2507364153861999,0.5238434076309204
2024-12-07 16:12:58.179516400,3.093516357421875,0.2711096107959747,-0.2805638015270233,0.5004075765609741
2024-12-07 16:12:58.189544400,3.10354443359375,0.3286338448524475,-0.2912164330482483,0.4599275887012481
2024-12-07 16:12:58.199572500,3.113572509765625,0.3691138625144958,-0.3231743574142456,0.4141212403774261
2024-12-07 16:12:58.209600500,3.1236005859375,0.4074633419513702,-0.3775027990341186,0.3470096290111542
2024-12-07 16:12:58.219628500,3.133628662109375,0.4479433596134186,-0.4137217700481415,0.2607232630252838
2024-12-07 16:12:58.229656600,3.143656494140625,0.4735096991062164,-0.3934817612171173,0.181893765926361
2024-12-07 16:12:58.239684600,3.1536845703125,0.4735096991062164,-0.3242396116256714,0.1137168928980827
2024-12-07 16:12:58.249712600,3.163712646484375,0.462857037782669,-0.283759593963623,0.046605285257101
2024-12-07 16:12:58.259740700,3.17374072265625,0.4522044062614441,-0.2922817170619964,-0.0098536890000104
2024-12-07 16:12:58.269768700,3.183768798828125,0.4330296814441681,-0.3071953952312469,-0.0354200154542923
2024-12-07 16:12:58.279796700,3.193796630859375,0.4053328037261963,-0.350871205329895,-0.0450073890388011
2024-12-07 16:12:58.289824500,3.203824462890625,0.3776359558105469,-0.4424838721752167,-0.0577905513346195
2024-12-07 16:12:58.299852500,3.2138525390625,0.3552654385566711,-0.5788376331329346,-0.066312663257122
2024-12-07 16:12:58.309880600,3.223880615234375,0.3296990990638733,-0.7205176949501038,-0.0567252896726131
2024-12-07 16:12:58.319908600,3.23390869140625,0.3051980435848236,-0.8472840785980225,-0.0396810695528984
2024-12-07 16:12:58.329936600,3.2439365234375,0.2966759204864502,-0.8675240874290466,-0.0141147430986166
2024-12-07 16:12:58.339964700,3.253964599609375,0.2945453822612762,-0.8153261542320251,-0.0226368531584739
2024-12-07 16:12:58.349992400,3.263992431640625,0.287088543176651,-0.7418229579925537,-0.05459476262331
2024-12-07 16:12:58.360020500,3.2740205078125,0.2743053734302521,-0.6917555928230286,-0.0897484645247459
2024-12-07 16:12:58.370048500,3.284048583984375,0.2615222334861755,-0.6416881680488586,-0.1163800507783889
2024-12-07 16:12:58.380076500,3.29407666015625,0.2402169555425644,-0.5969471335411072,-0.1557948142290115
2024-12-07 16:12:58.390104300,3.304104248046875,0.2125200927257537,-0.5862944722175598,-0.1856221854686737
2024-12-07 16:12:58.400132400,3.31413232421875,0.1741705983877182,-0.6193176507949829,-0.1824263930320739
2024-12-07 16:12:58.410160400,3.324160400390625,0.1368863731622696,-0.6502103209495544,-0.1536642760038375
2024-12-07 16:12:58.420188400,3.3341884765625,0.1198421567678451,-0.6651239991188049,-0.1078579425811767
2024-12-07 16:12:58.430216200,3.34421630859375,0.1262337416410446,-0.6651239991188049,-0.0556600242853164
2024-12-07 16:12:58.440244200,3.354244140625,0.1486042737960815,-0.631035566329956,-0.0162452701479196
2024-12-07 16:12:58.450272300,3.364272216796875,0.1699095517396927,-0.5681849718093872,0.0007989477599039
2024-12-07 16:12:58.460300300,3.37430029296875,0.1741705983877182,-0.474441796541214,-0.0034621069207787
2024-12-07 16:12:58.470328000,3.384328125,0.1560611277818679,-0.3700459599494934,-0.0098536890000104
2024-12-07 16:12:58.480356000,3.394356201171875,0.1315600574016571,-0.3061301410198211,-0.0034621069207787
2024-12-07 16:12:58.490384100,3.404384033203125,0.1070589944720268,-0.3061301410198211,0.0103863207623362
2024-12-07 16:12:58.500412200,3.414412109375,0.087884247303009,-0.3125217258930206,0.0253000110387802
2024-12-07 16:12:58.510440000,3.42443994140625,0.0655137151479721,-0.2997385561466217,0.0157126393169164
2024-12-07 16:12:58.520468000,3.434468017578125,0.0324905402958393,-0.3082606792449951,-0.0173105336725711
2024-12-07 16:12:58.530496000,3.44449609375,-0.0047936863265931,-0.3487406969070434,-0.0620516054332256
2024-12-07 16:12:58.540524000,3.45452392578125,-0.0431431792676448,-0.4147870242595672,-0.1110537350177764
2024-12-07 16:12:58.550551800,3.4645517578125,-0.088949516415596,-0.4648544192314148,-0.1643169224262237
2024-12-07 16:12:58.560579800,3.474579833984375,-0.1336905807256698,-0.4957470595836639,-0.2016011476516723
2024-12-07 16:12:58.570607900,3.48460791015625,-0.1667137593030929,-0.5170523524284363,-0.2069274634122848
2024-12-07 16:12:58.580636000,3.494635986328125,-0.1677790284156799,-0.5447492003440857,-0.1877527236938476
2024-12-07 16:12:58.590663700,3.50466357421875,-0.1528653353452682,-0.5596628785133362,-0.1536642760038375
2024-12-07 16:12:58.600691700,3.514691650390625,-0.1336905807256698,-0.5543365478515625,-0.1270326822996139
2024-12-07 16:12:58.610719700,3.5247197265625,-0.1219726875424385,-0.5436839461326599,-0.1025316268205642
2024-12-07 16:12:58.620747800,3.534747802734375,-0.1241032108664512,-0.5362271070480347,-0.0737695097923278
2024-12-07 16:12:58.630775600,3.544775634765625,-0.132625326514244,-0.52237868309021,-0.0567252896726131
2024-12-07 16:12:58.640803600,3.554803466796875,-0.1347558498382568,-0.4669849574565887,-0.0588558167219162
2024-12-07 16:12:58.650831600,3.56483154296875,-0.1262337416410446,-0.396677553653717,-0.0567252896726131
2024-12-07 16:12:58.660859600,3.574859619140625,-0.1081242561340332,-0.34021857380867,-0.0450073890388011
2024-12-07 16:12:58.670887700,3.5848876953125,-0.077231615781784,-0.2773680090904236,-0.0375505425035953
2024-12-07 16:12:58.680915500,3.59491552734375,-0.0367515943944454,-0.2113216817378997,-0.0588558167219162
2024-12-07 16:12:58.690943500,3.604943603515625,0.0111852679401636,-0.150601640343666,-0.1153147891163826
2024-12-07 16:12:58.700971500,3.614971435546875,0.0591221302747726,-0.0866858288645744,-0.1728390306234359
2024-12-07 16:12:58.710999600,3.62499951171875,0.0868189856410026,-0.0270310640335083,-0.2090579867362976
2024-12-07 16:12:58.721027300,3.63502734375,0.0868189856410026,0.0251668542623519,-0.2143843024969101
2024-12-07 16:12:58.731055400,3.645055419921875,0.0687095075845718,0.0368847548961639,-0.1973400861024856
2024-12-07 16:12:58.741083400,3.65508349609375,0.0420779138803482,0.0219710618257522,-0.1728390306234359
2024-12-07 16:12:58.751111400,3.665111328125,0.0143810594454407,0.0006657897611148,-0.1515337526798248
2024-12-07 16:12:58.761139200,3.67513916015625,-0.0282294861972332,-0.0206394828855991,-0.1408811211585998
2024-12-07 16:12:58.771167200,3.685167236328125,-0.0708400309085846,-0.0376837030053138,-0.1504684835672378
2024-12-07 16:12:58.781195300,3.6951953125,-0.1070589944720268,-0.0707068741321563,-0.1760348230600357
2024-12-07 16:12:58.791223300,3.705223388671875,-0.1294295340776443,-0.1005342528223991,-0.2133190482854843
2024-12-07 16:12:58.801251000,3.7152509765625,-0.1475390195846557,-0.113317422568798,-0.2442116886377334
2024-12-07 16:12:58.811279000,3.725279052734375,-0.1560611277818679,-0.09733846783638,-0.2601906359195709
2024-12-07 16:12:58.821307100,3.73530712890625,-0.142212688922882,0.0475373901426792,-0.2964096069335937
2024-12-07 16:12:58.831335200,3.745335205078125,-0.1304948031902313,0.2360890507698059,-0.3518033027648926
2024-12-07 16:12:58.841363000,3.755363037109375,-0.1272990107536316,0.3319627940654754,-0.3731085956096649
2024-12-07 16:12:58.851391000,3.765390869140625,-0.1390169113874435,0.266981691122055,-0.3315632939338684
2024-12-07 16:12:58.861419000,3.7754189453125,-0.1645832359790802,0.0997353047132492,-0.2431464195251464
2024-12-07 16:12:58.871447000,3.785447021484375,-0.1688442826271057,0.1039963662624359,-0.1824263930320739
2024-12-07 16:12:58.881474800,3.795474853515625,-0.1560611277818679,0.2435459047555923,-0.2079927325248718
2024-12-07 16:12:58.891502800,3.8055029296875,-0.1219726875424385,0.3117227852344513,-0.2601906359195709
2024-12-07 16:12:58.901531000,3.81553076171875,-0.0836231932044029,0.2786996066570282,-0.2697780132293701
2024-12-07 16:12:58.911559000,3.825558837890625,-0.0623179227113723,0.2275669425725937,-0.2314285188913345
2024-12-07 16:12:58.921586700,3.835586669921875,-0.0527305491268634,0.1934785097837448,-0.1802958697080612
2024-12-07 16:12:58.931614700,3.84561474609375,-0.0442084409296512,0.1700427085161209,-0.1483379602432251
2024-12-07 16:12:58.941642800,3.855642822265625,-0.0324905402958393,0.1423458606004715,-0.1440769135951995
2024-12-07 16:12:58.951670800,3.8656708984375,-0.0260989591479301,0.0954742506146431,-0.15899059176445
2024-12-07 16:12:58.961698800,3.87569873046875,-0.0260989591479301,0.04114580899477,-0.1792306005954742
2024-12-07 16:12:58.971726800,3.885726806640625,-0.0367515943944454,-0.018508955836296,-0.1920137703418731
2024-12-07 16:12:58.981754600,3.895754638671875,-0.0591221302747726,-0.1069258376955986,-0.1824263930320739
2024-12-07 16:12:58.991782700,3.90578271484375,-0.077231615781784,-0.2049300968647003,-0.1547295451164245
2024-12-07 16:12:59.001810700,3.915810791015625,-0.0825579315423965,-0.2571280002593994,-0.1366200596094131
2024-12-07 16:12:59.011838700,3.925838623046875,-0.0697747692465782,-0.2443448454141616,-0.1270326822996139
2024-12-07 16:12:59.021866800,3.93586669921875,-0.0410126484930515,-0.1836248189210891,-0.1238368973135948
2024-12-07 16:12:59.031894800,3.945894775390625,-0.007989477366209,-0.084555298089981,-0.1430116444826126
2024-12-07 16:12:59.041922800,3.9559228515625,0.0197073780000209,0.0390152819454669,-0.171773761510849
2024-12-07 16:12:59.051950800,3.965950927734375,0.0207726415246725,0.135954275727272,-0.2122537791728973
2024-12-07 16:12:59.061979000,3.975978759765625,-0.0090547408908605,0.1583248078823089,-0.2346243113279342
2024-12-07 16:12:59.072007000,3.9860068359375,-0.0665789768099784,0.12423637509346,-0.2229064106941223
2024-12-07 16:12:59.082035000,3.996034912109375,-0.1241032108664512,0.068842664361,-0.2101232558488845
2024-12-07 16:12:59.092063000,4.00606298828125,-0.1720400750637054,0.0592552907764911,-0.2037316709756851
2024-12-07 16:12:59.102091000,4.016091064453125,-0.2050632536411285,0.0944089889526367,-0.2005358785390854
2024-12-07 16:12:59.112119000,4.026119140625,-0.2306295782327652,0.1423458606004715,-0.2079927325248718
2024-12-07 16:12:59.122147000,4.03614697265625,-0.2359558939933776,0.1774995476007461,-0.2143843024969101
2024-12-07 16:12:59.132175000,4.046175048828125,-0.2295643091201782,0.2094574570655822,-0.2239716798067093
2024-12-07 16:12:59.142203100,4.056203125,-0.2284990549087524,0.2435459047555923,-0.2335590571165084
2024-12-07 16:12:59.152231200,4.066231201171875,-0.2370211631059646,0.2701774835586548,-0.227167472243309
2024-12-07 16:12:59.162259200,4.07625927734375,-0.2498043179512024,0.3170490860939026,-0.2079927325248718
2024-12-07 16:12:59.172287200,4.086287353515625,-0.2434127479791641,0.3575291037559509,-0.1898832470178604
2024-12-07 16:12:59.182315300,4.096315185546875,-0.2306295782327652,0.4193144142627716,-0.1845569312572479
2024-12-07 16:12:59.192343300,4.10634326171875,-0.2242379933595657,0.511992335319519,-0.1984053552150726
2024-12-07 16:12:59.202371000,4.11637109375,-0.2189116775989532,0.5897566080093384,-0.2090579867362976
2024-12-07 16:12:59.212399000,4.126399169921875,-0.2231727391481399,0.6440850496292114,-0.2143843024969101
2024-12-07 16:12:59.222427100,4.13642724609375,-0.2231727391481399,0.692021906375885,-0.215449571609497
2024-12-07 16:12:59.232455200,4.146455078125,-0.2082590460777282,0.7356976866722107,-0.2069274634122848
2024-12-07 16:12:59.242483200,4.156483154296875,-0.1922800838947296,0.7953524589538574,-0.1952095627784729
2024-12-07 16:12:59.252511200,4.16651123046875,-0.1752358675003051,0.8496809005737305,-0.1866874545812606
2024-12-07 16:12:59.262539300,4.176539306640625,-0.1677790284156799,0.889095664024353,-0.1930790394544601
2024-12-07 16:12:59.272567300,4.1865673828125,-0.1699095517396927,0.901878833770752,-0.2111885100603103
2024-12-07 16:12:59.282595300,4.19659521484375,-0.1837579756975174,0.8539419770240784,-0.2335590571165084
2024-12-07 16:12:59.292623400,4.206623291015625,-0.199736937880516,0.7687208652496338,-0.2527337968349457
2024-12-07 16:12:59.302651400,4.2166513671875,-0.2295643091201782,0.6792387366294861,-0.2644517123699188
2024-12-07 16:12:59.312679400,4.226679443359375,-0.2743053734302521,0.616388201713562,-0.2452769577503204
2024-12-07 16:12:59.322707500,4.23670751953125,-0.3179811835289001,0.5759081840515137,-0.1877527236938476
2024-12-07 16:12:59.332735500,4.246735595703125,-0.3424822688102722,0.5524723529815674,-0.1270326822996139
2024-12-07 16:12:59.342763500,4.256763427734375,-0.3563306927680969,0.5194491744041443,-0.105727419257164
2024-12-07 16:12:59.352791600,4.26679150390625,-0.3755054473876953,0.4885565340518951,-0.1355548053979873
2024-12-07 16:12:59.362819600,4.276819580078125,-0.3957454562187195,0.4736428558826446,-0.1930790394544601
2024-12-07 16:12:59.372847400,4.286847412109375,-0.4010717570781708,0.4853607416152954,-0.2729738056659698
2024-12-07 16:12:59.382875400,4.29687548828125,-0.3595264852046966,0.5151881575584412,-0.3518033027648926
2024-12-07 16:12:59.392903400,4.3069033203125,-0.2817622423171997,0.524775505065918,-0.3837612271308899
2024-12-07 16:12:59.402931500,4.316931396484375,-0.1858884990215301,0.5833650231361389,-0.4338286221027374
2024-12-07 16:12:59.412959200,4.326959228515625,-0.0623179227113723,0.7048050761222839,-0.4700475931167602
2024-12-07 16:12:59.422987300,4.3369873046875,0.0846884623169899,0.7474156022071838,-0.347542256116867
2024-12-07 16:12:59.433015300,4.347015380859375,0.1123853176832199,0.5460807681083679,0.0157126393169164
2024-12-07 16:12:59.443043300,4.357043212890625,0.0090547408908605,0.3298322558403015,0.2085253596305847
2024-12-07 16:12:59.453071000,4.367071044921875,-0.0740358233451843,0.1146489977836608,0.0817589834332466
2024-12-07 16:12:59.463099100,4.37709912109375,-0.0548610761761665,0.003861580742523,0.0274305380880832
2024-12-07 16:12:59.473127200,4.387127197265625,-0.0090547408908605,-0.0334226451814174,0.2681801319122314
2024-12-07 16:12:59.483155200,4.3971552734375,-0.0143810594454407,-0.0238352734595537,0.5856286883354187
2024-12-07 16:12:59.493183000,4.407182861328125,0.0026631590444594,0.0017310534603893,0.7784414291381836
2024-12-07 16:12:59.503211000,4.4172109375,0.0537958145141601,0.01344895362854,0.8370308876037598
2024-12-07 16:12:59.513239000,4.427239013671875,0.1272990107536316,0.0219710618257522,0.8093340396881104
2024-12-07 16:12:59.523267000,4.43726708984375,0.2327601015567779,0.0315584354102611,0.7081339955329895
2024-12-07 16:12:59.533294800,4.447294921875,0.3605917394161224,0.0976047813892364,0.5675191879272461
2024-12-07 16:12:59.543323000,4.457322998046875,0.4852275848388672,0.2286322116851806,0.4205128252506256
2024-12-07 16:12:59.553351000,4.467350830078125,0.5661876201629639,0.2350237965583801,0.2745717167854309
2024-12-07 16:12:59.563379000,4.47737890625,0.5832318663597107,0.0230363253504037,0.1786979734897613
2024-12-07 16:12:59.573406700,4.48740673828125,0.5331644415855408,-0.3167827725410461,0.1776327192783355
2024-12-07 16:12:59.583434800,4.497434814453125,0.4138549268245697,-0.6257092356681824,0.2202432602643966
2024-12-07 16:12:59.593462800,4.507462890625,0.2647180259227752,-0.8153261542320251,0.2394179999828338
2024-12-07 16:12:59.603490800,4.51749072265625,0.1209074258804321,-0.773780882358551,0.2394179999828338
2024-12-07 16:12:59.613518600,4.5275185546875,0.0335558056831359,-0.5543365478515625,0.2277000993490219
2024-12-07 16:12:59.623546600,4.537546630859375,0.0591221302747726,-0.3103911876678467,0.204264298081398
2024-12-07 16:12:59.633574700,4.54757470703125,0.1645832359790802,-0.1282311081886291,0.1850895583629608
2024-12-07 16:12:59.643602700,4.557602783203125,0.2199769467115402,-0.085620567202568,0.192546397447586
2024-12-07 16:12:59.653630500,4.56763037109375,0.2008021920919418,-0.0366184376180172,0.259658008813858
2024-12-07 16:12:59.663658500,4.577658447265625,0.1794969290494918,0.0347542278468608,0.3757717609405517
2024-12-07 16:12:59.673686500,4.5876865234375,0.1752358675003051,0.1157142594456672,0.5376918315887451
2024-12-07 16:12:59.683714600,4.597714599609375,0.210389569401741,0.2243711501359939,0.7081339955329895
2024-12-07 16:12:59.693742300,4.607742431640625,0.2721748650074005,0.3159838318824768,0.8391614556312561
2024-12-07 16:12:59.703770400,4.617770263671875,0.3456780612468719,0.3713775277137756,0.924382507801056
2024-12-07 16:12:59.713798400,4.62779833984375,0.4181159734725952,0.4342280924320221,0.9627320170402528
2024-12-07 16:12:59.723826400,4.637826416015625,0.4830970466136932,0.4608596861362457,0.9265130758285522
2024-12-07 16:12:59.733854200,4.647854248046875,0.4980107545852661,0.3713775277137756,0.8679235577583313
2024-12-07 16:12:59.743882200,4.65788232421875,0.4724444150924682,0.1892174482345581,0.8210519552230835
2024-12-07 16:12:59.753910300,4.66791015625,0.4223770201206207,-0.0238352734595537,0.790159285068512
2024-12-07 16:12:59.763938300,4.677938232421875,0.3573959469795227,-0.2123869359493255,0.7592666745185852
2024-12-07 16:12:59.773966000,4.687966064453125,0.2892190814018249,-0.3732417523860931,0.7198519110679626
2024-12-07 16:12:59.783994000,4.697994140625,0.2359558939933776,-0.509595513343811,0.6729803085327148
2024-12-07 16:12:59.794022100,4.708022216796875,0.2018674612045288,-0.6203829050064087,0.6037381887435913
2024-12-07 16:12:59.804050200,4.71805029296875,0.1805621832609176,-0.698147177696228,0.5334307551383972
2024-12-07 16:12:59.814078000,4.728077880859375,0.1624527126550674,-0.7503450512886047,0.4716454744338989
2024-12-07 16:12:59.824106000,4.73810595703125,0.1283642649650573,-0.7503450512886047,0.4194475710391998
2024-12-07 16:12:59.834134000,4.748134033203125,0.1006674170494079,-0.7567366361618042,0.3576622605323791
2024-12-07 16:12:59.844162000,4.758162109375,0.0900147780776023,-0.7396924495697021,0.270310640335083
2024-12-07 16:12:59.854189800,4.76818994140625,0.088949516415596,-0.7098650336265564,0.1797632426023483
2024-12-07 16:12:59.864217900,4.7782177734375,0.104928471148014,-0.719452440738678,0.1030642539262771
2024-12-07 16:12:59.874246000,4.788245849609375,0.1241032108664512,-0.7673892974853516,0.0423442311584949
2024-12-07 16:12:59.884274000,4.79827392578125,0.1496695429086685,-0.8504798412322998,-0.0279631707817316
2024-12-07 16:12:59.894301700,4.8083017578125,0.1805621832609176,-0.8984166979789734,-0.120641104876995
2024-12-07 16:12:59.904329700,4.818329833984375,0.2061285078525543,-0.895220935344696,-0.2175800949335098
2024-12-07 16:12:59.914357800,4.828357666015625,0.2263685166835785,-0.8334356546401978,-0.3017359375953674
2024-12-07 16:12:59.924385800,4.8383857421875,0.2284990549087524,-0.7258440256118774,-0.3528685867786407
2024-12-07 16:12:59.934413800,4.848413818359375,0.2125200927257537,-0.5905555486679077,-0.3667170107364654
2024-12-07 16:12:59.944441900,4.85844189453125,0.1837579756975174,-0.4552670419216156,-0.3294327855110168
2024-12-07 16:12:59.954470000,4.868469970703125,0.1379516422748565,-0.3881554305553436,-0.2697780132293701
2024-12-07 16:12:59.964498000,4.878497802734375,0.0655137151479721,-0.3348922431468963,-0.1984053552150726
2024-12-07 16:12:59.974526000,4.88852587890625,-0.0463389679789543,-0.2411490529775619,-0.1174453198909759
2024-12-07 16:12:59.984554000,4.898553955078125,-0.1826927214860916,-0.0877510905265808,-0.0013315795222297
2024-12-07 16:12:59.994582000,4.90858203125,-0.3158506751060486,-0.0792289823293685,0.1456748098134994
2024-12-07 16:13:00.004610000,4.918610107421875,-0.3701791167259216,-0.2155827283859253,0.3395527899265289
2024-12-07 16:13:00.014638000,4.92863818359375,-0.2071937769651413,-0.1985385119915008,0.5568665862083435
2024-12-07 16:13:00.024666000,4.938666015625,0.1091895252466201,-0.046205811202526,0.5696497559547424
2024-12-07 16:13:00.034694000,4.94869384765625,0.2551306486129761,0.2520680129528045,0.3661843836307525
2024-12-07 16:13:00.044722000,4.958721923828125,0.3254380524158478,0.4683165252208709,0.1339569091796875
2024-12-07 16:13:00.054750000,4.96875,0.3051980435848236,0.511992335319519,-0.0684431865811348
2024-12-07 16:13:00.064778000,4.978778076171875,0.1613874435424804,0.4416849315166473,-0.2346243113279342
2024-12-07 16:13:00.074806000,4.988805908203125,-0.0303600132465362,0.3351585865020752,-0.3539338409900665
2024-12-07 16:13:00.084834000,4.998833984375,-0.1624527126550674,0.2701774835586548,-0.460460215806961
2024-12-07 16:13:00.094862000,5.008862060546875,-0.2338253706693649,0.2041311413049698,-0.5744433999061584
2024-12-07 16:13:00.104890000,5.01889013671875,-0.2743053734302521,0.1540637612342834,-0.6617950201034546
2024-12-07 16:13:00.114918100,5.028918212890625,-0.2828274965286255,0.1018658354878425,-0.6926876902580261
2024-12-07 16:13:00.124946200,5.0389462890625,-0.2551306486129761,-0.032357383519411,-0.6575340032577515
2024-12-07 16:13:00.134974200,5.04897412109375,-0.1976063996553421,-0.2273006290197372,-0.5733781456947327
2024-12-07 16:13:00.145002200,5.059002197265625,-0.1400821655988693,-0.3977428078651428,-0.460460215806961
2024-12-07 16:13:00.155030300,5.0690302734375,-0.115581102669239,-0.47231125831604,-0.3443464636802673
2024-12-07 16:13:00.165058300,5.079058349609375,-0.1294295340776443,-0.4158523082733154,-0.2388853728771209
2024-12-07 16:13:00.175086300,5.08908642578125,-0.153930589556694,-0.3039996027946472,-0.1749695539474487
2024-12-07 16:13:00.185114400,5.0991142578125,-0.1720400750637054,-0.2209090441465377,-0.161121129989624
2024-12-07 16:13:00.195142400,5.109142333984375,-0.1613874435424804,-0.1548627018928527,-0.171773761510849
2024-12-07 16:13:00.205170400,5.11917041015625,-0.1294295340776443,-0.0643152892589569,-0.1920137703418731
2024-12-07 16:13:00.215198500,5.129198486328125,-0.0942758321762085,0.054994236677885,-0.2090579867362976
2024-12-07 16:13:00.225226500,5.1392265625,-0.0548610761761665,0.1498026996850967,-0.215449571609497
2024-12-07 16:13:00.235254500,5.149254638671875,-0.0165115855634212,0.2446111589670181,-0.2218411564826965
2024-12-07 16:13:00.245282600,5.159282470703125,-0.010120004415512,0.3639206886291504,-0.228232741355896
2024-12-07 16:13:00.255310600,5.169310546875,-0.023968432098627,0.4757733643054962,-0.228232741355896
2024-12-07 16:13:00.265338400,5.17933837890625,-0.0303600132465362,0.5482112765312195,-0.2356895804405212
2024-12-07 16:13:00.275366400,5.189366455078125,-0.0314252786338329,0.5631250143051147,-0.2633864283561706
2024-12-07 16:13:00.285394400,5.19939453125,-0.0410126484930515,0.5162534117698669,-0.2942790687084198
2024-12-07 16:13:00.295422500,5.20942236328125,-0.0580568686127662,0.4299670457839966,-0.3081275224685669
2024-12-07 16:13:00.305450500,5.219450439453125,-0.0751010850071907,0.3372890949249267,-0.3049317300319671
2024-12-07 16:13:00.315478500,5.229478515625,-0.0857537239789962,0.2531332671642303,-0.29108327627182
2024-12-07 16:13:00.325506600,5.239506591796875,-0.0974716246128082,0.1934785097837448,-0.282561182975769
2024-12-07 16:13:00.335534600,5.24953466796875,-0.104928471148014,0.1689774394035339,-0.2751043438911438
2024-12-07 16:13:00.345562600,5.259562744140625,-0.0932105705142021,0.1657816469669342,-0.2772348523139953
2024-12-07 16:13:00.355590700,5.269590576171875,-0.0719052925705909,0.135954275727272,-0.2985401451587677
2024-12-07 16:13:00.365618700,5.27961865234375,-0.0580568686127662,0.0922784656286239,-0.3177148699760437
2024-12-07 16:13:00.375646700,5.289646728515625,-0.0420779138803482,0.0326237007975578,-0.3326285779476166
2024-12-07 16:13:00.385674800,5.2996748046875,-0.023968432098627,0.0059921080246567,-0.3411506712436676
2024-12-07 16:13:00.395702800,5.309702880859375,-0.0058589498512446,0.0326237007975578,-0.3464770019054413
2024-12-07 16:13:00.405730800,5.319730712890625,0.0143810594454407,0.09653951972723,-0.3486075401306152
2024-12-07 16:13:00.415758800,5.3297587890625,0.021837905049324,0.1572595387697219,-0.3624559640884399
2024-12-07 16:13:00.425787000,5.339786865234375,0.0165115855634212,0.2062616795301437,-0.3720433413982391
2024-12-07 16:13:00.435815000,5.34981494140625,0.0005326318205334,0.2275669425725937,-0.3709780573844909
2024-12-07 16:13:00.445843000,5.359843017578125,-0.035686332732439,0.246741697192192,-0.3571296334266662
2024-12-07 16:13:00.455871000,5.36987109375,-0.0814926698803901,0.2478069514036178,-0.328367531299591
2024-12-07 16:13:00.465899000,5.37989892578125,-0.1294295340776443,0.203065887093544,-0.2900180220603943
2024-12-07 16:13:00.475927000,5.389927001953125,-0.1826927214860916,0.1274321675300598,-0.2442116886377334
2024-12-07 16:13:00.485955000,5.399955078125,-0.2284990549087524,0.0603205524384975,-0.1781653463840484
2024-12-07 16:13:00.495982800,5.40998291015625,-0.2519348561763763,0.0454068630933761,-0.105727419257164
2024-12-07 16:13:00.506011000,5.420010986328125,-0.2466085255146026,0.0880174115300178,-0.0482031814754009
2024-12-07 16:13:00.516039000,5.430038818359375,-0.2231727391481399,0.1498026996850967,-0.0183757971972227
2024-12-07 16:13:00.526067000,5.44006689453125,-0.2018674612045288,0.2137185186147689,-0.0183757971972227
2024-12-07 16:13:00.536095000,5.450094970703125,-0.1848232448101043,0.2552638053894043,-0.0311589613556861
2024-12-07 16:13:00.546123000,5.460123046875,-0.1763011366128921,0.2680469751358032,-0.0450073890388011
2024-12-07 16:13:00.556151000,5.470151123046875,-0.1731053441762924,0.269112229347229,-0.0631168708205223
2024-12-07 16:13:00.566179000,5.480178955078125,-0.1752358675003051,0.269112229347229,-0.0908137261867523
2024-12-07 16:13:00.576207000,5.49020703125,-0.1816274523735046,0.2808301150798797,-0.120641104876995
2024-12-07 16:13:00.586235100,5.500235107421875,-0.1912148296833038,0.3042659163475036,-0.1525990217924118
2024-12-07 16:13:00.596263200,5.51026318359375,-0.2008021920919418,0.314918577671051,-0.1834916621446609
2024-12-07 16:13:00.606291500,5.52029150390625,-0.2135853618383407,0.3170490860939026,-0.2111885100603103
2024-12-07 16:13:00.616319500,5.530319580078125,-0.2274337857961654,0.3191796243190765,-0.2346243113279342
2024-12-07 16:13:00.626347500,5.540347412109375,-0.2370211631059646,0.314918577671051,-0.2484727501869201
2024-12-07 16:13:00.636375600,5.55037548828125,-0.2402169555425644,0.3042659163475036,-0.2516685426235199
2024-12-07 16:13:00.646403600,5.560403564453125,-0.2338253706693649,0.3074617087841034,-0.2527337968349457
2024-12-07 16:13:00.656431600,5.570431640625,-0.2199769467115402,0.3383543491363525,-0.2516685426235199
2024-12-07 16:13:00.666460000,5.5804599609375,-0.211454838514328,0.3969438672065735,-0.2420811653137207
2024-12-07 16:13:00.676488000,5.590488037109375,-0.1976063996553421,0.4747081100940704,-0.226102203130722
2024-12-07 16:13:00.686516000,5.600515869140625,-0.1816274523735046,0.5599291920661926,-0.2101232558488845
2024-12-07 16:13:00.696544000,5.6105439453125,-0.1709748208522796,0.6717818975448608,-0.2047969400882721
2024-12-07 16:13:00.706572000,5.620572021484375,-0.1603221744298935,0.7942872047424316,-0.2005358785390854
2024-12-07 16:13:00.716600000,5.63060009765625,-0.153930589556694,0.9061399102211,-0.1888179779052734
2024-12-07 16:13:00.726628400,5.64062841796875,-0.1603221744298935,0.990295708179474,-0.1685779690742492
2024-12-07 16:13:00.736656400,5.650656494140625,-0.1560611277818679,1.0574073791503906,-0.1419463753700256
2024-12-07 16:13:00.746684400,5.660684326171875,-0.1656484901905059,1.103213667869568,-0.1249021589756012
2024-12-07 16:13:00.756712400,5.67071240234375,-0.1837579756975174,1.114931583404541,-0.1110537350177764
2024-12-07 16:13:00.766740500,5.680740478515625,-0.1794969290494918,1.0893652439117432,-0.0748347714543342
2024-12-07 16:13:00.776768500,5.6907685546875,-0.153930589556694,1.0467547178268433,-0.013049479573965
2024-12-07 16:13:00.786796500,5.700796630859375,-0.1123853176832199,1.0137314796447754,0.0508663393557071
2024-12-07 16:13:00.796824800,5.710824951171875,-0.0601873956620693,0.993491530418396,0.0892158299684524
2024-12-07 16:13:00.806852900,5.720852783203125,-0.0122505314648151,0.9785777926445008,0.088150568306446
2024-12-07 16:13:00.816881000,5.730880859375,0.0250336956232786,1.010535717010498,0.0636495053768158
2024-12-07 16:13:00.826909000,5.740908935546875,0.0548610761761665,1.0968220233917236,0.0561926588416099
2024-12-07 16:13:00.836937000,5.75093701171875,0.0751010850071907,1.1543463468551636,0.044474758207798
2024-12-07 16:13:00.846965000,5.760965087890625,0.0836231932044029,1.144758939743042,0.0114515842869877
2024-12-07 16:13:00.856993300,5.7709931640625,0.0644484534859657,1.0882999897003174,-0.0151800066232681
2024-12-07 16:13:00.867021300,5.781021240234375,0.0154463229700922,0.9988178014755248,-0.0013315795222297
2024-12-07 16:13:00.877049300,5.79104931640625,-0.0537958145141601,0.9199883341789246,0.0732368752360344
2024-12-07 16:13:00.887077400,5.801077392578125,-0.1251684725284576,0.8741819858551025,0.181893765926361
2024-12-07 16:13:00.897105400,5.81110546875,-0.1763011366128921,0.8858999013900757,0.2958769798278808
2024-12-07 16:13:00.907133400,5.821133544921875,-0.1954758763313293,0.9657946228981018,0.3981422781944275
2024-12-07 16:13:00.917161700,5.83116162109375,-0.1869537681341171,1.0669946670532229,0.4822981059551239
2024-12-07 16:13:00.927189800,5.841189697265625,-0.1624527126550674,1.131975769996643,0.563258171081543
2024-12-07 16:13:00.937217800,5.8512177734375,-0.1358211189508438,1.1490199565887451,0.6687192320823669
2024-12-07 16:13:00.947245800,5.861245849609375,-0.1070589944720268,1.1351715326309204,0.7432876825332642
2024-12-07 16:13:00.957273900,5.87127392578125,-0.0367515943944454,1.0882999897003174,0.7294392585754395
2024-12-07 16:13:00.967302000,5.881302001953125,0.0197073780000209,1.0201231241226196,0.7645930051803589
2024-12-07 16:13:00.977330200,5.891330078125,-0.0484694950282573,0.9657946228981018,0.8849677443504333
2024-12-07 16:13:00.987358200,5.901358154296875,-0.1390169113874435,0.918923020362854,0.9147951602935792
2024-12-07 16:13:00.997386200,5.91138623046875,-0.1262337416410446,0.8858999013900757,0.684698224067688
2024-12-07 16:13:01.007414300,5.921414306640625,0.0122505314648151,1.006274700164795,0.2649843394756317
2024-12-07 16:13:01.017442300,5.9314423828125,0.1976063996553421,1.3897695541381836,-0.0173105336725711
2024-12-07 16:13:01.027470300,5.94147021484375,0.341416984796524,1.697630763053894,-0.0173105336725711
2024-12-07 16:13:01.037498400,5.951498291015625,0.4032022953033447,1.710413932800293,0.0817589834332466
2024-12-07 16:13:01.047526700,5.961526611328125,0.4351601898670196,1.3855085372924805,0.0700410827994346
2024-12-07 16:13:01.057554700,5.9715546875,0.4596612751483917,0.9327715039253236,0.0231694839894771
2024-12-07 16:13:01.067582700,5.981582763671875,0.4213117659091949,0.6025397181510925,0.0253000110387802
2024-12-07 16:13:01.077610800,5.99161083984375,0.3307643532752991,0.4320975542068481,0.0572579205036163
2024-12-07 16:13:01.087638800,6.001638671875,0.2561959028244018,0.3809649050235748,0.072171613574028
2024-12-07 16:13:01.097666800,6.011666748046875,0.2157158851623535,0.4693817794322967,0.0402137041091918
2024-12-07 16:13:01.107695000,6.021695068359375,0.1976063996553421,0.6355628967285156,-0.0141147430986166
2024-12-07 16:13:01.117723100,6.03172314453125,0.2039979845285415,0.7186535000801086,-0.0492684431374073
2024-12-07 16:13:01.127751200,6.041751220703125,0.2370211631059646,0.7058703303337097,-0.038615807890892
2024-12-07 16:13:01.137779200,6.051779296875,0.2881538271903991,0.6057355403900146,-0.0013315795222297
2024-12-07 16:13:01.147807200,6.06180712890625,0.341416984796524,0.4459459781646728,0.0316915921866893
2024-12-07 16:13:01.157835300,6.071835205078125,0.3882885873317718,0.3042659163475036,0.0689758211374282
2024-12-07 16:13:01.167863600,6.081863525390625,0.4117243885993957,0.1327584832906723,0.1286305785179138
2024-12-07 16:13:01.177891600,6.0918916015625,0.4351601898670196,-0.112252153456211,0.2223737835884094
2024-12-07 16:13:01.187919600,6.101919677734375,0.4234423041343689,-0.2784332931041717,0.3214432895183563
2024-12-07 16:13:01.197947600,6.11194775390625,0.4415517747402191,-0.3902859687805176,0.4151864945888519
2024-12-07 16:13:01.207975700,6.1219755859375,0.4692486226558685,-0.4201133549213409,0.4599275887012481
2024-12-07 16:13:01.218003700,6.132003662109375,0.4916191697120666,-0.3487406969070434,0.448209673166275
2024-12-07 16:13:01.228032000,6.142031982421875,0.4969455003738403,-0.1953427195549011,0.4183822870254516
2024-12-07 16:13:01.238060000,6.15206005859375,0.4905539155006408,-0.06964161247015,0.3821633458137512
2024-12-07 16:13:01.248088000,6.162088134765625,0.4713791608810425,-0.0653805583715438,0.3299654126167297
2024-12-07 16:13:01.258116000,6.1721162109375,0.4287686049938202,-0.15273217856884,0.2745717167854309
2024-12-07 16:13:01.268144400,6.182144287109375,0.3787012100219726,-0.3178480267524719,0.2106558829545974
2024-12-07 16:13:01.278172400,6.19217236328125,0.3243727684020996,-0.4925512671470642,0.1424790173768997
2024-12-07 16:13:01.288200400,6.202200439453125,0.287088543176651,-0.5873597264289856,0.0700410827994346
2024-12-07 16:13:01.298228700,6.212228759765625,0.2881538271903991,-0.6395576596260071,0.018908429890871
2024-12-07 16:13:01.308256800,6.2222568359375,0.2817622423171997,-0.7396924495697021,0.0178431663662195
2024-12-07 16:13:01.318285000,6.23228515625,0.2647180259227752,-0.9261136054992676,0.058323185890913
2024-12-07 16:13:01.328313000,6.24231298828125,0.2284990549087524,-1.075250506401062,0.1041295230388641
2024-12-07 16:13:01.338341000,6.252341064453125,0.1805621832609176,-1.184972643852234,0.1190432086586952
2024-12-07 16:13:01.348369400,6.262369384765625,0.1315600574016571,-1.2222568988800049,0.0785631909966468
2024-12-07 16:13:01.358397400,6.2723974609375,0.0868189856410026,-1.1988210678100586,0.0029294749256223
2024-12-07 16:13:01.368425500,6.282425537109375,0.0399473868310451,-1.1327747106552124,-0.0972053036093711
2024-12-07 16:13:01.378453800,6.292453857421875,-0.0133157959207892,-1.075250506401062,-0.1994706094264984
2024-12-07 16:13:01.388481800,6.302481689453125,-0.076166346669197,-1.0571409463882446,-0.2751043438911438
2024-12-07 16:13:01.398509800,6.312509765625,-0.1454084813594818,-1.0411620140075684,-0.3336938321590423
2024-12-07 16:13:01.408538000,6.3225380859375,-0.2178464084863662,-1.00068199634552,-0.3645864725112915
2024-12-07 16:13:01.418566100,6.332566162109375,-0.2924148738384247,-0.941027283668518,-0.3688475489616394
2024-12-07 16:13:01.428594400,6.342594482421875,-0.3520696461200714,-0.8856335878372192,-0.3528685867786407
2024-12-07 16:13:01.438622500,6.35262255859375,-0.3797664940357208,-0.8771114349365234,-0.3028011918067932
2024-12-07 16:13:01.448650500,6.362650390625,-0.3808317482471466,-0.9442230463027954,-0.2005358785390854
2024-12-07 16:13:01.458678800,6.3726787109375,-0.3659180700778961,-1.0155956745147705,-0.040746334940195
2024-12-07 16:13:01.468706800,6.382706787109375,-0.3158506751060486,-1.0400967597961426,0.1254348009824752
2024-12-07 16:13:01.478734800,6.39273486328125,-0.2231727391481399,-0.9932252168655396,0.2202432602643966
2024-12-07 16:13:01.488763100,6.40276318359375,-0.0900147780776023,-0.7812377214431763,0.2458095848560333
2024-12-07 16:13:01.498791200,6.412791259765625,0.0740358233451843,-0.4510059952735901,0.2191779911518097
2024-12-07 16:13:01.508819200,6.422819091796875,0.1965411454439163,-0.1218395307660102,0.1211737394332885
2024-12-07 16:13:01.518847500,6.432847412109375,0.3094590902328491,0.1679121851921081,-0.0215715896338224
2024-12-07 16:13:01.528875500,6.44287548828125,0.3904191255569458,0.3671164810657501,-0.2005358785390854
2024-12-07 16:13:01.538903800,6.45290380859375,0.3904191255569458,0.4374238848686218,-0.347542256116867
2024-12-07 16:13:01.548931800,6.462931884765625,0.2966759204864502,0.3074617087841034,-0.4189149141311645
2024-12-07 16:13:01.558959900,6.4729599609375,0.088949516415596,0.0517984442412853,-0.3816306889057159
2024-12-07 16:13:01.568988200,6.48298828125,-0.154995858669281,-0.2816290855407715,-0.2559295892715454
2024-12-07 16:13:01.579016200,6.49301611328125,-0.3296990990638733,-0.5969471335411072,-0.1078579425811767
2024-12-07 16:13:01.589044200,6.503044189453125,-0.4255728125572204,-0.7386271953582764,-0.0226368531584739
2024-12-07 16:13:01.599072500,6.513072509765625,-0.4394212663173675,-0.7503450512886047,-0.038615807890892
2024-12-07 16:13:01.609100500,6.5231005859375,-0.3925496637821197,-0.7183871865272522,-0.1131842583417892
2024-12-07 16:13:01.619128600,6.533128662109375,-0.3041327595710754,-0.6832334399223328,-0.1834916621446609
2024-12-07 16:13:01.629156900,6.543156982421875,-0.198671668767929,-0.6342313289642334,-0.216514840722084
2024-12-07 16:13:01.639185000,6.553184814453125,-0.1059937328100204,-0.5170523524284363,-0.216514840722084
2024-12-07 16:13:01.649213200,6.563213134765625,-0.037816859781742,-0.3189133107662201,-0.2037316709756851
2024-12-07 16:13:01.659241200,6.5732412109375,0.007989477366209,-0.1079910993576049,-0.2058621942996978
2024-12-07 16:13:01.669269200,6.583269287109375,0.0335558056831359,0.0294279083609581,-0.2122537791728973
2024-12-07 16:13:01.679297500,6.593297607421875,0.0410126484930515,0.0571247637271881,-0.1973400861024856
2024-12-07 16:13:01.689325600,6.60332568359375,0.035686332732439,0.0166447442024946,-0.1802958697080612
2024-12-07 16:13:01.699353600,6.613353515625,0.0111852679401636,-0.0376837030053138,-0.1941442936658859
2024-12-07 16:13:01.709382000,6.6233818359375,-0.0282294861972332,-0.1101216301321983,-0.2303632646799087
2024-12-07 16:13:01.719410000,6.633409912109375,-0.0719052925705909,-0.2017343044281005,-0.2591253817081451
2024-12-07 16:13:01.729438000,6.64343798828125,-0.1091895252466201,-0.2624543309211731,-0.2687127590179443
2024-12-07 16:13:01.739466200,6.65346630859375,-0.1209074258804321,-0.2454101145267486,-0.2548643350601196
2024-12-07 16:13:01.749494300,6.663494384765625,-0.1017326787114143,-0.1825595498085022,-0.2303632646799087
2024-12-07 16:13:01.759522600,6.6735224609375,-0.0644484534859657,-0.1090563684701919,-0.2090579867362976
2024-12-07 16:13:01.769550600,6.683550537109375,-0.0175768509507179,-0.044075284153223,-0.2005358785390854
2024-12-07 16:13:01.779578600,6.69357861328125,0.0271642226725816,0.003861580742523,-0.1909485012292862
2024-12-07 16:13:01.789607000,6.70360693359375,0.0559263415634632,0.0656468719244003,-0.161121129989624
2024-12-07 16:13:01.799635000,6.713635009765625,0.0655137151479721,0.1412805914878845,-0.1280979514122009
2024-12-07 16:13:01.809663000,6.7236630859375,0.0719052925705909,0.1679121851921081,-0.1131842583417892
2024-12-07 16:13:01.819691300,6.733691162109375,0.087884247303009,0.1370195299386978,-0.1110537350177764
2024-12-07 16:13:01.829719300,6.74371923828125,0.0825579315423965,0.1295626908540725,-0.121706373989582
2024-12-07 16:13:01.839747300,6.753747314453125,0.0633831843733787,0.1221058443188667,-0.1195758432149887
2024-12-07 16:13:01.849775600,6.763775634765625,0.0474042333662509,0.1125184744596481,-0.0993358343839645
2024-12-07 16:13:01.859803600,6.7738037109375,0.0282294861972332,0.068842664361,-0.0759000331163406
2024-12-07 16:13:01.869832000,6.78383203125,0.0143810594454407,0.01344895362854,-0.0577905513346195
2024-12-07 16:13:01.879860000,6.79385986328125,0.0133157959207892,-0.030226856470108,-0.0482031814754009
2024-12-07 16:13:01.889888000,6.803887939453125,0.0165115855634212,-0.0600542388856411,-0.0535294972360134
2024-12-07 16:13:01.899916300,6.813916259765625,0.0122505314648151,-0.0728374049067497,-0.0748347714543342
2024-12-07 16:13:01.909944300,6.8239443359375,0.0026631590444594,-0.0717721357941627,-0.0833568796515464
2024-12-07 16:13:01.919972400,6.833972412109375,-0.0005326318205334,-0.0707068741321563,-0.0705737173557281
2024-12-07 16:13:01.930000600,6.844000732421875,-0.0229031685739755,-0.0739026665687561,-0.0620516054332256
2024-12-07 16:13:01.940028700,6.854028564453125,-0.037816859781742,-0.0728374049067497,-0.052464235574007
2024-12-07 16:13:01.950056700,6.864056640625,-0.0303600132465362,-0.0952079370617866,-0.052464235574007
2024-12-07 16:13:01.960085000,6.8740849609375,-0.0058589498512446,-0.113317422568798,-0.0609863437712192
2024-12-07 16:13:01.970113000,6.884113037109375,0.0197073780000209,-0.1090563684701919,-0.0684431865811348
2024-12-07 16:13:01.980141300,6.894141357421875,0.0324905402958393,-0.0930774137377739,-0.0759000331163406
2024-12-07 16:13:01.990169300,6.90416943359375,0.0367515943944454,-0.0749679282307624,-0.0844221413135528
2024-12-07 16:13:02.000197400,6.914197265625,0.0388821214437484,-0.0675110816955566,-0.0822916179895401
2024-12-07 16:13:02.010225700,6.9242255859375,0.0399473868310451,-0.0739026665687561,-0.0780305638909339
2024-12-07 16:13:02.020253700,6.934253662109375,0.0367515943944454,-0.0898816213011741,-0.0865526720881462
2024-12-07 16:13:02.030281700,6.94428173828125,0.0324905402958393,-0.1069258376955986,-0.1014663651585578
2024-12-07 16:13:02.040310000,6.95431005859375,0.0154463229700922,-0.1271658539772033,-0.121706373989582
2024-12-07 16:13:02.050338000,6.964338134765625,-0.0154463229700922,-0.1452753245830536,-0.1408811211585998
2024-12-07 16:13:02.060366000,6.974365966796875,-0.0644484534859657,-0.1644500792026519,-0.1504684835672378
2024-12-07 16:13:02.070394400,6.984394287109375,-0.1187768951058387,-0.1697763949632644,-0.1472726911306381
2024-12-07 16:13:02.080422400,6.99442236328125,-0.1390169113874435,-0.1889511346817016,-0.1270326822996139
2024-12-07 16:13:02.090450700,7.00445068359375,-0.1486042737960815,-0.1964079886674881,-0.1163800507783889
2024-12-07 16:13:02.100478700,7.014478759765625,-0.1507348120212555,-0.1942774504423141,-0.1121189966797828
2024-12-07 16:13:02.110506800,7.0245068359375,-0.143277958035469,-0.1889511346817016,-0.1121189966797828
2024-12-07 16:13:02.120535000,7.03453515625,-0.1315600574016571,-0.1676458716392517,-0.1153147891163826
2024-12-07 16:13:02.130563000,7.04456298828125,-0.1219726875424385,-0.123970054090023,-0.1174453198909759
2024-12-07 16:13:02.140591000,7.054591064453125,-0.1187768951058387,-0.0760331898927688,-0.1142495274543762
2024-12-07 16:13:02.150619400,7.064619384765625,-0.1209074258804321,-0.0142479008063673,-0.1174453198909759
2024-12-07 16:13:02.160647400,7.0746474609375,-0.1187768951058387,0.0773647725582122,-0.1259674280881881
2024-12-07 16:13:02.170675500,7.084675537109375,-0.1219726875424385,0.1561942845582962,-0.1302284747362136
2024-12-07 16:13:02.180703700,7.094703857421875,-0.1358211189508438,0.2041311413049698,-0.1238368973135948
2024-12-07 16:13:02.190731800,7.104731689453125,-0.1464737504720688,0.2137185186147689,-0.1121189966797828
2024-12-07 16:13:02.200760000,7.114760009765625,-0.1560611277818679,0.1988048255443573,-0.1110537350177764
2024-12-07 16:13:02.210788000,7.1247880859375,-0.1709748208522796,0.1924132406711578,-0.1174453198909759
2024-12-07 16:13:02.220816100,7.134816162109375,-0.1954758763313293,0.1892174482345581,-0.121706373989582
2024-12-07 16:13:02.230844400,7.144844482421875,-0.1869537681341171,0.1593900769948959,-0.1078579425811767
2024-12-07 16:13:02.240872400,7.15487255859375,-0.1688442826271057,0.1402153223752975,-0.1110537350177764
2024-12-07 16:13:02.250900500,7.164900390625,-0.1592569202184677,0.1263668984174728,-0.1302284747362136
2024-12-07 16:13:02.260928800,7.1749287109375,-0.1592569202184677,0.12423637509346,-0.160055860877037
2024-12-07 16:13:02.270956800,7.184956787109375,-0.1816274523735046,0.1391500681638717,-0.2005358785390854
2024-12-07 16:13:02.280984800,7.19498486328125,-0.198671668767929,0.1476721763610839,-0.2335590571165084
2024-12-07 16:13:02.291013000,7.20501318359375,-0.2039979845285415,0.134889006614685,-0.2516685426235199
2024-12-07 16:13:02.301041200,7.215041259765625,-0.2050632536411285,0.1316932141780853,-0.2527337968349457
2024-12-07 16:13:02.311069400,7.2250693359375,-0.1901495605707168,0.1380847990512848,-0.2431464195251464
2024-12-07 16:13:02.321097500,7.235097412109375,-0.1720400750637054,0.1519332230091095,-0.2314285188913345
2024-12-07 16:13:02.331125500,7.24512548828125,-0.1560611277818679,0.2115879952907562,-0.2058621942996978
2024-12-07 16:13:02.341153800,7.25515380859375,-0.1262337416410446,0.325571209192276,-0.1536642760038375
2024-12-07 16:13:02.351181800,7.265181884765625,-0.1134505793452262,0.4395544230937958,-0.1035968884825706
2024-12-07 16:13:02.361210000,7.275210205078125,-0.143277958035469,0.4992091655731201,-0.0897484645247459
2024-12-07 16:13:02.371238100,7.285238037109375,-0.1858884990215301,0.5077312588691711,-0.0801610872149467
2024-12-07 16:13:02.381266400,7.295266357421875,-0.2274337857961654,0.5066660046577454,-0.0503337085247039
2024-12-07 16:13:02.391294500,7.30529443359375,-0.2530001103878021,0.5130575895309448,-0.0045273704454302
2024-12-07 16:13:02.401322800,7.31532275390625,-0.276435911655426,0.4906870722770691,0.032756857573986
2024-12-07 16:13:02.411351000,7.32535107421875,-0.2998717129230499,0.4480765163898468,0.046605285257101
2024-12-07 16:13:02.421379000,7.335379150390625,-0.2966759204864502,0.3692470192909241,0.046605285257101
2024-12-07 16:13:02.431407400,7.345407470703125,-0.2828274965286255,0.2744385600090027,0.0391484387218952
2024-12-07 16:13:02.441435400,7.355435302734375,-0.2487390637397766,0.1817606091499328,0.030626330524683
2024-12-07 16:13:02.451463700,7.365463623046875,-0.2029327303171157,0.0986700430512428,0.0146473748609423
2024-12-07 16:13:02.461491700,7.37549169921875,-0.1624527126550674,0.0475373901426792,-0.0034621069207787
2024-12-07 16:13:02.471520000,7.38552001953125,-0.1411474347114563,0.0304931718856096,-0.010918952524662
2024-12-07 16:13:02.481548300,7.39554833984375,-0.1336905807256698,0.0198405347764492,0.0029294749256223
2024-12-07 16:13:02.491576300,7.405576416015625,-0.1294295340776443,-0.002530001103878,0.0253000110387802
2024-12-07 16:13:02.501604600,7.4156044921875,-0.1038632020354271,-0.0355531722307205,0.0348873846232891
2024-12-07 16:13:02.511632600,7.425632568359375,-0.077231615781784,-0.0898816213011741,0.0785631909966468
2024-12-07 16:13:02.521661000,7.435660888671875,-0.0910800397396087,-0.2145174592733383,0.181893765926361
2024-12-07 16:13:02.531689000,7.44568896484375,-0.0868189856410026,-0.3221091032028198,0.2277000993490219
2024-12-07 16:13:02.541717200,7.45571728515625,-0.0324905402958393,-0.3775027990341186,0.2532664239406585
2024-12-07 16:13:02.551745500,7.46574560546875,-0.0133157959207892,-0.4648544192314148,0.5408875942230225
2024-12-07 16:13:02.561773600,7.475773681640625,-0.0782968774437904,-0.5447492003440857,0.8008119463920593
2024-12-07 16:13:02.571801900,7.4858017578125,-0.1187768951058387,-0.5926860570907593,0.7347655892372131
2024-12-07 16:13:02.581830000,7.495829833984375,-0.0676442384719848,-0.5724460482597351,0.3278348743915558
2024-12-07 16:13:02.591858200,7.505858154296875,0.0527305491268634,-0.3540669977664947,0.0956074148416519
2024-12-07 16:13:02.601886200,7.51588623046875,0.0708400309085846,-0.1676458716392517,0.2756369709968567
2024-12-07 16:13:02.611914500,7.52591455078125,-0.0143810594454407,-0.1079910993576049,0.5121254920959473
2024-12-07 16:13:02.621942800,7.53594287109375,-0.0825579315423965,-0.0621847659349441,0.5685844421386719
2024-12-07 16:13:02.631970800,7.545970703125,-0.1145158410072326,0.0251668542623519,0.534496009349823
2024-12-07 16:13:02.641999000,7.5559990234375,-0.1059937328100204,0.108257420361042,0.43755704164505
2024-12-07 16:13:02.652027100,7.566027099609375,-0.0782968774437904,0.1625858694314956,0.3012032806873321
2024-12-07 16:13:02.662055400,7.576055419921875,-0.0420779138803482,0.2083922028541565,0.1648495495319366
2024-12-07 16:13:02.672083500,7.58608349609375,-0.010120004415512,0.2233058959245681,0.0519316010177135
2024-12-07 16:13:02.682111700,7.59611181640625,0.0175768509507179,0.2147837877273559,-0.0162452701479196
2024-12-07 16:13:02.692139800,7.606139892578125,0.0388821214437484,0.1849564015865326,-0.0513989701867103
2024-12-07 16:13:02.702168000,7.61616796875,0.0569916032254695,0.1583248078823089,-0.0748347714543342
2024-12-07 16:13:02.712196400,7.6261962890625,0.0857537239789962,0.1508679687976837,-0.0876179337501525
2024-12-07 16:13:02.722224400,7.636224365234375,0.1123853176832199,0.1892174482345581,-0.0748347714543342
2024-12-07 16:13:02.732252700,7.646252685546875,0.1294295340776443,0.2541985511779785,-0.0290284343063831
2024-12-07 16:13:02.742280700,7.65628076171875,0.1262337416410446,0.3010701239109039,0.0423442311584949
2024-12-07 16:13:02.752309000,7.66630908203125,0.1400821655988693,0.3202448785305023,0.1211737394332885
2024-12-07 16:13:02.762337000,7.6763369140625,0.1688442826271057,0.2531332671642303,0.182959035038948
2024-12-07 16:13:02.772365300,7.686365234375,0.1965411454439163,0.079495295882225,0.2298306375741958
2024-12-07 16:13:02.782393600,7.6963935546875,0.209324300289154,-0.1165132075548172,0.2788327634334564
2024-12-07 16:13:02.792421600,7.706421630859375,0.1858884990215301,-0.2336922138929367,0.3320959508419037
2024-12-07 16:13:02.802450000,7.716449951171875,0.1699095517396927,-0.2741722166538238,0.3661843836307525
2024-12-07 16:13:02.812478000,7.72647802734375,0.1858884990215301,-0.283759593963623,0.3683148920536041
2024-12-07 16:13:02.822506200,7.73650634765625,0.2284990549087524,-0.2763027548789978,0.3427485823631286
2024-12-07 16:13:02.832534300,7.7465341796875,0.2775011658668518,-0.2677806615829468,0.3043990731239319
2024-12-07 16:13:02.842562600,7.7565625,0.3275685608386993,-0.2379532605409622,0.2724411785602569
2024-12-07 16:13:02.852590800,7.7665908203125,0.3744401633739471,-0.2273006290197372,0.2426137924194336
2024-12-07 16:13:02.862619000,7.776618896484375,0.4138549268245697,-0.2518016993999481,0.2255695760250091
2024-12-07 16:13:02.872647200,7.786647216796875,0.462857037782669,-0.2273006290197372,0.2671148478984833
2024-12-07 16:13:02.882675200,7.79667529296875,0.4969455003738403,-0.2549974918365478,0.3129211962223053
2024-12-07 16:13:02.892703500,7.806703369140625,0.5214465260505676,-0.331696480512619,0.3448790907859802
2024-12-07 16:13:02.902731500,7.8167314453125,0.5278381109237671,-0.4446144104003906,0.3470096290111542
2024-12-07 16:13:02.912759800,7.826759765625,0.5310339331626892,-0.4946818053722381,0.3448790907859802
2024-12-07 16:13:02.922788000,7.8367880859375,0.5182507634162903,-0.4904207587242126,0.3352917432785034
2024-12-07 16:13:02.932816100,7.846816162109375,0.4809665381908417,-0.5564671158790588,0.3086601495742798
2024-12-07 16:13:02.942844400,7.856844482421875,0.4340949356555938,-0.6853640079498291,0.2969422340393066
2024-12-07 16:13:02.952872400,7.86687255859375,0.3957454562187195,-0.8121303915977478,0.3171822428703308
2024-12-07 16:13:02.962900700,7.876900634765625,0.3765707015991211,-0.937831461429596,0.3512706756591797
2024-12-07 16:13:02.972928800,7.8869287109375,0.3787012100219726,-0.9974862337112428,0.3800328075885772
2024-12-07 16:13:02.982957000,7.89695703125,0.3904191255569458,-1.04329252243042,0.383228600025177
2024-12-07 16:13:02.992985000,7.906985107421875,0.3925496637821197,-0.9719198942184448,0.372575968503952
2024-12-07 16:13:03.003013400,7.917013427734375,0.3829622864723205,-0.803608238697052,0.3299654126167297
2024-12-07 16:13:03.013041700,7.927041748046875,0.3776359558105469,-0.7151913642883301,0.2564622163772583
2024-12-07 16:13:03.023069700,7.937069580078125,0.3552654385566711,-0.6715155839920044,0.1786979734897613
2024-12-07 16:13:03.033098000,7.947097900390625,0.3094590902328491,-0.6651239991188049,0.1126516312360763
2024-12-07 16:13:03.043126000,7.9571259765625,0.2530001103878021,-0.673646092414856,0.0572579205036163
2024-12-07 16:13:03.053154300,7.967154296875,0.198671668767929,-0.6725808382034302,0.0071905297227203
2024-12-07 16:13:03.063182300,7.977182373046875,0.1496695429086685,-0.6768419146537781,-0.05459476262331
2024-12-07 16:13:03.073210600,7.987210693359375,0.115581102669239,-0.6597976684570312,-0.1099884733557701
2024-12-07 16:13:03.083239000,7.997239013671875,0.0857537239789962,-0.6459492444992065,-0.1398158520460128
2024-12-07 16:13:03.093267000,8.007266845703125,0.0569916032254695,-0.6832334399223328,-0.1536642760038375
2024-12-07 16:13:03.103295200,8.017295166015625,0.0388821214437484,-0.719452440738678,-0.1451421678066253
2024-12-07 16:13:03.113323300,8.0273232421875,0.0271642226725816,-0.7407577037811279,-0.1334242671728134
2024-12-07 16:13:03.123351600,8.0373515625,0.0292947497218847,-0.7301050424575806,-0.1270326822996139
2024-12-07 16:13:03.133379600,8.047379638671876,0.0474042333662509,-0.6928208470344543,-0.1323590129613876
2024-12-07 16:13:03.143407900,8.057407958984374,0.0740358233451843,-0.6544713377952576,-0.1483379602432251
2024-12-07 16:13:03.153436200,8.067436279296874,0.1006674170494079,-0.6406229138374329,-0.1685779690742492
2024-12-07 16:13:03.163464200,8.077464111328124,0.1230379492044448,-0.643818736076355,-0.1760348230600357
2024-12-07 16:13:03.173492500,8.087492431640625,0.154995858669281,-0.6789724230766296,-0.1728390306234359
2024-12-07 16:13:03.183520500,8.0975205078125,0.1816274523735046,-0.7130608558654785,-0.1408811211585998
2024-12-07 16:13:03.193548800,8.107548828125,0.1933453530073166,-0.7546061277389526,-0.0886831954121589
2024-12-07 16:13:03.203576800,8.117576904296875,0.1880190372467041,-0.773780882358551,-0.0460726507008075
2024-12-07 16:13:03.213605000,8.127605224609376,0.1944106072187423,-0.6544713377952576,-0.0098536890000104
2024-12-07 16:13:03.223633400,8.13763330078125,0.1901495605707168,-0.4542017877101898,-0.0141147430986166
2024-12-07 16:13:03.233661400,8.147661376953126,0.1890842914581298,-0.2336922138929367,-0.0513989701867103
2024-12-07 16:13:03.243689700,8.157689697265624,0.1944106072187423,-0.1101216301321983,-0.0961400419473648
2024-12-07 16:13:03.253717800,8.1677177734375,0.1954758763313293,-0.0557931847870349,-0.1174453198909759
2024-12-07 16:13:03.263746000,8.17774609375,0.1411474347114563,-0.0547279193997383,-0.1696432381868362
2024-12-07 16:13:03.273774300,8.1877744140625,0.0474042333662509,-0.030226856470108,-0.2420811653137207
2024-12-07 16:13:03.283802600,8.197802734375,-0.0410126484930515,-0.0664458200335502,-0.3006706535816192
2024-12-07 16:13:03.293830700,8.20783056640625,-0.1645832359790802,-0.1868206113576889,-0.3304980397224426
2024-12-07 16:13:03.303859000,8.21785888671875,-0.3201117217540741,-0.3061301410198211,-0.3198454082012176
2024-12-07 16:13:03.313887200,8.22788720703125,-0.4319643974304199,-0.3572627902030945,-0.2772348523139953
2024-12-07 16:13:03.323915500,8.23791552734375,-0.4692486226558685,-0.3583280444145202,-0.2506032586097717
2024-12-07 16:13:03.333943800,8.24794384765625,-0.4554001986980438,-0.3189133107662201,-0.2580601274967193
2024-12-07 16:13:03.343971800,8.257971923828125,-0.4095938801765442,-0.2635195851325989,-0.3070622384548187
2024-12-07 16:13:03.354000100,8.268000244140625,-0.3190464675426483,-0.1964079886674881,-0.3720433413982391
2024-12-07 16:13:03.364028400,8.2780283203125,-0.1933453530073166,-0.1218395307660102,-0.4093275666236877
2024-12-07 16:13:03.374056700,8.288056640625,-0.0729705616831779,-0.0376837030053138,-0.3922833502292633
2024-12-07 16:13:03.384084700,8.298084716796875,0.0186421144753694,0.0315584354102611,-0.3294327855110168
2024-12-07 16:13:03.394113000,8.308113037109376,0.087884247303009,0.0784300342202186,-0.2729738056659698
2024-12-07 16:13:03.404141300,8.318141357421876,0.1304948031902313,0.0901479348540306,-0.2484727501869201
2024-12-07 16:13:03.414169600,8.328169677734374,0.144343227148056,0.0773647725582122,-0.2442116886377334
2024-12-07 16:13:03.424198000,8.338197998046875,0.132625326514244,0.0390152819454669,-0.2356895804405212
2024-12-07 16:13:03.434226000,8.348225830078125,0.1017326787114143,-0.046205811202526,-0.2058621942996978
2024-12-07 16:13:03.444254200,8.358254150390625,0.0676442384719848,-0.1250353157520294,-0.1579253375530243
2024-12-07 16:13:03.454282500,8.368282470703125,0.037816859781742,-0.1314269006252288,-0.120641104876995
2024-12-07 16:13:03.464310800,8.378310791015625,0.0122505314648151,-0.0376837030053138,-0.1078579425811767
2024-12-07 16:13:03.474338800,8.3883388671875,-0.0122505314648151,0.1253016293048858,-0.1110537350177764
2024-12-07 16:13:03.484367000,8.3983671875,-0.0175768509507179,0.2936132848262787,-0.1163800507783889
2024-12-07 16:13:03.494395400,8.4083955078125,-0.0292947497218847,0.4235754609107971,-0.1185105815529823
2024-12-07 16:13:03.504423700,8.418423583984374,-0.0623179227113723,0.4683165252208709,-0.1131842583417892
2024-12-07 16:13:03.514451700,8.42845166015625,-0.1017326787114143,0.4416849315166473,-0.1014663651585578
2024-12-07 16:13:03.524480000,8.43847998046875,-0.144343227148056,0.3756386041641235,-0.0844221413135528
2024-12-07 16:13:03.534508300,8.44850830078125,-0.1837579756975174,0.3000048696994781,-0.066312663257122
2024-12-07 16:13:03.544536600,8.45853662109375,-0.2146506309509277,0.2201101034879684,-0.0503337085247039
2024-12-07 16:13:03.554564900,8.46856494140625,-0.2306295782327652,0.1316932141780853,-0.0471379160881042
2024-12-07 16:13:03.564593000,8.478593017578126,-0.2316948473453521,0.0475373901426792,-0.0641821324825286
2024-12-07 16:13:03.574621200,8.48862109375,-0.2263685166835785,-0.0142479008063673,-0.0972053036093711
2024-12-07 16:13:03.584649500,8.4986494140625,-0.2189116775989532,-0.0419447571039199,-0.1387505829334259
2024-12-07 16:13:03.594677800,8.508677734375,-0.210389569401741,-0.0408794917166233,-0.1792306005954742
2024-12-07 16:13:03.604705800,8.518705810546875,-0.1944106072187423,-0.0280963294208049,-0.215449571609497
2024-12-07 16:13:03.614734000,8.528734130859375,-0.1731053441762924,-0.0014647374628111,-0.2506032586097717
2024-12-07 16:13:03.624762400,8.538762451171875,-0.1528653353452682,0.0315584354102611,-0.29108327627182
2024-12-07 16:13:03.634790700,8.548790771484375,-0.142212688922882,0.0592552907764911,-0.3304980397224426
2024-12-07 16:13:03.644818700,8.558818603515626,-0.143277958035469,0.080560564994812,-0.3486075401306152
2024-12-07 16:13:03.654847000,8.568846923828126,-0.1518000662326812,0.1103879436850547,-0.3347590863704681
2024-12-07 16:13:03.664875300,8.578875244140624,-0.1613874435424804,0.1508679687976837,-0.3006706535816192
2024-12-07 16:13:03.674903600,8.588903564453124,-0.1645832359790802,0.1764342933893203,-0.2665822207927704
2024-12-07 16:13:03.684931800,8.598931884765625,-0.1603221744298935,0.1785648167133331,-0.2388853728771209
2024-12-07 16:13:03.694959900,8.6089599609375,-0.153930589556694,0.1529984921216964,-0.2090579867362976
2024-12-07 16:13:03.704988200,8.61898828125,-0.153930589556694,0.1274321675300598,-0.1877527236938476
2024-12-07 16:13:03.715016400,8.629016357421875,-0.153930589556694,0.1157142594456672,-0.1685779690742492
2024-12-07 16:13:03.725044700,8.639044677734375,-0.1581916511058807,0.146606907248497,-0.1536642760038375
2024-12-07 16:13:03.735072800,8.64907275390625,-0.1656484901905059,0.2147837877273559,-0.1398158520460128
2024-12-07 16:13:03.745101000,8.65910107421875,-0.1667137593030929,0.2808301150798797,-0.1270326822996139
2024-12-07 16:13:03.755129300,8.66912939453125,-0.1571263819932937,0.314918577671051,-0.1249021589756012
2024-12-07 16:13:03.765157600,8.67915771484375,-0.1464737504720688,0.3021354079246521,-0.1440769135951995
2024-12-07 16:13:03.775185700,8.689185546875,-0.1454084813594818,0.2904174923896789,-0.1749695539474487
2024-12-07 16:13:03.785214000,8.6992138671875,-0.1592569202184677,0.2904174923896789,-0.1984053552150726
2024-12-07 16:13:03.795242200,8.7092421875,-0.1731053441762924,0.27763432264328,-0.2058621942996978
2024-12-07 16:13:03.805270500,8.7192705078125,-0.1858884990215301,0.2744385600090027,-0.2101232558488845
2024-12-07 16:13:03.815298800,8.729298828125,-0.1965411454439163,0.2850911915302276,-0.2186453640460968
2024-12-07 16:13:03.825326800,8.739326904296876,-0.2189116775989532,0.2712427675724029,-0.2346243113279342
2024-12-07 16:13:03.835355100,8.749355224609374,-0.2530001103878021,0.2541985511779785,-0.2474074810743332
2024-12-07 16:13:03.845383400,8.759383544921874,-0.2966759204864502,0.2488722205162048,-0.2676474750041961
2024-12-07 16:13:03.855411700,8.76941162109375,-0.3382211923599243,0.2499374747276306,-0.2953443527221679
2024-12-07 16:13:03.865439700,8.779439697265625,-0.3680485785007477,0.2382195889949798,-0.3209106624126434
2024-12-07 16:13:03.875468000,8.789468017578125,-0.3733749091625213,0.2371543198823928,-0.3443464636802673
2024-12-07 16:13:03.885496300,8.799496337890625,-0.3882885873317718,0.246741697192192,-0.3635212182998657
2024-12-07 16:13:03.895524600,8.809524658203125,-0.4095938801765442,0.2946785688400268,-0.3656517565250397
2024-12-07 16:13:03.905552600,8.819552734375,-0.4010717570781708,0.3607248961925506,-0.3486075401306152
2024-12-07 16:13:03.915581000,8.829580810546876,-0.3573959469795227,0.4107922911643982,-0.3219759464263916
2024-12-07 16:13:03.925609200,8.839609130859374,-0.2945453822612762,0.4342280924320221,-0.2964096069335937
2024-12-07 16:13:03.935637500,8.849637451171875,-0.2125200927257537,0.4278365075588226,-0.2783001363277435
2024-12-07 16:13:03.945665800,8.859665771484375,-0.116646371781826,0.4214449226856231,-0.2452769577503204
2024-12-07 16:13:03.955693800,8.86969384765625,0.0047936863265931,0.455533355474472,-0.1866874545812606
2024-12-07 16:13:03.965722000,8.87972216796875,0.1177116334438324,0.5002744197845459,-0.1376853287220001
2024-12-07 16:13:03.975750400,8.88975048828125,0.1763011366128921,0.5620597004890442,-0.1174453198909759
2024-12-07 16:13:03.985778700,8.89977880859375,0.1944106072187423,0.5854955315589905,-0.1131842583417892
2024-12-07 16:13:03.995806700,8.909806640625,0.1965411454439163,0.5183839201927185,-0.1014663651585578
2024-12-07 16:13:04.005835000,8.9198349609375,0.153930589556694,0.4342280924320221,0.0029294749256223
2024-12-07 16:13:04.015863300,8.92986328125,0.0559263415634632,0.3948133289813995,0.2191779911518097
2024-12-07 16:13:04.025891600,8.9398916015625,-0.0399473868310451,0.3511375188827514,0.4439486265182495
2024-12-07 16:13:04.035919600,8.949919677734375,-0.076166346669197,0.2893522381782532,0.6218476295471191
2024-12-07 16:13:04.045948000,8.959947998046875,-0.0591221302747726,0.2605901062488556,0.7539403438568115
2024-12-07 16:13:04.055976200,8.96997607421875,-0.0015978955198079,0.2573943138122558,0.8625972270965576
2024-12-07 16:13:04.066004500,8.98000439453125,0.076166346669197,0.2158490419387817,0.9797762632369996
2024-12-07 16:13:04.076032800,8.99003271484375,0.1571263819932937,0.1050616279244422,1.1022815704345703
2024-12-07 16:13:04.086060800,9.000060791015626,0.221042200922966,-0.0632500275969505,1.1992205381393433
2024-12-07 16:13:04.096089000,9.010089111328124,0.2306295782327652,-0.2304964214563369,1.2663321495056152
2024-12-07 16:13:04.106117400,9.020117431640625,0.1901495605707168,-0.2976080179214477,1.2865722179412842
2024-12-07 16:13:04.116145700,9.030145751953125,0.2146506309509277,-0.2890859246253967,1.2215911149978638
2024-12-07 16:13:04.126173700,9.040173583984377,0.3020022511482239,-0.2017343044281005,1.0937594175338743
2024-12-07 16:13:04.136202000,9.050201904296877,0.3914843797683716,0.0390152819454669,0.978710949420929
2024-12-07 16:13:04.146230300,9.060230224609375,0.4330296814441681,0.392682820558548,0.8775109052658081
2024-12-07 16:13:04.156258600,9.070258544921876,0.3957454562187195,0.7559376955032349,0.7251782417297363
2024-12-07 16:13:04.166286800,9.080286865234376,0.2881538271903991,1.0052094459533691,0.5440834164619446
2024-12-07 16:13:04.176315000,9.09031494140625,0.1390169113874435,1.0872347354888916,0.3619233071804046
2024-12-07 16:13:04.186343200,9.10034326171875,-0.0154463229700922,0.9988178014755248,0.1893506050109863
2024-12-07 16:13:04.196371500,9.110371337890625,-0.1059937328100204,0.7431545257568359,0.0540621280670166
2024-12-07 16:13:04.206399700,9.120399658203125,-0.076166346669197,0.3553985953330993,-0.0418115966022014
2024-12-07 16:13:04.216427800,9.130427734375,0.023968432098627,0.0731037184596061,-0.1067926809191703
2024-12-07 16:13:04.226456000,9.1404560546875,0.1805621832609176,0.0581900253891944,-0.1270326822996139
2024-12-07 16:13:04.236484400,9.150484375,0.2785664498806,0.258459597826004,-0.1174453198909759
2024-12-07 16:13:04.246512600,9.1605126953125,0.2455432713031768,0.5056007504463196,-0.1195758432149887
2024-12-07 16:13:04.256540700,9.170540771484376,0.2434127479791641,0.554602861404419,-0.1174453198909759
2024-12-07 16:13:04.266569000,9.18056884765625,0.2913496196269989,0.4310322999954223,-0.1238368973135948
2024-12-07 16:13:04.276597200,9.19059716796875,0.3520696461200714,0.3074617087841034,-0.1163800507783889
2024-12-07 16:13:04.286625500,9.20062548828125,0.4117243885993957,0.2701774835586548,-0.0748347714543342
2024-12-07 16:13:04.296653800,9.21065380859375,0.4532696902751922,0.20093534886837,-0.0013315795222297
2024-12-07 16:13:04.306681900,9.220681884765623,0.4554001986980438,0.0262321177870035,0.1083905771374702
2024-12-07 16:13:04.316710100,9.230710205078124,0.4042675495147705,-0.1878858804702758,0.2660495936870575
2024-12-07 16:13:04.326738400,9.240738525390626,0.3265033066272735,-0.4211786091327667,0.439687579870224
2024-12-07 16:13:04.336766700,9.2507666015625,0.2295643091201782,-0.652340829372406,0.5739107728004456
2024-12-07 16:13:04.346794800,9.260794677734374,0.1315600574016571,-0.803608238697052,0.6484792232513428
2024-12-07 16:13:04.356823000,9.270822998046874,0.0303600132465362,-0.8803072571754456,0.6527402997016907
2024-12-07 16:13:04.366851300,9.280851318359376,-0.0537958145141601,-0.870719850063324,0.6250434517860413
2024-12-07 16:13:04.376879600,9.290879638671877,-0.1134505793452262,-0.7631282210350037,0.5994771122932434
2024-12-07 16:13:04.386907600,9.30090771484375,-0.1635179668664932,-0.6725808382034302,0.5952160358428955
2024-12-07 16:13:04.396936000,9.31093603515625,-0.1837579756975174,-0.6544713377952576,0.6005423665046692
2024-12-07 16:13:04.406964200,9.320964111328124,-0.1741705983877182,-0.6416881680488586,0.5771065950393677
2024-12-07 16:13:04.416992500,9.330992431640626,-0.1709748208522796,-0.6597976684570312,0.5249086618423462
2024-12-07 16:13:04.427020800,9.341020751953126,-0.1624527126550674,-0.6928208470344543,0.4460791349411011
2024-12-07 16:13:04.437048800,9.351048828125,-0.1496695429086685,-0.727974534034729,0.3438138365745544
2024-12-07 16:13:04.447077000,9.3610771484375,-0.1368863731622696,-0.7748461365699768,0.2372874766588211
2024-12-07 16:13:04.457105400,9.37110546875,-0.0996021479368209,-0.8142609000205994,0.138217955827713
2024-12-07 16:13:04.467133700,9.3811337890625,-0.0335558056831359,-0.8238482475280762,0.0338221192359924
2024-12-07 16:13:04.477161700,9.39116162109375,0.0367515943944454,-0.8334356546401978,-0.0684431865811348
2024-12-07 16:13:04.487190000,9.40118994140625,0.0921453014016151,-0.8238482475280762,-0.1451421678066253
2024-12-07 16:13:04.497218300,9.41121826171875,0.1209074258804321,-0.7716503739356995,-0.1632516533136367
2024-12-07 16:13:04.507246600,9.42124658203125,0.1571263819932937,-0.6842987537384033,-0.15899059176445
2024-12-07 16:13:04.517274600,9.431274658203124,0.1763011366128921,-0.6097303032875061,-0.1664474457502365
2024-12-07 16:13:04.527303000,9.441302978515624,0.1912148296833038,-0.5756418108940125,-0.1749695539474487
2024-12-07 16:13:04.537331200,9.451331298828125,0.2135853618383407,-0.5681849718093872,-0.1930790394544601
2024-12-07 16:13:04.547359500,9.461359375,0.2253032624721527,-0.5862944722175598,-0.2229064106941223
2024-12-07 16:13:04.557387800,9.4713876953125,0.2370211631059646,-0.6022734045982361,-0.2420811653137207
2024-12-07 16:13:04.567415800,9.481415771484375,0.2466085255146026,-0.6651239991188049,-0.2484727501869201
2024-12-07 16:13:04.577444000,9.491444091796875,0.2593916952610016,-0.7386271953582764,-0.2303632646799087
2024-12-07 16:13:04.587472400,9.501472412109376,0.2775011658668518,-0.7588672041893005,-0.1802958697080612
2024-12-07 16:13:04.597500700,9.511500732421876,0.2881538271903991,-0.7269092798233032,-0.1249021589756012
2024-12-07 16:13:04.607528700,9.52152880859375,0.2689790725708008,-0.6693850159645081,-0.0705737173557281
2024-12-07 16:13:04.617557000,9.531556884765624,0.2039979845285415,-0.6257092356681824,0.0221042204648256
2024-12-07 16:13:04.627585300,9.541585205078125,0.1123853176832199,-0.5777723789215088,0.1723063886165619
2024-12-07 16:13:04.637613600,9.551613525390623,0.0655137151479721,-0.5159870982170105,0.3289001584053039
2024-12-07 16:13:04.647641600,9.5616416015625,0.1688442826271057,-0.3700459599494934,0.4759065210819244
2024-12-07 16:13:04.657670000,9.571669921875,0.3765707015991211,-0.1111868917942047,0.5621928572654724
2024-12-07 16:13:04.667698200,9.5816982421875,0.5448823571205139,0.1998700946569442,0.4546012580394745
2024-12-07 16:13:04.677726500,9.5917265625,0.6460824012756348,0.4534028470516205,0.2085253596305847
2024-12-07 16:13:04.687754800,9.601754638671874,0.6173202991485596,0.4565986394882202,-0.0482031814754009
2024-12-07 16:13:04.697782800,9.61178271484375,0.4127896726131439,0.2083922028541565,-0.226102203130722
2024-12-07 16:13:04.707811000,9.62181103515625,0.0985368862748146,-0.0643152892589569,-0.3464770019054413
2024-12-07 16:13:04.717839400,9.63183935546875,-0.1976063996553421,-0.1857553422451019,-0.4956139028072357
2024-12-07 16:13:04.727867600,9.64186767578125,-0.4074633419513702,-0.3050648868083954,-0.6383592486381531
2024-12-07 16:13:04.737895700,9.651895751953123,-0.5267728567123413,-0.4414186179637909,-0.7044056057929993
2024-12-07 16:13:04.747924000,9.661924072265624,-0.5597960352897644,-0.5042691826820374,-0.6713824272155762
2024-12-07 16:13:04.757952300,9.6719521484375,-0.5278381109237671,-0.5149217844009399,-0.5797697305679321
2024-12-07 16:13:04.767980500,9.68198046875,-0.4298338890075683,-0.4946818053722381,-0.4775044322013855
2024-12-07 16:13:04.778008600,9.692008544921874,-0.2902843356132507,-0.4307659864425659,-0.3954791128635406
2024-12-07 16:13:04.788036900,9.702036865234374,-0.1464737504720688,-0.2997385561466217,-0.349672794342041
2024-12-07 16:13:04.798065200,9.712065185546876,-0.0314252786338329,-0.0994689911603927,-0.3464770019054413
2024-12-07 16:13:04.808093400,9.722093505859377,0.0346210673451423,0.1231711059808731,-0.358194887638092
2024-12-07 16:13:04.818121700,9.732121826171875,0.0484694950282573,0.258459597826004,-0.3518033027648926
2024-12-07 16:13:04.828150000,9.74214990234375,0.023968432098627,0.2243711501359939,-0.3155843615531921
2024-12-07 16:13:04.838178300,9.75217822265625,-0.0207726415246725,0.079495295882225,-0.284691721200943
2024-12-07 16:13:04.848206600,9.76220654296875,-0.0697747692465782,-0.0632500275969505,-0.293213814496994
2024-12-07 16:13:04.858235000,9.77223486328125,-0.1198421567678451,-0.1378184854984283,-0.3209106624126434
2024-12-07 16:13:04.868263200,9.78226318359375,-0.1613874435424804,-0.1548627018928527,-0.3571296334266662
2024-12-07 16:13:04.878291500,9.79229150390625,-0.1816274523735046,-0.1356879621744156,-0.3890875577926636
2024-12-07 16:13:04.888319700,9.80231982421875,-0.1848232448101043,-0.1026647835969924,-0.3858917653560638
2024-12-07 16:13:04.898348000,9.81234814453125,-0.1688442826271057,-0.0952079370617866,-0.3379548788070678
2024-12-07 16:13:04.908376300,9.822376220703124,-0.1315600574016571,-0.085620567202568,-0.2783001363277435
2024-12-07 16:13:04.918404600,9.832404541015626,-0.0708400309085846,-0.0195742193609476,-0.2431464195251464
2024-12-07 16:13:04.928433000,9.842432861328126,0.0197073780000209,0.0933437272906303,-0.2474074810743332
2024-12-07 16:13:04.938461200,9.852461181640624,0.1059937328100204,0.2414153665304184,-0.2644517123699188
2024-12-07 16:13:04.948489500,9.862489501953124,0.1528653353452682,0.3745733201503753,-0.2665822207927704
2024-12-07 16:13:04.958517800,9.872517822265625,0.1624527126550674,0.4512723088264465,-0.2548643350601196
2024-12-07 16:13:04.968546000,9.882546142578123,0.1304948031902313,0.4693817794322967,-0.2474074810743332
2024-12-07 16:13:04.978574300,9.89257421875,0.0846884623169899,0.4193144142627716,-0.2420811653137207
2024-12-07 16:13:04.988602600,9.9026025390625,0.0186421144753694,0.3117227852344513,-0.2420811653137207
2024-12-07 16:13:04.998630700,9.912630615234375,-0.0442084409296512,0.1977395564317703,-0.237820103764534
2024-12-07 16:13:05.008659000,9.922658935546876,-0.0953410938382148,0.1061268895864486,-0.2399506419897079
2024-12-07 16:13:05.018687200,9.932687255859374,-0.1230379492044448,0.0315584354102611,-0.2580601274967193
2024-12-07 16:13:05.028715500,9.942715576171874,-0.1209074258804321,-0.0227700099349021,-0.293213814496994
2024-12-07 16:13:05.038743800,9.952743896484376,-0.0996021479368209,-0.0557931847870349,-0.3336938321590423
2024-12-07 16:13:05.048772000,9.962772216796877,-0.0655137151479721,-0.0888163596391677,-0.3709780573844909
2024-12-07 16:13:05.058800400,9.97280029296875,-0.0388821214437484,-0.1143826842308044,-0.404001235961914
2024-12-07 16:13:05.068828700,9.98282861328125,-0.023968432098627,-0.1282311081886291,-0.4210454523563385
2024-12-07 16:13:05.078857000,9.99285693359375,-0.023968432098627,-0.1356879621744156,-0.4199801981449127
2024-12-07 16:13:05.088885200,10.00288525390625,-0.0420779138803482,-0.141014277935028,-0.4093275666236877
2024-12-07 16:13:05.098913500,10.01291357421875,-0.0676442384719848,-0.1399490088224411,-0.3890875577926636
2024-12-07 16:13:05.108941800,10.02294189453125,-0.0964063629508018,-0.1165132075548172,-0.3667170107364654
2024-12-07 16:13:05.118970000,10.03297021484375,-0.1241032108664512,-0.0632500275969505,-0.3432812094688415
2024-12-07 16:13:05.128998400,10.042998291015625,-0.1411474347114563,0.0081226350739598,-0.3262369930744171
2024-12-07 16:13:05.139026700,10.053026611328123,-0.1507348120212555,0.0762995108962059,-0.3198454082012176
2024-12-07 16:13:05.149055000,10.063054931640623,-0.1560611277818679,0.1402153223752975,-0.3123885691165924
2024-12-07 16:13:05.159083000,10.0730830078125,-0.1667137593030929,0.1934785097837448,-0.3006706535816192
2024-12-07 16:13:05.169111300,10.083111328125,-0.1816274523735046,0.2243711501359939,-0.2804306447505951
2024-12-07 16:13:05.179139600,10.0931396484375,-0.2029327303171157,0.2328932583332061,-0.2527337968349457
2024-12-07 16:13:05.189167900,10.10316796875,-0.2231727391481399,0.2211753576993942,-0.2239716798067093
2024-12-07 16:13:05.199196200,10.113196044921876,-0.2370211631059646,0.190282717347145,-0.2058621942996978
2024-12-07 16:13:05.209224200,10.12322412109375,-0.2689790725708008,0.1519332230091095,-0.1952095627784729
2024-12-07 16:13:05.219252500,10.13325244140625,-0.2988064587116241,0.1295626908540725,-0.1813611388206482
2024-12-07 16:13:05.229280800,10.14328076171875,-0.3201117217540741,0.1157142594456672,-0.1696432381868362
2024-12-07 16:13:05.239309000,10.15330908203125,-0.3275685608386993,0.0976047813892364,-0.1653821766376495
2024-12-07 16:13:05.249337000,10.163337158203126,-0.3169159293174743,0.0741689801216125,-0.1675127148628235
2024-12-07 16:13:05.259365400,10.173365478515626,-0.3020022511482239,0.0677774026989936,-0.1728390306234359
2024-12-07 16:13:05.269393700,10.1833935546875,-0.2849580347537994,0.0933437272906303,-0.1749695539474487
2024-12-07 16:13:05.279422000,10.193421875,-0.2753706574440002,0.134889006614685,-0.1760348230600357
2024-12-07 16:13:05.289450000,10.203449951171876,-0.2593916952610016,0.1870869249105453,-0.1749695539474487
2024-12-07 16:13:05.299478300,10.213478271484377,-0.2519348561763763,0.2286322116851806,-0.170708492398262
2024-12-07 16:13:05.309506600,10.223506591796877,-0.2498043179512024,0.2616553902626037,-0.1643169224262237
2024-12-07 16:13:05.319534800,10.233534912109375,-0.2498043179512024,0.2904174923896789,-0.170708492398262
2024-12-07 16:13:05.329563100,10.243563232421875,-0.2561959028244018,0.3245059251785278,-0.1941442936658859
2024-12-07 16:13:05.339591200,10.253591064453126,-0.2444780021905899,0.3383543491363525,-0.216514840722084
2024-12-07 16:13:05.349619500,10.263619384765626,-0.2284990549087524,0.3426154255867004,-0.2356895804405212
2024-12-07 16:13:05.359647700,10.273647705078124,-0.211454838514328,0.3404848873615265,-0.2420811653137207
2024-12-07 16:13:05.369676000,10.283676025390625,-0.2071937769651413,0.2989396154880523,-0.2431464195251464
2024-12-07 16:13:05.379704000,10.2937041015625,-0.2061285078525543,0.2595248520374298,-0.2303632646799087
2024-12-07 16:13:05.389732400,10.303732421875,-0.1805621832609176,0.2478069514036178,-0.1930790394544601
2024-12-07 16:13:05.399760600,10.3137607421875,-0.1294295340776443,0.2616553902626037,-0.1515337526798248
2024-12-07 16:13:05.409789000,10.323788818359375,-0.0623179227113723,0.3191796243190765,-0.120641104876995
2024-12-07 16:13:05.419817000,10.33381689453125,0.0026631590444594,0.4161186218261719,-0.1153147891163826
2024-12-07 16:13:05.429845200,10.34384521484375,0.0506000220775604,0.5269060134887695,-0.1355548053979873
2024-12-07 16:13:05.439873500,10.35387353515625,0.0559263415634632,0.6217144727706909,-0.1387505829334259
2024-12-07 16:13:05.449901800,10.36390185546875,0.021837905049324,0.6504766345024109,-0.0844221413135528
2024-12-07 16:13:05.459930000,10.37393017578125,-0.0260989591479301,0.6057355403900146,0.0199736934155225
2024-12-07 16:13:05.469958100,10.383958251953125,-0.0814926698803901,0.5641902685165405,0.148870587348938
2024-12-07 16:13:05.479986400,10.393986328125,-0.1347558498382568,0.5386239290237427,0.2788327634334564
2024-12-07 16:13:05.490014700,10.4040146484375,-0.1592569202184677,0.5290365815162659,0.4045338630676269
2024-12-07 16:13:05.500043000,10.41404296875,-0.1603221744298935,0.5482112765312195,0.5227781534194946
2024-12-07 16:13:05.510071000,10.424071044921876,-0.1379516422748565,0.5929523706436157,0.6186518669128418
2024-12-07 16:13:05.520099300,10.434099365234376,-0.0985368862748146,0.6483460664749146,0.7006771564483643
2024-12-07 16:13:05.530127600,10.444127685546874,-0.0559263415634632,0.6952176690101624,0.7880287766456604
2024-12-07 16:13:05.540156000,10.454156005859376,-0.0154463229700922,0.7111966609954834,0.8594014644622803
2024-12-07 16:13:05.550184000,10.464183837890625,0.0186421144753694,0.676042914390564,0.9211867451667786
2024-12-07 16:13:05.560212200,10.474212158203123,0.0292947497218847,0.5727123618125916,1.0554099082946775
2024-12-07 16:13:05.570240500,10.484240478515623,0.0143810594454407,0.4491417706012726,1.2098731994628906
2024-12-07 16:13:05.580268800,10.494268798828124,0.0143810594454407,0.3415501415729522,1.2460922002792358
2024-12-07 16:13:05.590297000,10.504297119140626,0.0708400309085846,0.2829606533050537,1.096955180168152
2024-12-07 16:13:05.600325000,10.5143251953125,0.2082590460777282,0.3127880394458771,0.8157256245613098
2024-12-07 16:13:05.610353400,10.524353515625,0.3286338448524475,0.4171838760375976,0.5025381445884705
2024-12-07 16:13:05.620381700,10.534381591796874,0.3488738536834717,0.5396891832351685,0.324639081954956
2024-12-07 16:13:05.630410000,10.544409912109376,0.3147853910923004,0.5854955315589905,0.2873548567295074
2024-12-07 16:13:05.640438000,10.55443798828125,0.2455432713031768,0.4406196773052215,0.2671148478984833
2024-12-07 16:13:05.650466300,10.56446630859375,0.153930589556694,0.1604553312063217,0.2362222075462341
2024-12-07 16:13:05.660494600,10.57449462890625,0.0708400309085846,-0.1175784766674041,0.2000032514333725
2024-12-07 16:13:05.670523000,10.58452294921875,0.0111852679401636,-0.3071953952312469,0.1456748098134994
2024-12-07 16:13:05.680551200,10.59455126953125,-0.0090547408908605,-0.3221091032028198,0.0774979293346405
2024-12-07 16:13:05.690579200,10.6045791015625,0.0271642226725816,-0.1697763949632644,0.0103863207623362
2024-12-07 16:13:05.700607500,10.614607421875,0.0569916032254695,0.0603205524384975,-0.0482031814754009
2024-12-07 16:13:05.710635800,10.6246357421875,0.0793621391057968,0.212653249502182,-0.076965294778347
2024-12-07 16:13:05.720664000,10.6346640625,0.1304948031902313,0.2424806356430053,-0.0609863437712192
2024-12-07 16:13:05.730692000,10.644692138671877,0.1944106072187423,0.20093534886837,-0.0194410607218742
2024-12-07 16:13:05.740720400,10.654720458984375,0.2604569494724273,0.1199753209948539,0.0284958016127347
2024-12-07 16:13:05.750748700,10.664748779296875,0.335025429725647,0.0475373901426792,0.0806937217712402
2024-12-07 16:13:05.760776700,10.674776611328124,0.4010717570781708,-0.0195742193609476,0.1318263709545135
2024-12-07 16:13:05.770805000,10.684804931640626,0.4745749533176422,-0.1026647835969924,0.1893506050109863
2024-12-07 16:13:05.780833300,10.694833251953124,0.5363602638244629,-0.2091911435127258,0.2543317079544067
2024-12-07 16:13:05.790861300,10.704861328125,0.5629918575286865,-0.3380880355834961,0.32676962018013
2024-12-07 16:13:05.800889600,10.7148896484375,0.5640571117401123,-0.4755070507526397,0.3949464857578277
2024-12-07 16:13:05.810917600,10.724917724609377,0.5502086877822876,-0.6267744898796082,0.450340211391449
2024-12-07 16:13:05.820946000,10.73494580078125,0.5299686789512634,-0.7652587890625,0.5004075765609741
2024-12-07 16:13:05.830974000,10.744973876953123,0.5065328478813171,-0.8419577479362488,0.5515402555465698
2024-12-07 16:13:05.841002200,10.755002197265624,0.464987576007843,-0.8419577479362488,0.5749760270118713
2024-12-07 16:13:05.851030500,10.765030517578126,0.3957454562187195,-0.7801724672317505,0.5408875942230225
2024-12-07 16:13:05.861058600,10.77505859375,0.3446127772331238,-0.7407577037811279,0.4546012580394745
2024-12-07 16:13:05.871086800,10.7850869140625,0.2721748650074005,-0.6374271512031555,0.3438138365745544
2024-12-07 16:13:05.881115000,10.795114990234374,0.2061285078525543,-0.5543365478515625,0.2426137924194336
2024-12-07 16:13:05.891143200,10.80514306640625,0.1581916511058807,-0.5490102767944336,0.1616537570953369
2024-12-07 16:13:05.901171200,10.815171142578125,0.116646371781826,-0.6171871423721313,0.0977379381656646
2024-12-07 16:13:05.911199500,10.825199462890623,0.0846884623169899,-0.6992124319076538,0.0657800287008285
2024-12-07 16:13:05.921227800,10.835227783203123,0.0825579315423965,-0.7514103651046753,0.0785631909966468
2024-12-07 16:13:05.931255800,10.845255859375,0.088949516415596,-0.8227829933166504,0.127565324306488
2024-12-07 16:13:05.941284000,10.8552841796875,0.0932105705142021,-0.8877640962600708,0.1989379823207855
2024-12-07 16:13:05.951312100,10.86531201171875,0.0868189856410026,-0.9932252168655396,0.2830938100814819
2024-12-07 16:13:05.961340400,10.87534033203125,0.0964063629508018,-1.0656630992889404,0.3470096290111542
2024-12-07 16:13:05.971368400,10.885368408203124,0.1272990107536316,-1.1029473543167114,0.3661843836307525
2024-12-07 16:13:05.981396700,10.895396728515625,0.1837579756975174,-1.0528799295425415,0.3576622605323791
2024-12-07 16:13:05.991425000,10.905425048828125,0.2359558939933776,-0.925048291683197,0.3193127810955047
2024-12-07 16:13:06.001453000,10.915453125,0.2806969583034515,-0.803608238697052,0.2468748539686203
2024-12-07 16:13:06.011481300,10.9254814453125,0.2988064587116241,-0.7663240432739258,0.1552621722221374
2024-12-07 16:13:06.021509400,10.93550927734375,0.2806969583034515,-0.8089345693588257,0.0796284601092338
2024-12-07 16:13:06.031537700,10.94553759765625,0.2327601015567779,-0.8685893416404724,0.0146473748609423
2024-12-07 16:13:06.041565700,10.955565673828126,0.2039979845285415,-0.7886945605278015,-0.0237021166831254
2024-12-07 16:13:06.051594000,10.965593994140624,0.2018674612045288,-0.5287702679634094,0.0061252657324075
2024-12-07 16:13:06.061622000,10.9756220703125,0.2380864173173904,-0.1697763949632644,0.0679105594754219
2024-12-07 16:13:06.071650300,10.985650390625,0.2391516864299774,0.1125184744596481,0.1073253154754638
2024-12-07 16:13:06.081678600,10.9956787109375,0.1848232448101043,0.212653249502182,0.0924116224050521
2024-12-07 16:13:06.091706600,11.00570654296875,0.1464737504720688,0.2222406268119812,0.088150568306446
2024-12-07 16:13:06.101735000,11.01573486328125,0.1038632020354271,0.2701774835586548,0.1083905771374702
2024-12-07 16:13:06.111763000,11.025762939453124,0.0346210673451423,0.3159838318824768,0.0519316010177135
2024-12-07 16:13:06.121791200,11.035791259765626,-0.0420779138803482,0.246741697192192,-0.1302284747362136
2024-12-07 16:13:06.131819300,11.0458193359375,-0.1454084813594818,0.0443415977060794,-0.3336938321590423
2024-12-07 16:13:06.141847600,11.05584765625,-0.2732401192188263,-0.1846900880336761,-0.4881570637226105
2024-12-07 16:13:06.151875800,11.065875732421874,-0.4063980877399444,-0.3732417523860931,-0.5872265696525574
2024-12-07 16:13:06.161903900,11.07590380859375,-0.510793924331665,-0.5085302591323853,-0.6522076725959778
2024-12-07 16:13:06.171932200,11.08593212890625,-0.586427628993988,-0.6033387184143066,-0.7139929533004761
2024-12-07 16:13:06.181960200,11.095960205078123,-0.6375603079795837,-0.6171871423721313,-0.7576687932014465
2024-12-07 16:13:06.191988500,11.105988525390623,-0.6439518928527832,-0.5639239549636841,-0.7672561407089233
2024-12-07 16:13:06.202016500,11.1160166015625,-0.569383442401886,-0.4446144104003906,-0.7246456146240234
2024-12-07 16:13:06.212044800,11.126044921875,-0.4532696902751922,-0.342349112033844,-0.6383592486381531
2024-12-07 16:13:06.222073000,11.136072998046876,-0.3296990990638733,-0.2912164330482483,-0.5307676196098328
2024-12-07 16:13:06.232101400,11.146101318359374,-0.2039979845285415,-0.2475406378507614,-0.4338286221027374
2024-12-07 16:13:06.242129400,11.15612939453125,-0.077231615781784,-0.1548627018928527,-0.3805654346942901
2024-12-07 16:13:06.252157700,11.16615771484375,0.0388821214437484,-0.0067910556681454,-0.3954791128635406
2024-12-07 16:13:06.262186000,11.17618603515625,0.1241032108664512,0.1103879436850547,-0.4412854611873626
2024-12-07 16:13:06.272214300,11.18621435546875,0.1699095517396927,0.1263668984174728,-0.481765478849411
2024-12-07 16:13:06.282242600,11.19624267578125,0.1816274523735046,0.0890826731920242,-0.5265065431594849
2024-12-07 16:13:06.292270600,11.2062705078125,0.1720400750637054,0.052863709628582,-0.5744433999061584
2024-12-07 16:13:06.302299000,11.216298828125,0.1251684725284576,0.0059921080246567,-0.6106624007225037
2024-12-07 16:13:06.312327200,11.2263271484375,0.0452737063169479,-0.0376837030053138,-0.613858163356781
2024-12-07 16:13:06.322355500,11.23635546875,-0.0559263415634632,-0.06964161247015,-0.5787044763565063
2024-12-07 16:13:06.332383500,11.246383544921876,-0.1411474347114563,-0.1005342528223991,-0.5115928649902344
2024-12-07 16:13:06.342411800,11.256411865234377,-0.1784316599369049,-0.0675110816955566,-0.4434159994125366
2024-12-07 16:13:06.352440000,11.266440185546877,-0.1784316599369049,0.0230363253504037,-0.4093275666236877
2024-12-07 16:13:06.362468400,11.27646826171875,-0.1645832359790802,0.135954275727272,-0.4071970283985138
2024-12-07 16:13:06.372496400,11.286496337890624,-0.1241032108664512,0.2829606533050537,-0.3976096510887146
2024-12-07 16:13:06.382524700,11.296524658203126,-0.076166346669197,0.4107922911643982,-0.3773696422576904
2024-12-07 16:13:06.392553000,11.306552978515626,-0.0399473868310451,0.4885565340518951,-0.3443464636802673
2024-12-07 16:13:06.402581200,11.316581298828124,-0.0186421144753694,0.5162534117698669,-0.2964096069335937
2024-12-07 16:13:06.412609500,11.326609619140624,-0.0047936863265931,0.5002744197845459,-0.2452769577503204
2024-12-07 16:13:06.422637600,11.336637451171876,-0.0026631590444594,0.4502070546150207,-0.1994706094264984
2024-12-07 16:13:06.432665900,11.346665771484377,-0.0165115855634212,0.3969438672065735,-0.15899059176445
2024-12-07 16:13:06.442694100,11.356694091796877,-0.0282294861972332,0.344745934009552,-0.120641104876995
2024-12-07 16:13:06.452722400,11.366722412109375,-0.0165115855634212,0.2946785688400268,-0.092944249510765
2024-12-07 16:13:06.462750500,11.37675048828125,0.0143810594454407,0.2520680129528045,-0.0854874104261398
2024-12-07 16:13:06.472778800,11.38677880859375,0.0410126484930515,0.2446111589670181,-0.1099884733557701
2024-12-07 16:13:06.482807000,11.39680712890625,0.0580568686127662,0.2605901062488556,-0.1568600684404373
2024-12-07 16:13:06.492835300,11.40683544921875,0.0729705616831779,0.2680469751358032,-0.1973400861024856
2024-12-07 16:13:06.502863600,11.416863525390625,0.0697747692465782,0.2446111589670181,-0.228232741355896
2024-12-07 16:13:06.512891600,11.4268916015625,0.0559263415634632,0.1838911324739456,-0.2410158962011337
2024-12-07 16:13:06.522920000,11.436919921875,0.0346210673451423,0.1008005738258361,-0.2442116886377334
2024-12-07 16:13:06.532948200,11.4469482421875,-0.0026631590444594,0.04114580899477,-0.2484727501869201
2024-12-07 16:13:06.542976300,11.456976318359375,-0.0388821214437484,0.0336889624595642,-0.2452769577503204
2024-12-07 16:13:06.553004500,11.467004638671876,-0.0623179227113723,0.0592552907764911,-0.237820103764534
2024-12-07 16:13:06.563032800,11.47703271484375,-0.0825579315423965,0.1050616279244422,-0.2367548495531082
2024-12-07 16:13:06.573060900,11.487060791015624,-0.0996021479368209,0.1370195299386978,-0.2495380043983459
2024-12-07 16:13:06.583089200,11.497089111328124,-0.0974716246128082,0.1625858694314956,-0.2644517123699188
2024-12-07 16:13:06.593117200,11.5071171875,-0.0921453014016151,0.1817606091499328,-0.2836264371871948
2024-12-07 16:13:06.603145500,11.5171455078125,-0.0900147780776023,0.2094574570655822,-0.2964096069335937
2024-12-07 16:13:06.613173500,11.527173583984377,-0.0996021479368209,0.2296974658966064,-0.303866446018219
