time,seconds_elapsed,z,y,x
2024-12-07 19:55:48.519841800,0.040841796875,-1.0609707832336426,0.1819798946380615,-0.9201288819313048
2024-12-07 19:55:48.529854700,0.050854736328125,-1.3367043733596802,0.1291787326335907,-0.8543948531150818
2024-12-07 19:55:48.539869000,0.060868896484375,-1.6435654163360596,-0.0347110964357852,-0.7835713028907776
2024-12-07 19:55:48.549881900,0.0708818359375,-2.0173797607421875,-0.3760870695114136,-0.8196321129798889
2024-12-07 19:55:48.559894800,0.080894775390625,-2.484403610229492,-0.8529082536697388,-0.9993578791618348
2024-12-07 19:55:48.569908000,0.090907958984375,-3.004852533340454,-1.3116686344146729,-1.2280161380767822
2024-12-07 19:55:48.579922000,0.100921875,-3.5083107948303223,-1.413651466369629,-1.368282437324524
2024-12-07 19:55:48.589934800,0.110934814453125,-3.896205186843872,-1.2140475511550903,-1.3165369033813477
2024-12-07 19:55:48.599948000,0.120947998046875,-4.135305881500244,-0.7851200699806213,-1.0425500869750977
2024-12-07 19:55:48.609961700,0.130961669921875,-4.205304145812988,-0.3565175533294678,-0.6754458546638489
2024-12-07 19:55:48.619975000,0.140974853515625,-4.148586273193359,0.0391938351094722,-0.3437867164611816
2024-12-07 19:55:48.629987800,0.15098779296875,-4.050112247467041,0.4796470999717712,-0.0230861697345972
2024-12-07 19:55:48.640000800,0.161000732421875,-3.98769211769104,1.0355132818222046,0.2715137600898742
2024-12-07 19:55:48.650015000,0.171014892578125,-3.936307668685913,1.472469925880432,0.4446937441825866
2024-12-07 19:55:48.660028000,0.18102783203125,-3.836944580078125,1.6628133058547974,0.3901205360889435
2024-12-07 19:55:48.670040800,0.191040771484375,-3.4431517124176025,1.7722148895263672,0.1600676327943802
2024-12-07 19:55:48.680054800,0.2010546875,-2.793839931488037,1.821960210800171,-0.1478657275438308
2024-12-07 19:55:48.690067700,0.211067626953125,-2.136172294616699,1.6870113611221311,-0.4824314713478088
2024-12-07 19:55:48.700081000,0.221080810546875,-1.5000218152999878,1.367808818817139,-0.7687110304832458
2024-12-07 19:55:48.710094000,0.231093994140625,-0.9244242906570436,0.9935409426689148,-0.8964599370956421
2024-12-07 19:55:48.720107800,0.241107666015625,-0.4652851223945617,0.5444912314414978,-0.8340584635734558
2024-12-07 19:55:48.730121000,0.251120849609375,0.083125539124012,0.1184533685445785,-0.6803048253059387
2024-12-07 19:55:48.740134000,0.2611337890625,0.7265154123306274,-0.2030776292085647,-0.5138998627662659
2024-12-07 19:55:48.750147800,0.27114794921875,1.3510642051696775,-0.5131127238273621,-0.3404988050460815
2024-12-07 19:55:48.760161000,0.2811611328125,1.8325893878936768,-0.7101926207542419,-0.1163163632154464
2024-12-07 19:55:48.770173700,0.291173583984375,2.068908929824829,-0.6324400305747986,0.1354706138372421
2024-12-07 19:55:48.780187000,0.301186767578125,1.900362849235535,-0.2193827331066131,0.3297409415245056
2024-12-07 19:55:48.790200800,0.311200927734375,1.1638102531433103,0.5327091813087463,0.3793082237243652
2024-12-07 19:55:48.800213800,0.3212138671875,0.1345314681529998,1.205649733543396,0.2663332223892212
2024-12-07 19:55:48.810227000,0.33122705078125,-0.4720902740955353,1.2876085042953491,0.1098967641592025
2024-12-07 19:55:48.820241000,0.341240966796875,-0.5849190950393677,0.901771366596222,-0.029935210943222
2024-12-07 19:55:48.830253800,0.35125390625,-0.464330643415451,0.3509913086891174,-0.0900243818759918
2024-12-07 19:55:48.840267000,0.36126708984375,-0.3007886409759521,-0.0863615497946739,-0.0771613493561744
2024-12-07 19:55:48.850280000,0.371280029296875,-0.1518708318471908,-0.2393862605094909,-0.037111934274435
2024-12-07 19:55:48.860294000,0.3812939453125,-0.0703058093786239,-0.1762028336524963,-0.0201058629900217
2024-12-07 19:55:48.870307000,0.39130712890625,-0.055092230439186,-0.053471852093935,-0.0474056601524353
2024-12-07 19:55:48.880319700,0.40131982421875,-0.0440247654914855,0.0788028538227081,-0.0880943164229393
2024-12-07 19:55:48.890334000,0.411333984375,0.0217361375689506,0.2895534634590149,-0.0794795230031013
2024-12-07 19:55:48.900347000,0.421346923828125,0.1056239977478981,0.3940506279468536,-0.03465311601758
2024-12-07 19:55:48.910359800,0.43135986328125,0.1401018053293228,0.3392270505428314,-0.0072462572716176
2024-12-07 19:55:48.920373000,0.441373046875,0.1323743462562561,0.2110238969326019,-0.0182362794876098
2024-12-07 19:55:48.930386700,0.45138671875,0.1158947125077247,0.1158555820584297,-0.053547665476799
2024-12-07 19:55:48.940399900,0.46139990234375,0.097922533750534,0.0861819013953208,-0.0763366073369979
2024-12-07 19:55:48.950412800,0.471412841796875,0.0704855844378471,0.1129706427454948,-0.0743267238140106
2024-12-07 19:55:48.960426800,0.4814267578125,0.0390577167272567,0.1685284078121185,-0.0522796660661697
2024-12-07 19:55:48.970440000,0.49143994140625,0.0014147325418889,0.2269834578037262,-0.0288790017366409
2024-12-07 19:55:48.980452900,0.501452880859375,-0.0430713258683681,0.2754617631435394,-0.0189032927155494
2024-12-07 19:55:48.990465800,0.5114658203125,-0.099716231226921,0.3122780919075012,-0.0195975787937641
2024-12-07 19:55:49.000480000,0.52147998046875,-0.152114599943161,0.3374560475349426,-0.0189365465193986
2024-12-07 19:55:49.010493000,0.531492919921875,-0.1908342987298965,0.3386313021183014,-0.0143950562924146
2024-12-07 19:55:49.020505900,0.541505859375,-0.2018437534570694,0.3056830763816833,-0.0151808802038431
2024-12-07 19:55:49.030520000,0.55152001953125,-0.1928894072771072,0.2460261285305023,-0.0144988447427749
2024-12-07 19:55:49.040532700,0.56153271484375,-0.1662692576646804,0.1436590254306793,-0.0260936375707387
2024-12-07 19:55:49.050546000,0.5715458984375,-0.1266171932220459,2.59621301665e-05,-0.0588337443768978
2024-12-07 19:55:49.060560000,0.581559814453125,-0.0914474427700042,-0.1126873642206192,-0.114048033952713
2024-12-07 19:55:49.070572800,0.59157275390625,-0.0799311399459838,-0.1705376058816909,-0.1827200353145599
2024-12-07 19:55:49.080586000,0.6015859375,-0.0774683356285095,-0.1707717180252075,-0.2523621916770935
2024-12-07 19:55:49.090599000,0.611598876953125,-0.0776755288243293,-0.0981526374816894,-0.3138215541839599
2024-12-07 19:55:49.100612900,0.62161279296875,-0.0782238095998764,-0.0220916382968425,-0.3373909592628479
2024-12-07 19:55:49.110625800,0.631625732421875,-0.0784797370433807,-0.0687395632266998,-0.2935201823711395
2024-12-07 19:55:49.120638700,0.641638671875,-0.0896088331937789,-0.2460109740495681,-0.2062319815158844
2024-12-07 19:55:49.130653000,0.65165283203125,-0.1240022256970405,-0.4057966470718384,-0.1272681951522827
2024-12-07 19:55:49.140665900,0.661665771484375,-0.1813891679048538,-0.4655238687992096,-0.0907129943370819
2024-12-07 19:55:49.150678800,0.6716787109375,-0.2447164803743362,-0.4407487511634826,-0.0852170288562774
2024-12-07 19:55:49.160692000,0.68169189453125,-0.3004868924617767,-0.3664654493331909,-0.0869303196668624
2024-12-07 19:55:49.170706000,0.691705810546875,-0.3291438221931457,-0.2743999660015106,-0.0805523172020912
2024-12-07 19:55:49.180718800,0.70171875,-0.3331505358219147,-0.1769496351480484,-0.078151173889637
2024-12-07 19:55:49.190731800,0.711731689453125,-0.3622927069664001,-0.114350713789463,-0.0886592119932174
2024-12-07 19:55:49.200745700,0.721745849609375,-0.3148246705532074,-0.0302631203085184,-0.0813780799508094
2024-12-07 19:55:49.210759000,0.731759033203125,-0.2088263481855392,0.1309553235769271,-0.0421451963484287
2024-12-07 19:55:49.220771800,0.741771728515625,-0.1357622593641281,0.2824551463127136,0.0199204590171575
2024-12-07 19:55:49.230784800,0.75178466796875,-0.0696442350745201,0.3543221652507782,0.0981279164552688
2024-12-07 19:55:49.240799000,0.761799072265625,0.0119608845561742,0.3325718641281128,0.2023706883192062
2024-12-07 19:55:49.250812000,0.77181201171875,0.1166452169418335,0.2548000812530517,0.3232377469539642
2024-12-07 19:55:49.260824800,0.781824951171875,0.2246391773223877,0.2029930055141449,0.4336437880992889
2024-12-07 19:55:49.270839000,0.791839111328125,0.3056536018848419,0.1728207319974899,0.5365414023399353
2024-12-07 19:55:49.280852000,0.80185205078125,0.3608327507972717,0.1088727191090583,0.6535587310791016
2024-12-07 19:55:49.290865000,0.811864990234375,0.3922119736671448,0.0070853698998689,0.7619158625602722
2024-12-07 19:55:49.300877800,0.8218779296875,0.404300183057785,-0.0758410617709159,0.8266549110412598
2024-12-07 19:55:49.310891800,0.831891845703125,0.4212368428707123,-0.0758301392197609,0.8312821388244629
2024-12-07 19:55:49.320905000,0.841905029296875,0.4394548237323761,0.0637828558683395,0.7830678820610046
2024-12-07 19:55:49.330918000,0.85191796875,0.4597393274307251,0.316236138343811,0.7159860730171204
2024-12-07 19:55:49.340931800,0.861931884765625,0.5006636381149292,0.6384563446044922,0.6353470683097839
2024-12-07 19:55:49.350944800,0.87194482421875,0.5325949788093567,0.894828200340271,0.5424541234970093
2024-12-07 19:55:49.360958000,0.8819580078125,0.5412011742591858,1.0191706418991089,0.44586181640625
2024-12-07 19:55:49.370971000,0.891970947265625,0.4984965324401855,0.9975734353065492,0.3420645892620086
2024-12-07 19:55:49.380984800,0.90198486328125,0.4435151815414428,0.8347690105438232,0.2517999708652496
2024-12-07 19:55:49.390997800,0.911997802734375,0.3901108205318451,0.5106412172317505,0.2014643847942352
2024-12-07 19:55:49.401010700,0.9220107421875,0.329561173915863,0.0809457823634147,0.1986901015043258
2024-12-07 19:55:49.411025000,0.93202490234375,0.2766415178775787,-0.2813610434532165,0.2389286011457443
2024-12-07 19:55:49.421037800,0.942037841796875,0.2539182305335998,-0.5104728937149048,0.2718222141265869
2024-12-07 19:55:49.431050800,0.95205078125,0.2684124708175659,-0.5474042296409607,0.2685523927211761
2024-12-07 19:55:49.441064000,0.96206396484375,0.3196715414524078,-0.2922418117523193,0.2659117579460144
2024-12-07 19:55:49.451078000,0.972077880859375,0.3939734697341919,0.1283522844314575,0.2738679647445678
2024-12-07 19:55:49.461090800,0.9820908203125,0.4518495202064514,0.3828580975532532,0.2301347553730011
2024-12-07 19:55:49.471104000,0.99210400390625,0.4647312462329864,0.2346915453672409,0.1101476326584816
2024-12-07 19:55:49.481118000,1.002117919921875,0.462873637676239,-0.0473501980304718,0.0507883951067924
2024-12-07 19:55:49.491131000,1.012130859375,0.4702170491218567,-0.2360990792512893,0.1048931777477264
2024-12-07 19:55:49.501143000,1.02214306640625,0.4875813126564026,-0.316557228565216,0.1971154063940048
2024-12-07 19:55:49.511156000,1.032156005859375,0.5154302716255188,-0.3426511287689209,0.2401480972766876
2024-12-07 19:55:49.521170000,1.042169921875,0.5323347449302673,-0.4357509911060333,0.1871852278709411
2024-12-07 19:55:49.531182800,1.052182861328125,0.528911292552948,-0.6358105540275574,0.083157904446125
2024-12-07 19:55:49.541195800,1.06219580078125,0.4655047655105591,-0.786142885684967,0.0276824310421943
2024-12-07 19:55:49.551210000,1.0722099609375,0.3477030396461487,-0.7937430143356323,0.0482292510569095
2024-12-07 19:55:49.561223000,1.082222900390625,0.2475064843893051,-0.6980305314064026,0.0803983360528945
2024-12-07 19:55:49.571235800,1.09223583984375,0.1651269346475601,-0.5333896279335022,0.0698138698935508
2024-12-07 19:55:49.581248800,1.102248779296875,0.0785756707191467,-0.4269427359104156,0.0013281700666993
2024-12-07 19:55:49.591262700,1.1122626953125,0.0012198971817269,-0.3763333559036255,-0.0781978145241737
2024-12-07 19:55:49.601276000,1.12227587890625,-0.04302728921175,-0.3097580373287201,-0.1072710826992988
2024-12-07 19:55:49.611288800,1.132288818359375,-0.0409968942403793,-0.2512547969818115,-0.1076966598629951
2024-12-07 19:55:49.621302800,1.142302734375,-0.0329606868326664,-0.2188252955675125,-0.0965094119310379
2024-12-07 19:55:49.631316000,1.15231591796875,-0.0552364327013492,-0.130674660205841,-0.079148530960083
2024-12-07 19:55:49.641329000,1.162328857421875,-0.0838607996702194,0.0014045594725757,-0.0836956426501274
2024-12-07 19:55:49.651341800,1.172341796875,-0.0779752135276794,0.1158520430326461,-0.1688219904899597
2024-12-07 19:55:49.661356000,1.18235595703125,-0.1459661573171615,-0.0090558351948857,-0.3421923518180847
2024-12-07 19:55:49.671369000,1.192368896484375,-0.3142488896846771,-0.3608633875846863,-0.5058377981185913
2024-12-07 19:55:49.681382000,1.2023818359375,-0.4540204107761383,-0.6997846364974976,-0.5882064700126648
2024-12-07 19:55:49.691394800,1.212394775390625,-0.4937571585178375,-0.8543803691864014,-0.5686119794845581
2024-12-07 19:55:49.701408800,1.22240869140625,-0.4622478783130646,-0.7866977453231812,-0.4631397128105163
2024-12-07 19:55:49.711422000,1.232421875,-0.4001283347606659,-0.5275916457176208,-0.2863636016845703
2024-12-07 19:55:49.721435000,1.242434814453125,-0.3635757267475128,-0.1889685839414596,-0.0993559435009956
2024-12-07 19:55:49.731448800,1.25244873046875,-0.4212765693664551,0.0612399205565452,0.0563785247504711
2024-12-07 19:55:49.741461800,1.262461669921875,-0.5417284369468689,0.1361943930387497,0.1446718722581863
2024-12-07 19:55:49.751475000,1.272474853515625,-0.6516887545585632,0.1428778618574142,0.1797835230827331
2024-12-07 19:55:49.761488000,1.28248779296875,-0.6986390352249146,0.1290287971496582,0.1739776283502578
2024-12-07 19:55:49.771501800,1.292501708984375,-0.6875778436660767,0.041010532528162,0.1295145601034164
2024-12-07 19:55:49.781515000,1.302514892578125,-0.6357649564743042,-0.1636709421873092,0.0563022047281265
2024-12-07 19:55:49.791527700,1.312527587890625,-0.5643278360366821,-0.4179266691207886,-0.0405396521091461
2024-12-07 19:55:49.801542000,1.3225419921875,-0.4868789911270141,-0.6210426092147827,-0.1682437062263488
2024-12-07 19:55:49.811554800,1.332554931640625,-0.4070395529270172,-0.6767128109931946,-0.3268836736679077
2024-12-07 19:55:49.821567700,1.342567626953125,-0.3122242987155914,-0.5309837460517883,-0.5169791579246521
2024-12-07 19:55:49.831581000,1.352580810546875,-0.2082190513610839,-0.1933572143316269,-0.719169020652771
2024-12-07 19:55:49.841595000,1.362594970703125,-0.0998495742678642,0.2694025933742523,-0.813787579536438
2024-12-07 19:55:49.851607800,1.37260791015625,-0.0308169778436422,0.5988366603851318,-0.6948130130767822
2024-12-07 19:55:49.861621000,1.38262109375,0.0164983067661523,0.5658540725708008,-0.4807954728603363
2024-12-07 19:55:49.871635000,1.392635009765625,0.0689519271254539,0.3131064772605896,-0.3108906149864197
2024-12-07 19:55:49.881647900,1.40264794921875,0.1216243356466293,0.0229599718004465,-0.215011864900589
2024-12-07 19:55:49.891661000,1.4126611328125,0.1687766760587692,-0.1482975333929062,-0.1636384129524231
2024-12-07 19:55:49.901673700,1.422673828125,0.2101683765649795,-0.1754243969917297,-0.1033743545413017
2024-12-07 19:55:49.911688000,1.43268798828125,0.2366788238286972,-0.1081494912505149,-0.0221766997128725
2024-12-07 19:55:49.921700900,1.442700927734375,0.256263792514801,0.0778965502977371,0.0310990009456872
2024-12-07 19:55:49.931713800,1.4527138671875,0.2448585331439972,0.3574216663837433,0.0434446148574352
2024-12-07 19:55:49.941728000,1.46272802734375,0.1551636606454849,0.5846097469329834,0.0513918697834014
2024-12-07 19:55:49.951741000,1.472740966796875,0.0569385550916194,0.6693275570869446,0.0700084343552589
2024-12-07 19:55:49.961753900,1.48275390625,-0.0280375406146049,0.5490358471870422,0.097927413880825
2024-12-07 19:55:49.971767000,1.49276708984375,-0.1539073288440704,0.2100657820701599,0.12394730001688
2024-12-07 19:55:49.981780700,1.50278076171875,-0.2917595505714416,-0.1292283236980438,0.0611111484467983
2024-12-07 19:55:49.991794000,1.5127939453125,-0.3935474455356598,-0.2787480354309082,-0.1074642762541771
2024-12-07 19:55:50.001806800,1.522806884765625,-0.4114372134208679,-0.2102071344852447,-0.3146517872810364
2024-12-07 19:55:50.011820800,1.53282080078125,-0.3595085144042969,-0.0257137101143598,-0.4396264851093292
2024-12-07 19:55:50.021834000,1.542833984375,-0.3093747794628143,0.1928317993879318,-0.4386258125305176
2024-12-07 19:55:50.031846700,1.5528466796875,-0.2996888756752014,0.3770383894443512,-0.3757776021957397
2024-12-07 19:55:50.041859800,1.56285986328125,-0.3002627789974212,0.4739872217178345,-0.3115567564964294
2024-12-07 19:55:50.051874000,1.5728740234375,-0.3172707855701446,0.4699341654777527,-0.2788853645324707
2024-12-07 19:55:50.061886700,1.58288671875,-0.3587724864482879,0.3624380230903625,-0.2646815180778503
2024-12-07 19:55:50.071900000,1.59289990234375,-0.4209237396717071,0.2930403053760528,-0.2668954133987427
2024-12-07 19:55:50.081913900,1.602913818359375,-0.4417965412139892,0.3182777464389801,-0.2716045975685119
2024-12-07 19:55:50.091926800,1.6129267578125,-0.4093200862407684,0.3645126223564148,-0.237941712141037
2024-12-07 19:55:50.101940000,1.62293994140625,-0.3752810060977936,0.3680195212364197,-0.1186907589435577
2024-12-07 19:55:50.111953000,1.632952880859375,-0.3353389203548431,0.3452550768852234,0.0755618065595626
2024-12-07 19:55:50.121966800,1.642966796875,-0.2557902634143829,0.3189962208271026,0.2673647701740265
2024-12-07 19:55:50.131980000,1.65297998046875,-0.1498888731002807,0.3169847428798675,0.3805619180202484
2024-12-07 19:55:50.141992700,1.66299267578125,0.0166107192635536,0.562516987323761,0.3439015746116638
2024-12-07 19:55:50.152007000,1.6730068359375,0.3079775869846344,0.8075821399688721,0.2492525577545166
2024-12-07 19:55:50.162020000,1.68302001953125,0.5794066786766052,0.824238657951355,0.2974716424942016
2024-12-07 19:55:50.172032800,1.69303271484375,0.7192596793174744,0.6052221655845642,0.5523894429206848
2024-12-07 19:55:50.182046000,1.7030458984375,0.7776042819023132,0.2542561888694763,0.9229370951652528
2024-12-07 19:55:50.192059600,1.7130595703125,0.8117089867591858,-0.0112314186990261,1.188318133354187
2024-12-07 19:55:50.202072800,1.72307275390625,0.8075711727142334,0.0465440899133682,1.2947686910629272
2024-12-07 19:55:50.212086000,1.7330859375,0.767105221748352,0.452399730682373,1.2752485275268557
2024-12-07 19:55:50.222099000,1.743098876953125,0.6963738203048706,0.9520829319953918,1.1406687498092651
2024-12-07 19:55:50.232113000,1.75311279296875,0.6025913953781128,1.321431279182434,0.8920750021934509
2024-12-07 19:55:50.242125800,1.763125732421875,0.5227316617965698,1.4764078855514526,0.537414014339447
2024-12-07 19:55:50.252138800,1.773138671875,0.5265243053436279,1.3837506771087646,0.1492106020450592
2024-12-07 19:55:50.262153000,1.783153076171875,0.554673433303833,1.0229581594467163,-0.1321458220481872
2024-12-07 19:55:50.272166000,1.793165771484375,0.5544694662094116,0.594244122505188,-0.2769980728626251
2024-12-07 19:55:50.282178800,1.8031787109375,0.5731415152549744,0.2983415126800537,-0.3401271104812622
2024-12-07 19:55:50.292191700,1.813191650390625,0.6540597677230835,0.1057696714997291,-0.3925058841705322
2024-12-07 19:55:50.302205700,1.823205810546875,0.799934983253479,0.0127187175676226,-0.4035226106643677
2024-12-07 19:55:50.312219000,1.833218994140625,0.96647310256958,0.0027331952005624,-0.3106454014778137
2024-12-07 19:55:50.322231800,1.843231689453125,1.0649653673171997,0.0437974631786346,-0.0827105790376663
2024-12-07 19:55:50.332245800,1.853245849609375,1.0010939836502075,-0.1520804315805435,0.1977724730968475
2024-12-07 19:55:50.342259000,1.863259033203125,0.848887026309967,-0.5186502933502197,0.3569464683532715
2024-12-07 19:55:50.352272000,1.87327197265625,0.6936878561973572,-0.771920382976532,0.3626709282398224
2024-12-07 19:55:50.362284800,1.883284912109375,0.5906787514686584,-0.8957960605621338,0.3029093146324157
2024-12-07 19:55:50.372299000,1.893299072265625,0.5313994288444519,-0.8951308131217957,0.2475776225328445
2024-12-07 19:55:50.382312000,1.90331201171875,0.4524014890193939,-0.7777959108352661,0.1866870820522308
2024-12-07 19:55:50.392324900,1.913324951171875,0.3452713191509247,-0.6270058751106262,0.1233083680272102
2024-12-07 19:55:50.402339000,1.923339111328125,0.1983106136322021,-0.5522218942642212,0.0501800961792469
2024-12-07 19:55:50.412351700,1.933351806640625,0.046461172401905,-0.5472143888473511,-0.0398224964737892
2024-12-07 19:55:50.422365000,1.943364990234375,-0.0339462868869304,-0.5623587965965271,-0.1089309602975845
2024-12-07 19:55:50.432377900,1.9533779296875,-0.0145361050963401,-0.5825332999229431,-0.1370139867067337
2024-12-07 19:55:50.442391800,1.963391845703125,0.0101725747808814,-0.6254782676696777,-0.1406636983156204
2024-12-07 19:55:50.452405000,1.973405029296875,-0.0447756275534629,-0.7386764883995056,-0.1721388101577758
2024-12-07 19:55:50.462418000,1.98341796875,-0.1333508938550949,-0.8628442883491516,-0.2793456315994262
2024-12-07 19:55:50.472431900,1.993431884765625,-0.2617176473140716,-0.9598534107208252,-0.416879802942276
2024-12-07 19:55:50.482444800,2.00344482421875,-0.392479807138443,-1.001651644706726,-0.5168706178665161
2024-12-07 19:55:50.492458000,2.0134580078125,-0.526114284992218,-0.9756863713264464,-0.543773353099823
2024-12-07 19:55:50.502471400,2.023471435546875,-0.6463502049446106,-0.9219614863395692,-0.5065736770629883
2024-12-07 19:55:50.512485400,2.0334853515625,-0.7264040112495422,-0.8330803513526917,-0.4435174763202667
2024-12-07 19:55:50.522498300,2.043498291015625,-0.7246131300926208,-0.8080001473426819,-0.3643006086349487
2024-12-07 19:55:50.532511500,2.053511474609375,-0.6119688749313354,-0.8467842936515808,-0.3174524009227752
2024-12-07 19:55:50.542524400,2.0635244140625,-0.4617618918418884,-0.7215484976768494,-0.283188909292221
2024-12-07 19:55:50.552538400,2.073538330078125,-0.3578703701496124,-0.4027031362056732,-0.2155304849147796
2024-12-07 19:55:50.562551300,2.08355126953125,-0.3753959238529205,-0.1595898568630218,-0.1515539288520813
2024-12-07 19:55:50.572564500,2.093564453125,-0.5273910164833069,-0.1827292740345001,-0.1183238178491592
2024-12-07 19:55:50.582578400,2.103578369140625,-0.7134336829185486,-0.2623434364795685,-0.0864253118634224
2024-12-07 19:55:50.592591400,2.11359130859375,-0.8295448422431946,-0.2639234960079193,-0.0584991313517093
2024-12-07 19:55:50.602604300,2.123604248046875,-0.8405128121376038,-0.2174306809902191,-0.0529004484415054
2024-12-07 19:55:50.612617200,2.1336171875,-0.7341294288635254,-0.1645445823669433,-0.0680993720889091
2024-12-07 19:55:50.622631400,2.14363134765625,-0.5777450799942017,-0.1885768622159958,-0.1044830158352851
2024-12-07 19:55:50.632644400,2.153644287109375,-0.4574493169784546,-0.3271030187606811,-0.1810757964849472
2024-12-07 19:55:50.642657300,2.1636572265625,-0.395280510187149,-0.4860672354698181,-0.3305129408836365
2024-12-07 19:55:50.652671200,2.173671142578125,-0.3591672480106354,-0.5075392127037048,-0.5418726205825806
2024-12-07 19:55:50.662684400,2.183684326171875,-0.3043584525585174,-0.3904185891151428,-0.7446703910827637
2024-12-07 19:55:50.672697300,2.193697265625,-0.1917975693941116,-0.2691630125045776,-0.8263881802558899
2024-12-07 19:55:50.682710500,2.20371044921875,-0.0851825103163719,-0.2120201736688614,-0.725975751876831
2024-12-07 19:55:50.692724500,2.213724365234375,-0.027876079082489,-0.2043814212083816,-0.509135365486145
2024-12-07 19:55:50.702737400,2.2237373046875,0.0152076072990894,-0.1751874387264251,-0.3153615593910217
2024-12-07 19:55:50.712750300,2.233750244140625,0.0701086670160293,-0.100012794137001,-0.2314450740814209
2024-12-07 19:55:50.722764300,2.243764404296875,0.0940831154584884,0.0217140205204486,-0.2292980700731277
2024-12-07 19:55:50.732777500,2.253777587890625,0.0904838591814041,0.1501231342554092,-0.2389664202928543
2024-12-07 19:55:50.742790400,2.263790283203125,0.077586680650711,0.2832846939563751,-0.2183877527713775
2024-12-07 19:55:50.752803300,2.27380322265625,0.0378930680453777,0.4583848714828491,-0.1930224746465683
2024-12-07 19:55:50.762817300,2.2838173828125,-0.0042261825874447,0.6753225922584534,-0.1819958835840225
2024-12-07 19:55:50.772830200,2.293830322265625,-0.048651173710823,0.8033245205879211,-0.1603441089391708
2024-12-07 19:55:50.782843400,2.303843505859375,-0.101847156882286,0.7138927578926086,-0.0882182270288467
2024-12-07 19:55:50.792856600,2.313856689453125,-0.1642753779888153,0.4092806875705719,-0.0052740699611604
2024-12-07 19:55:50.802870300,2.323870361328125,-0.220371127128601,0.0960423052310943,0.0081585692241787
2024-12-07 19:55:50.812883500,2.333883544921875,-0.2459710389375686,-0.0666723102331161,-0.0793230757117271
2024-12-07 19:55:50.822896400,2.343896484375,-0.2185642272233963,-0.0514380894601345,-0.2358893156051635
2024-12-07 19:55:50.832910300,2.353910400390625,-0.1596399098634719,0.1037922427058219,-0.3923156857490539
2024-12-07 19:55:50.842923500,2.363923583984375,-0.0818298831582069,0.1494326740503311,-0.474754124879837
2024-12-07 19:55:50.852936200,2.373936279296875,-0.0450977049767971,0.0593560300767421,-0.4600196480751037
2024-12-07 19:55:50.862949400,2.383949462890625,-0.0770307928323745,0.0190155692398548,-0.4342397153377533
2024-12-07 19:55:50.872963300,2.39396337890625,-0.1319712698459625,0.1036931723356247,-0.4457466900348663
2024-12-07 19:55:50.882976300,2.403976318359375,-0.1852087527513504,0.2010162770748138,-0.4445108473300934
2024-12-07 19:55:50.892989400,2.413989501953125,-0.2281967103481292,0.1882485449314117,-0.3740254938602447
2024-12-07 19:55:50.903003400,2.42400341796875,-0.2646368741989136,0.1609725952148437,-0.2310984134674072
2024-12-07 19:55:50.913016300,2.434016357421875,-0.2871469855308532,0.227356418967247,-0.1204193085432052
2024-12-07 19:55:50.923029500,2.444029541015625,-0.3145034313201904,0.4305303990840912,-0.1095126718282699
2024-12-07 19:55:50.933042200,2.454042236328125,-0.3591920733451843,0.6340392827987671,-0.1607313752174377
2024-12-07 19:55:50.943056400,2.464056396484375,-0.4267720282077789,0.6641993522644043,-0.1942209750413894
2024-12-07 19:55:50.953069600,2.474069580078125,-0.4754394292831421,0.5719709396362305,-0.2223415523767471
2024-12-07 19:55:50.963082200,2.484082275390625,-0.5097754001617432,0.4520604610443115,-0.2478524893522262
2024-12-07 19:55:50.973096400,2.494096435546875,-0.5390203595161438,0.3706681132316589,-0.2531678676605224
2024-12-07 19:55:50.983109400,2.504109375,-0.5582395195960999,0.3494164049625397,-0.2414501905441284
2024-12-07 19:55:50.993122300,2.514122314453125,-0.5505113005638123,0.3667370676994324,-0.1801748424768448
2024-12-07 19:55:51.003135500,2.524135498046875,-0.4951619207859039,0.3337940573692322,-0.0536550320684909
2024-12-07 19:55:51.013149200,2.534149169921875,-0.3457252979278564,0.296896755695343,0.0428946763277053
2024-12-07 19:55:51.023162400,2.544162353515625,-0.1313896626234054,0.3729315996170044,0.0582174807786941
2024-12-07 19:55:51.033175600,2.554175537109375,0.0943292304873466,0.5149227976799011,-0.0181872770190238
2024-12-07 19:55:51.043188200,2.564188232421875,0.2383609265089035,0.5988115072250366,-0.0806554481387138
2024-12-07 19:55:51.053202400,2.574202392578125,0.2681395709514618,0.575626015663147,-0.017162762582302
2024-12-07 19:55:51.063215400,2.58421533203125,0.2525460422039032,0.5314021706581116,0.1360909789800644
2024-12-07 19:55:51.073228300,2.594228271484375,0.251368373632431,0.5865424275398254,0.2797876894474029
2024-12-07 19:55:51.083242500,2.604242431640625,0.2505997121334076,0.770625114440918,0.4085221290588379
2024-12-07 19:55:51.093255200,2.614255126953125,0.2452843189239502,0.877703070640564,0.5798885822296143
2024-12-07 19:55:51.103268400,2.624268310546875,0.2306891977787017,0.9012705683708192,0.7687652111053467
2024-12-07 19:55:51.113281300,2.63428125,0.2352780848741531,0.8722090721130371,0.9137184023857116
2024-12-07 19:55:51.123295200,2.644295166015625,0.2328367680311203,0.6515576243400574,1.0261974334716797
2024-12-07 19:55:51.133308400,2.654308349609375,0.1998162418603897,0.2953156232833862,1.091395378112793
2024-12-07 19:55:51.143321300,2.6643212890625,0.1814953833818435,-0.0477173514664173,1.0481112003326416
2024-12-07 19:55:51.153335300,2.674335205078125,0.2029306292533874,-0.1185137555003166,0.9139376878738404
2024-12-07 19:55:51.163348500,2.684348388671875,0.239372506737709,0.220062717795372,0.7285452485084534
2024-12-07 19:55:51.173361400,2.694361328125,0.2985721826553345,0.5224127173423767,0.5377734303474426
2024-12-07 19:55:51.183374300,2.704374267578125,0.336749404668808,0.4127634465694427,0.4275124669075012
2024-12-07 19:55:51.193388500,2.714388427734375,0.2961009740829468,0.1305402517318725,0.3472042679786682
2024-12-07 19:55:51.203401200,2.724401123046875,0.2619825005531311,-0.1134149655699729,0.283580482006073
2024-12-07 19:55:51.213414400,2.734414306640625,0.2908216118812561,-0.1746285259723663,0.236595407128334
2024-12-07 19:55:51.223428400,2.744428466796875,0.3634095788002014,0.0146131701767444,0.2197635024785995
2024-12-07 19:55:51.233441300,2.754441162109375,0.4743744432926178,0.3426573574542999,0.2696349024772644
2024-12-07 19:55:51.243454500,2.764454345703125,0.6046878695487976,0.6007175445556641,0.3863824009895324
2024-12-07 19:55:51.253467400,2.77446728515625,0.72802734375,0.7423447370529175,0.527921736240387
2024-12-07 19:55:51.263481300,2.7844814453125,0.8359233140945435,0.834158718585968,0.6407833695411682
2024-12-07 19:55:51.273494300,2.794494384765625,0.923224151134491,0.848509669303894,0.7468424439430237
2024-12-07 19:55:51.283507500,2.804507568359375,0.9728363156318665,0.8121966123580933,0.8539612293243408
2024-12-07 19:55:51.293521400,2.814521484375,1.014246106147766,0.7669920921325684,0.901084005832672
2024-12-07 19:55:51.303534300,2.824534423828125,1.0542333126068115,0.7086957693099976,0.836839497089386
2024-12-07 19:55:51.313547300,2.83454736328125,1.0700706243515017,0.6199858784675598,0.6764247417449951
2024-12-07 19:55:51.323560400,2.844560546875,1.0618869066238403,0.543236494064331,0.4987462162971496
2024-12-07 19:55:51.333574400,2.854574462890625,1.049896240234375,0.4556323587894439,0.3580117225646972
2024-12-07 19:55:51.343587300,2.86458740234375,1.0465798377990725,0.3739793002605438,0.2756356000900268
2024-12-07 19:55:51.353600300,2.874600341796875,1.0783886909484863,0.2928367853164673,0.2482090294361114
2024-12-07 19:55:51.363614200,2.8846142578125,1.1591757535934448,0.2001237720251083,0.2600614726543426
2024-12-07 19:55:51.373627400,2.89462744140625,1.298734188079834,0.077788807451725,0.2652900516986847
2024-12-07 19:55:51.383640300,2.904640380859375,1.412893772125244,-0.0426621697843074,0.2765328288078308
2024-12-07 19:55:51.393654300,2.914654296875,1.459591269493103,-0.1583379060029983,0.3230681121349334
2024-12-07 19:55:51.403667500,2.92466748046875,1.442671775817871,-0.2443199306726455,0.3793359994888305
2024-12-07 19:55:51.413680400,2.934680419921875,1.2972376346588137,-0.4809463024139404,0.3793959319591522
2024-12-07 19:55:51.423693300,2.944693359375,1.0598773956298828,-0.9211682081222534,0.2865135967731476
2024-12-07 19:55:51.433707500,2.95470751953125,0.8572255373001099,-1.355837345123291,0.1809557676315307
2024-12-07 19:55:51.443720400,2.964720458984375,0.7250964641571045,-1.6103858947753906,0.0917584374547004
2024-12-07 19:55:51.453733400,2.9747333984375,0.6535248160362244,-1.6430304050445557,0.0016280161216855
2024-12-07 19:55:51.463747300,2.984747314453125,0.6255838871002197,-1.524094820022583,-0.0473286397755146
2024-12-07 19:55:51.473760300,2.99476025390625,0.6041046977043152,-1.3781373500823977,-0.0400382354855537
2024-12-07 19:55:51.483773400,3.0047734375,0.5581036806106567,-1.328916072845459,-0.0237983278930187
2024-12-07 19:55:51.493786400,3.014786376953125,0.502347469329834,-1.3834751844406128,-0.0574598833918571
2024-12-07 19:55:51.503800000,3.024800048828125,0.4091224074363708,-1.4101839065551758,-0.1307665854692459
2024-12-07 19:55:51.513813200,3.034813232421875,0.2944035530090332,-1.3182731866836548,-0.1771726906299591
2024-12-07 19:55:51.523826200,3.044826171875,0.2067359834909439,-1.2048927545547483,-0.1814710050821304
2024-12-07 19:55:51.533840100,3.054840087890625,0.1514429003000259,-1.214486002922058,-0.1662318706512451
2024-12-07 19:55:51.543853300,3.064853271484375,0.1217652633786201,-1.2671955823898315,-0.1338304430246353
2024-12-07 19:55:51.553866200,3.0748662109375,0.1070582270622253,-1.2333945035934448,-0.0690929889678955
2024-12-07 19:55:51.563879200,3.084879150390625,0.069254033267498,-1.1685304641723633,-0.0236967019736766
2024-12-07 19:55:51.573893400,3.094893310546875,-0.0003849633503705,-1.0227234363555908,-0.0202255379408597
2024-12-07 19:55:51.583906000,3.104906005859375,-0.0939278453588485,-0.7912754416465759,-0.0818999707698822
2024-12-07 19:55:51.593919200,3.114919189453125,-0.1778701543807983,-0.5749348998069763,-0.2006655037403106
2024-12-07 19:55:51.603933400,3.124933349609375,-0.2288994640111923,-0.4697201550006866,-0.3085119128227234
2024-12-07 19:55:51.613946000,3.134946044921875,-0.2612099945545196,-0.4050958752632141,-0.3613823354244232
2024-12-07 19:55:51.623959300,3.144959228515625,-0.2767057418823242,-0.363222599029541,-0.399463027715683
2024-12-07 19:55:51.633973200,3.15497314453125,-0.2933228015899658,-0.3461397588253021,-0.4254248440265655
2024-12-07 19:55:51.643986200,3.164986083984375,-0.3292886316776275,-0.3662591278553009,-0.433961272239685
2024-12-07 19:55:51.653999400,3.174999267578125,-0.3469488620758056,-0.3626225888729095,-0.4545738995075226
2024-12-07 19:55:51.664012300,3.18501220703125,-0.3577278554439544,-0.2841627299785614,-0.5332343578338623
2024-12-07 19:55:51.674026200,3.195026123046875,-0.4193664491176605,-0.3051763772964477,-0.6581342220306396
2024-12-07 19:55:51.684039400,3.205039306640625,-0.4252101182937622,-0.4669989943504333,-0.706291913986206
2024-12-07 19:55:51.694052000,3.215052001953125,-0.2107252478599548,-0.481180340051651,-0.5332372784614563
2024-12-07 19:55:51.704066300,3.22506640625,0.1306434273719787,-0.5228097438812256,-0.2387338727712631
2024-12-07 19:55:51.714079200,3.235079345703125,0.4013420343399048,-0.8399786353111267,-0.1201001554727554
2024-12-07 19:55:51.724092200,3.245092041015625,0.2419268488883972,-1.0438424348831177,-0.1853243559598922
2024-12-07 19:55:51.734106400,3.2551064453125,-0.1269177496433258,-0.8761842250823975,-0.2241923958063125
2024-12-07 19:55:51.744119000,3.265119140625,-0.4457720220088959,-0.5512209534645081,-0.229842409491539
2024-12-07 19:55:51.754132200,3.27513232421875,-0.6497288346290588,-0.1489858776330948,-0.2778759896755218
2024-12-07 19:55:51.764145200,3.285145263671875,-0.7683157920837402,0.3663673996925354,-0.3843898475170135
2024-12-07 19:55:51.774159000,3.2951591796875,-0.8384972810745239,0.7196753621101379,-0.5021265745162964
2024-12-07 19:55:51.784172300,3.30517236328125,-0.9003344178199768,0.8799058794975281,-0.599833607673645
2024-12-07 19:55:51.794185200,3.315185302734375,-0.8297907710075378,0.9661920070648192,-0.6638343930244446
2024-12-07 19:55:51.804199200,3.32519921875,-0.6454519629478455,1.0681589841842651,-0.6575780510902405
2024-12-07 19:55:51.814212400,3.33521240234375,-0.4428317248821258,1.1579407453536987,-0.5957085490226746
2024-12-07 19:55:51.824225300,3.345225341796875,-0.3181261122226715,1.0957236289978027,-0.5425821542739868
2024-12-07 19:55:51.834239200,3.3552392578125,-0.3083198070526123,0.8599458336830139,-0.5283252000808716
2024-12-07 19:55:51.844252400,3.36525244140625,-0.3617746829986572,0.5544926524162292,-0.5429247617721558
2024-12-07 19:55:51.854265000,3.37526513671875,-0.391074001789093,0.3084101974964142,-0.566432774066925
2024-12-07 19:55:51.864278300,3.3852783203125,-0.3868951499462127,0.1743416637182235,-0.5576192140579224
2024-12-07 19:55:51.874292200,3.395292236328125,-0.377726137638092,0.0998578518629074,-0.5010616183280945
2024-12-07 19:55:51.884305200,3.40530517578125,-0.3679974675178528,0.0418380051851272,-0.4101221263408661
2024-12-07 19:55:51.894318300,3.415318359375,-0.3471614122390747,-0.0175877697765827,-0.3166020214557647
2024-12-07 19:55:51.904332300,3.425332275390625,-0.3131863474845886,-0.1093131154775619,-0.2507082223892212
2024-12-07 19:55:51.914345200,3.43534521484375,-0.2793903052806854,-0.2408434450626373,-0.2207668125629425
2024-12-07 19:55:51.924358100,3.445358154296875,-0.2717441618442535,-0.3061871230602264,-0.2167269885540008
2024-12-07 19:55:51.934372000,3.4553720703125,-0.3348261713981628,-0.2719931900501251,-0.2206956297159195
2024-12-07 19:55:51.944385300,3.46538525390625,-0.4191461205482483,-0.2126145809888839,-0.2150362133979797
2024-12-07 19:55:51.954398200,3.475398193359375,-0.4738833904266357,-0.1860761791467666,-0.2047992795705795
2024-12-07 19:55:51.964411100,3.4854111328125,-0.5022377371788025,-0.2211822867393493,-0.1821367293596267
2024-12-07 19:55:51.974425300,3.49542529296875,-0.495718389749527,-0.2884862124919891,-0.150882139801979
2024-12-07 19:55:51.984438300,3.505438232421875,-0.4456430673599243,-0.363868236541748,-0.1296384930610656
2024-12-07 19:55:51.994451200,3.515451171875,-0.322525143623352,-0.4072167575359344,-0.1402330696582794
2024-12-07 19:55:52.004465400,3.52546533203125,-0.1631343513727188,-0.4124463498592376,-0.1839359700679779
2024-12-07 19:55:52.014478000,3.53547802734375,-0.0449555143713951,-0.3751000463962555,-0.2614060044288635
2024-12-07 19:55:52.024491300,3.5454912109375,-0.0143949277698993,-0.2792952954769134,-0.3518657386302948
2024-12-07 19:55:52.034505200,3.555505126953125,-0.0371902547776699,-0.1628315150737762,-0.4060142040252685
2024-12-07 19:55:52.044518100,3.56551806640625,-0.0697107315063476,-0.0465406067669391,-0.38388592004776
2024-12-07 19:55:52.054531300,3.57553125,-0.0847442746162414,0.0348107069730758,-0.3125102818012237
2024-12-07 19:55:52.064545300,3.585545166015625,-0.0634311288595199,0.083301156759262,-0.2458889037370681
2024-12-07 19:55:52.074558200,3.59555810546875,-0.0458143204450607,0.1291253715753555,-0.220667690038681
2024-12-07 19:55:52.084571100,3.605571044921875,-0.0391115061938762,0.2209969758987426,-0.2377410978078842
2024-12-07 19:55:52.094584300,3.615584228515625,-0.0426700189709663,0.3181208670139313,-0.2636051774024963
2024-12-07 19:55:52.104598300,3.625598388671875,-0.0858649015426635,0.3816681504249573,-0.2739590108394623
2024-12-07 19:55:52.114611200,3.635611083984375,-0.1561712771654129,0.4694272875785827,-0.2816547453403473
2024-12-07 19:55:52.124624100,3.6456240234375,-0.2246061116456985,0.6529801487922668,-0.3272174596786499
2024-12-07 19:55:52.134638300,3.655638427734375,-0.2908775508403778,0.9442269206047058,-0.3909037411212921
2024-12-07 19:55:52.144651300,3.6656513671875,-0.3549161255359649,1.2107588052749634,-0.4360049664974212
2024-12-07 19:55:52.154664200,3.675664306640625,-0.4238845407962799,1.3005293607711792,-0.4420492947101593
2024-12-07 19:55:52.164678400,3.685678466796875,-0.5106461048126221,1.194972276687622,-0.3956044912338257
2024-12-07 19:55:52.174691300,3.69569140625,-0.5975248217582703,0.9272242188453674,-0.3229606449604034
2024-12-07 19:55:52.184704300,3.705704345703125,-0.6543583273887634,0.6594297289848328,-0.2809613049030304
2024-12-07 19:55:52.194718200,3.71571826171875,-0.634672224521637,0.4345103502273559,-0.2789279818534851
2024-12-07 19:55:52.204731100,3.725731201171875,-0.5384429097175598,0.2757494151592254,-0.3125589787960052
2024-12-07 19:55:52.214744300,3.735744384765625,-0.4028190672397613,0.1892137378454208,-0.3551037609577179
2024-12-07 19:55:52.224757200,3.74575732421875,-0.2969990968704223,0.1446444541215896,-0.357771098613739
2024-12-07 19:55:52.234771200,3.755771240234375,-0.2397584319114685,0.1712337285280227,-0.3361715376377105
2024-12-07 19:55:52.244784400,3.765784423828125,-0.2025648802518844,0.2681807279586792,-0.3273668587207794
2024-12-07 19:55:52.254797300,3.77579736328125,-0.1361525654792785,0.4341507852077484,-0.3642010390758514
2024-12-07 19:55:52.264811300,3.785811279296875,-0.1694559901952743,0.57613605260849,-0.4419131278991699
2024-12-07 19:55:52.274824200,3.79582421875,-0.2203719019889831,0.6494763493537903,-0.5266647338867188
2024-12-07 19:55:52.284837000,3.805837158203125,-0.2454545199871063,0.6400327682495117,-0.5873900055885315
2024-12-07 19:55:52.294851300,3.815851318359375,-0.292625218629837,0.5831846594810486,-0.5873945355415344
2024-12-07 19:55:52.304864300,3.8258642578125,-0.3293651938438415,0.5587878823280334,-0.5142449140548706
2024-12-07 19:55:52.314877200,3.835877197265625,-0.3566673696041107,0.5867316126823425,-0.3947994410991668
2024-12-07 19:55:52.324891400,3.845891357421875,-0.3817466199398041,0.7011012434959412,-0.2913164496421814
2024-12-07 19:55:52.334904300,3.855904296875,-0.4093660116195678,0.8108594417572021,-0.2441127151250839
2024-12-07 19:55:52.344917200,3.865917236328125,-0.4360712468624115,0.8427466154098511,-0.2237239331007003
2024-12-07 19:55:52.354931500,3.875931396484375,-0.4931720793247223,0.8634758591651917,-0.2338716387748718
2024-12-07 19:55:52.364944100,3.885944091796875,-0.5664187669754028,0.8560469746589661,-0.2519757151603699
2024-12-07 19:55:52.374957300,3.895957275390625,-0.6186793446540833,0.7917835712432861,-0.2791402339935303
2024-12-07 19:55:52.384971300,3.90597119140625,-0.6391316652297974,0.6703494787216187,-0.273150086402893
2024-12-07 19:55:52.394984200,3.915984130859375,-0.6263663172721863,0.5635404586791992,-0.1973141729831695
2024-12-07 19:55:52.404997400,3.925997314453125,-0.5789253115653992,0.5428628325462341,-0.0553640648722648
2024-12-07 19:55:52.415010300,3.93601025390625,-0.5445045232772827,0.4513430297374725,0.0725038796663284
2024-12-07 19:55:52.425024300,3.946024169921875,-0.5017304420471191,0.3120014071464538,0.0912569388747215
2024-12-07 19:55:52.435037200,3.956037109375,-0.3960144221782684,0.1978546231985092,0.0100774001330137
2024-12-07 19:55:52.445050000,3.966050048828125,-0.197968915104866,0.1012253761291503,-0.0882414281368255
2024-12-07 19:55:52.455064300,3.976064208984375,0.0313710607588291,0.1655899882316589,-0.1962027847766876
2024-12-07 19:55:52.465077200,3.9860771484375,0.2056255936622619,0.3435898423194885,-0.2152536064386367
2024-12-07 19:55:52.475090200,3.996090087890625,0.2470966130495071,0.366980105638504,0.0190329197794199
2024-12-07 19:55:52.485104400,4.0061044921875,0.2787006199359894,0.1740465611219406,0.4853392243385315
2024-12-07 19:55:52.495117300,4.016117431640625,0.3935465216636657,0.0437727086246013,0.9677708745002748
2024-12-07 19:55:52.505130000,4.0261298828125,0.5374805331230164,0.1018634289503097,1.303948163986206
2024-12-07 19:55:52.515144200,4.036144287109375,0.6298794150352478,0.2681134045124054,1.4934358596801758
2024-12-07 19:55:52.525156900,4.046156982421875,0.6829094290733337,0.3388461172580719,1.5741678476333618
2024-12-07 19:55:52.535170000,4.056170166015625,0.7383987903594971,0.2325652241706848,1.5740312337875366
2024-12-07 19:55:52.545184300,4.066184326171875,0.7869581580162048,-0.0329125635325908,1.5015459060668943
2024-12-07 19:55:52.555197000,4.076197021484375,0.8350244760513306,-0.3770342469215393,1.345573663711548
2024-12-07 19:55:52.565210000,4.086210205078125,0.8560428023338318,-0.539308488368988,1.150556564331055
2024-12-07 19:55:52.575224000,4.09622412109375,0.8560712933540344,-0.3029718399047851,0.95828777551651
2024-12-07 19:55:52.585237000,4.106237060546875,0.884670615196228,0.2399961948394775,0.8088691830635071
2024-12-07 19:55:52.595250200,4.116250244140625,0.95938640832901,0.6634829640388489,0.7210647463798523
2024-12-07 19:55:52.605264100,4.12626416015625,1.0124289989471436,0.8311948180198669,0.6894720792770386
2024-12-07 19:55:52.615277000,4.136277099609375,0.970130443572998,0.8587854504585266,0.6778697371482849
2024-12-07 19:55:52.625290200,4.146290283203125,0.8578215837478638,0.8492323756217957,0.6787917613983154
2024-12-07 19:55:52.635304000,4.156303955078125,0.7302423715591431,0.7625635266304016,0.6726680994033813
2024-12-07 19:55:52.645317000,4.166317138671875,0.659777045249939,0.5978909134864807,0.6554206609725952
2024-12-07 19:55:52.655330300,4.176330322265625,0.6633805632591248,0.4994522333145141,0.6348767280578613
2024-12-07 19:55:52.665344000,4.186343994140625,0.7059822082519531,0.5928531289100647,0.6261662244796753
2024-12-07 19:55:52.675357200,4.196357177734375,0.7530480027198792,0.8635367751121521,0.6214404702186584
2024-12-07 19:55:52.685369900,4.206369873046875,0.7974989414215088,1.1839526891708374,0.6051678657531738
2024-12-07 19:55:52.695384000,4.216384033203125,0.843586266040802,1.4409728050231934,0.5703220367431641
2024-12-07 19:55:52.705397200,4.226397216796875,0.912168562412262,1.4901008605957031,0.4868704378604889
2024-12-07 19:55:52.715410000,4.236409912109375,0.9946230053901672,1.2746158838272097,0.4043502807617187
2024-12-07 19:55:52.725424000,4.246424072265625,1.094617486000061,0.9838356971740724,0.3861736059188843
2024-12-07 19:55:52.735437000,4.25643701171875,1.2121814489364624,0.7121549248695374,0.3730303943157196
2024-12-07 19:55:52.745450000,4.266449951171875,1.2900022268295288,0.4193964302539825,0.282947301864624
2024-12-07 19:55:52.755464200,4.276464111328125,1.3091591596603394,0.140679582953453,0.1322440654039383
2024-12-07 19:55:52.765477000,4.28647705078125,1.235915184020996,-0.1880864351987838,0.0180425588041543
2024-12-07 19:55:52.775490000,4.296489990234375,1.0419737100601196,-0.6743870973587036,0.0339613370597362
2024-12-07 19:55:52.785504000,4.30650390625,0.8498372435569763,-1.1920357942581177,0.1222808733582496
2024-12-07 19:55:52.795517000,4.316516845703125,0.7383983731269836,-1.568457841873169,0.1989727318286895
2024-12-07 19:55:52.805530000,4.326530029296875,0.6939539909362793,-1.7017186880111694,0.2109749764204025
2024-12-07 19:55:52.815543300,4.336543212890625,0.6154786348342896,-1.6767909526824951,0.1214624047279357
2024-12-07 19:55:52.825557000,4.346556884765625,0.5390821099281311,-1.6518608331680298,-0.0053209690377116
2024-12-07 19:55:52.835570200,4.356570068359375,0.469867080450058,-1.7771433591842651,-0.1439992189407348
2024-12-07 19:55:52.845584100,4.366584228515625,0.3929435610771179,-1.887495994567871,-0.2668256759643554
2024-12-07 19:55:52.855597000,4.37659716796875,0.3303163945674896,-1.7801064252853394,-0.3400381207466125
2024-12-07 19:55:52.865610200,4.3866103515625,0.2566870450973511,-1.5647720098495483,-0.3711050748825073
2024-12-07 19:55:52.875624200,4.396624267578125,0.199431225657463,-1.481509566307068,-0.3617278039455414
2024-12-07 19:55:52.885637000,4.40663720703125,0.1574152708053589,-1.6461046934127808,-0.281530886888504
2024-12-07 19:55:52.895650000,4.416650146484375,0.1199741587042808,-1.793940186500549,-0.1492018848657608
2024-12-07 19:55:52.905664000,4.4266640625,0.132632777094841,-1.7013509273529053,-0.0526468008756637
2024-12-07 19:55:52.915677200,4.43667724609375,0.2057570517063141,-1.382023572921753,-0.0505125448107719
2024-12-07 19:55:52.925690000,4.446690185546875,0.264797180891037,-1.0930848121643066,-0.1180140450596809
2024-12-07 19:55:52.935704000,4.4567041015625,0.2304115146398544,-0.8879138231277466,-0.1778126657009124
2024-12-07 19:55:52.945717000,4.466717041015625,0.1023101732134819,-0.7316778898239136,-0.1888014376163482
2024-12-07 19:55:52.955730000,4.47672998046875,-0.0321440361440181,-0.7116959691047668,-0.1969376504421234
2024-12-07 19:55:52.965744000,4.486744140625,-0.1146777421236038,-0.770901083946228,-0.2437549978494644
2024-12-07 19:55:52.975757000,4.496757080078125,-0.1537143588066101,-0.8414971828460693,-0.3251406550407409
2024-12-07 19:55:52.985770000,4.50677001953125,-0.1629995256662368,-0.8606441617012024,-0.413206398487091
2024-12-07 19:55:52.995784000,4.516783935546875,-0.1334240436553955,-0.784156858921051,-0.4740516245365143
2024-12-07 19:55:53.005797000,4.526797119140625,-0.0868322923779487,-0.6853508949279785,-0.4984212815761566
2024-12-07 19:55:53.015810000,4.53681005859375,-0.0650127455592155,-0.5822098851203918,-0.5009416937828064
2024-12-07 19:55:53.025824000,4.546823974609375,-0.0933593660593032,-0.4614426791667938,-0.5188513398170471
2024-12-07 19:55:53.035837200,4.556837158203125,-0.05139647051692,-0.3558360934257507,-0.5056790709495544
2024-12-07 19:55:53.045850000,4.56685009765625,0.1599468290805816,-0.4037929177284241,-0.4591984152793884
2024-12-07 19:55:53.055864000,4.576864013671875,0.451131522655487,-0.7442263960838318,-0.4075714349746704
2024-12-07 19:55:53.065877000,4.586876953125,0.5286040306091309,-1.0284173488616943,-0.2908339500427246
2024-12-07 19:55:53.075890200,4.59689013671875,0.0799420848488807,-0.8178369402885437,-0.1194901764392852
2024-12-07 19:55:53.085904100,4.606904052734375,-0.4293432831764221,-0.4254038035869598,-0.1293173432350158
2024-12-07 19:55:53.095917000,4.6169169921875,-0.7604884505271912,-0.0584945119917392,-0.3393603265285492
2024-12-07 19:55:53.105930000,4.626929931640625,-0.961497128009796,0.3373109996318817,-0.5333808660507202
2024-12-07 19:55:53.115944200,4.636944091796875,-1.102467060089111,0.6787943243980408,-0.626494824886322
2024-12-07 19:55:53.125957000,4.64695703125,-1.1864372491836548,0.7621921896934509,-0.602443277835846
2024-12-07 19:55:53.135970000,4.656969970703125,-1.2386125326156616,0.7672860026359558,-0.5370253920555115
2024-12-07 19:55:53.145984300,4.666984375,-1.140157699584961,0.7272534370422363,-0.5429667830467224
2024-12-07 19:55:53.155997000,4.676996826171875,-0.9434566497802734,0.8004725575447083,-0.5646328926086426
2024-12-07 19:55:53.166010000,4.687010009765625,-0.7142125368118286,0.9616039395332336,-0.5548316836357117
2024-12-07 19:55:53.176024000,4.697024169921875,-0.5598333477973938,0.9566848278045654,-0.5131663084030151
2024-12-07 19:55:53.186037000,4.707037109375,-0.5210105776786804,0.7135884165763855,-0.4553606808185577
2024-12-07 19:55:53.196050200,4.71705029296875,-0.5220497250556946,0.3036616146564483,-0.3864612281322479
2024-12-07 19:55:53.206063900,4.72706396484375,-0.4565765261650085,-0.0730915665626525,-0.328502893447876
2024-12-07 19:55:53.216077000,4.7370771484375,-0.3397524356842041,-0.300688236951828,-0.2955771684646606
2024-12-07 19:55:53.226090000,4.747090087890625,-0.2230767160654068,-0.399382472038269,-0.2699349820613861
2024-12-07 19:55:53.236104000,4.75710400390625,-0.1400209814310073,-0.4381003081798553,-0.2354699224233627
2024-12-07 19:55:53.246117000,4.7671171875,-0.1165575385093689,-0.4154911339282989,-0.1961460262537002
2024-12-07 19:55:53.256130000,4.777130126953125,-0.1617018431425094,-0.4119669795036316,-0.1748018562793731
2024-12-07 19:55:53.266144000,4.78714404296875,-0.2545985579490661,-0.4846227169036865,-0.1900440901517868
2024-12-07 19:55:53.276157200,4.7971572265625,-0.3461185991764068,-0.5672427415847778,-0.2223498225212097
2024-12-07 19:55:53.286170000,4.807170166015625,-0.4089432656764984,-0.5946682691574097,-0.2517089545726776
2024-12-07 19:55:53.296184000,4.81718408203125,-0.424139529466629,-0.5428380966186523,-0.2787541449069977
2024-12-07 19:55:53.306197200,4.827197265625,-0.3950031995773315,-0.4366899132728576,-0.3021128177642822
2024-12-07 19:55:53.316210000,4.8372099609375,-0.3316543102264404,-0.323803573846817,-0.3063011765480041
2024-12-07 19:55:53.326224100,4.84722412109375,-0.2539531290531158,-0.2247680574655532,-0.2925338447093963
2024-12-07 19:55:53.336237000,4.857237060546875,-0.1586902737617492,-0.1346144676208496,-0.2660106122493744
2024-12-07 19:55:53.346251000,4.8672509765625,-0.1032707169651985,-0.0935998037457466,-0.2462328374385833
2024-12-07 19:55:53.356264200,4.87726416015625,-0.1145532056689262,-0.0773260220885276,-0.2501900196075439
2024-12-07 19:55:53.366276900,4.88727685546875,-0.1546384394168853,-0.0931168496608734,-0.2714180052280426
2024-12-07 19:55:53.376291000,4.897291015625,-0.2050723284482956,-0.1084537208080291,-0.302550345659256
2024-12-07 19:55:53.386304300,4.90730419921875,-0.2476867586374282,-0.1139732375741005,-0.3243453502655029
2024-12-07 19:55:53.396317000,4.91731689453125,-0.2761932611465454,-0.0864611864089965,-0.3455944657325744
2024-12-07 19:55:53.406331100,4.9273310546875,-0.2919660210609436,-0.041426982730627,-0.3579306006431579
2024-12-07 19:55:53.416344000,4.937343994140625,-0.2877185642719269,-0.0155149577185511,-0.3716176450252533
2024-12-07 19:55:53.426357000,4.94735693359375,-0.2819520831108093,-0.0018570190295577,-0.3867920041084289
2024-12-07 19:55:53.436371200,4.95737109375,-0.2725026607513428,0.0466559194028377,-0.4178822636604309
2024-12-07 19:55:53.446383900,4.9673837890625,-0.2661146819591522,0.1563005596399307,-0.457502543926239
2024-12-07 19:55:53.456397000,4.97739697265625,-0.284475028514862,0.3256847858428955,-0.5018500089645386
2024-12-07 19:55:53.466411000,4.987410888671875,-0.3180482387542724,0.4985329210758209,-0.534701406955719
2024-12-07 19:55:53.476424000,4.997423828125,-0.3186146914958954,0.6434496641159058,-0.5400311946868896
2024-12-07 19:55:53.486438100,5.007438232421875,-0.3058013916015625,0.737851619720459,-0.5155004858970642
2024-12-07 19:55:53.496451000,5.017451171875,-0.2805319726467132,0.7602285742759705,-0.4713143706321716
2024-12-07 19:55:53.506463700,5.027463623046875,-0.245680496096611,0.6900730729103088,-0.4265287518501282
2024-12-07 19:55:53.516477700,5.037477783203125,-0.2035935074090957,0.5283414721488953,-0.3867586851119995
2024-12-07 19:55:53.526491000,5.047490966796875,-0.1433818340301513,0.352503627538681,-0.3565348982810974
2024-12-07 19:55:53.536503800,5.05750390625,-0.0864618122577667,0.251861959695816,-0.3511657118797302
2024-12-07 19:55:53.546517800,5.067517822265625,-0.0403062030673027,0.2337004989385604,-0.3701626062393188
2024-12-07 19:55:53.556531000,5.077531005859375,-0.0050443522632122,0.272722452878952,-0.3844065070152282
2024-12-07 19:55:53.566544000,5.0875439453125,-0.0020596690010279,0.3643458783626556,-0.37629234790802
2024-12-07 19:55:53.576557800,5.097557861328125,-0.0335398316383361,0.49518483877182,-0.3547987639904022
2024-12-07 19:55:53.586571000,5.107571044921875,-0.0899368524551391,0.6304206252098083,-0.3455089330673218
2024-12-07 19:55:53.596584000,5.117583984375,-0.1591119319200515,0.7126268148422241,-0.3586079478263855
2024-12-07 19:55:53.606598000,5.127597900390625,-0.2348106801509857,0.7060546278953552,-0.3832325637340545
2024-12-07 19:55:53.616610800,5.13761083984375,-0.2934689223766327,0.6171000003814697,-0.3996914327144623
2024-12-07 19:55:53.626624800,5.147624755859375,-0.3335490822792053,0.5360262989997864,-0.422204852104187
2024-12-07 19:55:53.636638000,5.157637939453125,-0.3539968430995941,0.493468701839447,-0.4382826089859009
2024-12-07 19:55:53.646651000,5.16765087890625,-0.3641782701015472,0.4686421453952789,-0.421889454126358
2024-12-07 19:55:53.656664800,5.177664794921875,-0.3609316051006317,0.4603679776191711,-0.3826096951961517
2024-12-07 19:55:53.666678000,5.187677978515625,-0.3471737802028656,0.4837802946567535,-0.3440093696117401
2024-12-07 19:55:53.676691000,5.19769091796875,-0.320431113243103,0.5158082842826843,-0.3331479430198669
2024-12-07 19:55:53.686705000,5.207704833984375,-0.2940420806407928,0.543380618095398,-0.3699307739734649
2024-12-07 19:55:53.696718000,5.217718017578125,-0.2764026224613189,0.5641061067581177,-0.4350384175777435
2024-12-07 19:55:53.706730800,5.227730712890625,-0.2870903611183166,0.5877204537391663,-0.4955710768699646
2024-12-07 19:55:53.716745000,5.237744873046875,-0.3351119458675384,0.5627426505088806,-0.4938083589076996
2024-12-07 19:55:53.726758000,5.2477578125,-0.3761165738105774,0.5624923706054688,-0.433803528547287
2024-12-07 19:55:53.736770800,5.257770751953125,-0.4347431361675262,0.583389401435852,-0.3494324386119842
2024-12-07 19:55:53.746785000,5.267784912109375,-0.5059493780136108,0.6066046953201294,-0.2901086509227752
2024-12-07 19:55:53.756797700,5.277797607421875,-0.5630273222923279,0.621950626373291,-0.2503884136676788
2024-12-07 19:55:53.766812000,5.28781201171875,-0.6068194508552551,0.6348187327384949,-0.2250487357378006
2024-12-07 19:55:53.776824800,5.297824951171875,-0.6392247676849365,0.6661161780357361,-0.2312866598367691
2024-12-07 19:55:53.786837800,5.307837646484375,-0.637629508972168,0.6642049551010132,-0.2241903245449066
2024-12-07 19:55:53.796852000,5.31785205078125,-0.6264655590057373,0.6429710388183594,-0.1828562021255493
2024-12-07 19:55:53.806865000,5.327864990234375,-0.6195089817047119,0.5861347317695618,-0.0769747272133827
2024-12-07 19:55:53.816877800,5.3378779296875,-0.6055673360824585,0.4516477286815643,0.0366735458374023
2024-12-07 19:55:53.826891800,5.347891845703125,-0.5240814685821533,0.3247256278991699,0.0463548935949802
2024-12-07 19:55:53.836904700,5.35790478515625,-0.3591486811637878,0.2210855334997177,-0.0504510141909122
2024-12-07 19:55:53.846918000,5.36791796875,-0.1318343430757522,0.1252389997243881,-0.1975475251674652
2024-12-07 19:55:53.856931800,5.377931884765625,0.1116145327687263,0.0795737728476524,-0.3333546221256256
2024-12-07 19:55:53.866944800,5.38794482421875,0.2260935306549072,0.1209310963749885,-0.3276180922985077
2024-12-07 19:55:53.876958700,5.397958740234375,0.195419505238533,0.154137521982193,-0.0658789128065109
2024-12-07 19:55:53.886972000,5.407971923828125,0.1660646200180053,0.186388686299324,0.3857372403144836
2024-12-07 19:55:53.896984800,5.41798486328125,0.2410648316144943,0.1942647099494934,0.8332204818725586
2024-12-07 19:55:53.906998800,5.427998779296875,0.3899818360805511,0.2651309967041015,1.18344247341156
2024-12-07 19:55:53.917012000,5.438011962890625,0.5604438185691833,0.3904577493667602,1.4453272819519043
2024-12-07 19:55:53.927025000,5.44802490234375,0.7167572379112244,0.55289226770401,1.662261962890625
2024-12-07 19:55:53.937038800,5.458038818359375,0.8550858497619629,0.8001196384429932,1.8066755533218384
2024-12-07 19:55:53.947051800,5.4680517578125,0.9880577325820924,1.2846719026565552,1.863377451896668
2024-12-07 19:55:53.957065700,5.478065673828125,1.0464950799942017,1.6928822994232178,1.8145511150360107
2024-12-07 19:55:53.967079000,5.488078857421875,0.9685739874839784,1.3264873027801514,1.5601099729537964
2024-12-07 19:55:53.977091800,5.498091796875,0.7990914583206177,0.6518533229827881,1.2476788759231567
2024-12-07 19:55:53.987105800,5.508105712890625,0.6240443587303162,0.2112679928541183,0.9474535584449768
2024-12-07 19:55:53.997119000,5.518118896484375,0.4704678356647491,0.0900046750903129,0.6834014058113098
2024-12-07 19:55:54.007132000,5.5281318359375,0.3893489837646484,0.1550463140010833,0.4968327283859253
2024-12-07 19:55:54.017145900,5.538145751953125,0.4204035699367523,0.2182559072971344,0.4095220565795898
2024-12-07 19:55:54.027159000,5.548158935546875,0.5112178325653076,0.3185779750347137,0.3833625316619873
2024-12-07 19:55:54.037172000,5.558171875,0.6192955374717712,0.540959358215332,0.3757014274597168
2024-12-07 19:55:54.047186000,5.56818603515625,0.7434349060058594,0.8627820611000061,0.3857200741767883
2024-12-07 19:55:54.057198800,5.57819873046875,0.8792515993118286,1.1159378290176392,0.4473357796669006
2024-12-07 19:55:54.067212800,5.588212890625,1.0147486925125122,1.2100054025650024,0.5669476985931396
2024-12-07 19:55:54.077226000,5.59822607421875,1.1503723859786987,1.164470672607422,0.7106457352638245
2024-12-07 19:55:54.087239000,5.608239013671875,1.2843865156173706,1.0299309492111206,0.819964587688446
2024-12-07 19:55:54.097252900,5.6182529296875,1.4299743175506592,0.8352295756340027,0.839474081993103
2024-12-07 19:55:54.107266000,5.62826611328125,1.5773799419403076,0.6613163352012634,0.7681504487991333
2024-12-07 19:55:54.117279700,5.63827978515625,1.7236309051513672,0.5538934469223022,0.620221734046936
2024-12-07 19:55:54.127293000,5.64829296875,1.8613132238388064,0.5434678196907043,0.4497084319591522
2024-12-07 19:55:54.137305900,5.658305908203125,2.008603572845459,0.608425498008728,0.2857005894184112
2024-12-07 19:55:54.147319800,5.66831982421875,2.124393939971924,0.6308271884918213,0.1388588845729828
2024-12-07 19:55:54.157333000,5.6783330078125,2.091174840927124,0.4785684645175934,0.0543120428919792
2024-12-07 19:55:54.167345700,5.688345703125,1.8406859636306765,-0.0844561532139778,0.0796771049499511
2024-12-07 19:55:54.177360000,5.69835986328125,1.505061388015747,-1.0178358554840088,0.1922063082456588
2024-12-07 19:55:54.187372800,5.708372802734375,1.221988081932068,-1.9588937759399407,0.2810061872005462
2024-12-07 19:55:54.197385700,5.7183857421875,1.0084041357040403,-2.579606056213379,0.2496032416820526
2024-12-07 19:55:54.207400000,5.72839990234375,0.8274670839309692,-2.7238593101501465,0.1428747922182083
2024-12-07 19:55:54.217412900,5.738412841796875,0.6111630201339722,-2.435537338256836,0.0438430160284042
2024-12-07 19:55:54.227426800,5.7484267578125,0.3933655619621277,-1.8660413026809688,-0.0027374159544706
2024-12-07 19:55:54.237439700,5.758439697265625,0.2339588850736618,-1.2578272819519043,0.0218614041805267
2024-12-07 19:55:54.247453000,5.768452880859375,0.1436852812767028,-0.9787312150001526,0.0219830926507711
2024-12-07 19:55:54.257467000,5.778466796875,0.1891030967235565,-0.9160300493240356,-0.0161403231322765
2024-12-07 19:55:54.267479800,5.788479736328125,0.263197660446167,-0.8090307116508484,-0.0865474194288253
2024-12-07 19:55:54.277494000,5.798493896484375,0.3115010261535644,-0.6911666393280029,-0.1429339945316314
2024-12-07 19:55:54.287507000,5.8085068359375,0.3505359292030334,-0.8096066117286682,-0.1772634834051132
2024-12-07 19:55:54.297519900,5.818519775390625,0.3840257227420807,-1.13367760181427,-0.1849227249622345
2024-12-07 19:55:54.307534000,5.8285341796875,0.3782442808151245,-1.447044849395752,-0.1789313703775406
2024-12-07 19:55:54.317546800,5.838546630859375,0.3194848001003265,-1.5495480298995972,-0.1637747883796692
2024-12-07 19:55:54.327560000,5.848559814453125,0.1894270181655883,-1.3954411745071411,-0.1800801753997802
2024-12-07 19:55:54.337574000,5.858573974609375,0.0029157421085983,-1.2668371200561523,-0.3163520097732544
2024-12-07 19:55:54.347586800,5.8685869140625,-0.2016255408525467,-1.245895266532898,-0.5296380519866943
2024-12-07 19:55:54.357601000,5.87860107421875,-0.3822714686393738,-1.0937936305999756,-0.6446298360824585
2024-12-07 19:55:54.367613700,5.88861376953125,-0.4375625252723694,-0.7771234512329102,-0.6421447396278381
2024-12-07 19:55:54.377627000,5.898626953125,-0.2670938372611999,-0.446349024772644,-0.5871523022651672
2024-12-07 19:55:54.387640800,5.908640869140625,0.0678255632519722,-0.5424308180809021,-0.6531329154968262
2024-12-07 19:55:54.397653800,5.91865380859375,0.3547846376895904,-1.2797788381576538,-0.7310327887535095
2024-12-07 19:55:54.407667000,5.9286669921875,0.2774897813796997,-1.8940887451171875,-0.5985441207885742
2024-12-07 19:55:54.417681000,5.938680908203125,-0.2755821943283081,-1.5316847562789917,-0.3178882300853729
2024-12-07 19:55:54.427693800,5.94869384765625,-0.8541738390922546,-1.102612018585205,-0.2375437170267105
2024-12-07 19:55:54.437707800,5.958707763671875,-1.2085548639297483,-0.9016832113265992,-0.4305137097835541
2024-12-07 19:55:54.447720700,5.968720703125,-1.4140814542770386,-0.5182949304580688,-0.5777693390846252
2024-12-07 19:55:54.457734000,5.97873388671875,-1.446013569831848,0.0118528213351964,-0.6108644604682922
2024-12-07 19:55:54.467747800,5.988747802734375,-1.3617684841156006,0.2988098859786987,-0.5835831165313721
2024-12-07 19:55:54.477760800,5.9987607421875,-1.2291473150253296,0.3402808904647827,-0.5170648097991943
2024-12-07 19:55:54.487775000,6.00877490234375,-1.0986871719360352,0.3851971328258514,-0.4617350995540619
2024-12-07 19:55:54.497788000,6.018787841796875,-1.0379517078399658,0.4898420572280884,-0.4510486423969269
2024-12-07 19:55:54.507801300,6.02880126953125,-0.9603648781776428,0.6361610293388367,-0.5008125901222229
2024-12-07 19:55:54.517815000,6.03881494140625,-0.8509417176246643,0.7581250071525574,-0.5793641209602356
2024-12-07 19:55:54.527828200,6.048828125,-0.7514052391052246,0.7609960436820984,-0.6198441386222839
2024-12-07 19:55:54.537841200,6.058841064453125,-0.645211398601532,0.5661842226982117,-0.5733218789100647
2024-12-07 19:55:54.547855000,6.068855224609375,-0.5394479036331177,0.3250697553157806,-0.4101846218109131
2024-12-07 19:55:54.557868300,6.078868408203125,-0.4192661046981811,0.2214496284723281,-0.2099029123783111
2024-12-07 19:55:54.567882200,6.08888232421875,-0.276232361793518,0.2390739917755127,-0.0717929899692535
2024-12-07 19:55:54.577895200,6.098895263671875,-0.1387506574392318,0.2730681896209717,-0.0255410708487033
2024-12-07 19:55:54.587908400,6.108908447265625,-0.0806862115859985,0.3042495548725128,-0.0330149754881858
2024-12-07 19:55:54.597922000,6.118922119140625,-0.0969338938593864,0.2943644225597381,-0.0454258397221565
2024-12-07 19:55:54.607935200,6.128935302734375,-0.1453176438808441,0.2458942830562591,-0.034924853593111
2024-12-07 19:55:54.617949200,6.13894921875,-0.2087458819150924,0.1367145329713821,0.0078974431380629
2024-12-07 19:55:54.627962000,6.148962158203125,-0.2806396484375,-0.0196043364703655,0.0578359812498092
2024-12-07 19:55:54.637975300,6.158975341796875,-0.3269839882850647,-0.1978731453418731,0.0696588233113288
2024-12-07 19:55:54.647989200,6.1689892578125,-0.3308423459529876,-0.3485716879367828,0.0229978524148464
2024-12-07 19:55:54.658002200,6.179002197265625,-0.3005624711513519,-0.4626529812812805,-0.0755233913660049
2024-12-07 19:55:54.668015400,6.189015380859375,-0.2450080662965774,-0.52852463722229,-0.2112346887588501
2024-12-07 19:55:54.678029300,6.199029296875,-0.1761562973260879,-0.5399578213691711,-0.3557293117046356
2024-12-07 19:55:54.688042200,6.209042236328125,-0.1146000474691391,-0.497094064950943,-0.4796278476715088
2024-12-07 19:55:54.698056200,6.21905615234375,-0.0646356865763664,-0.4378613531589508,-0.552624523639679
2024-12-07 19:55:54.708069000,6.229069091796875,-0.0265822540968656,-0.378845065832138,-0.5736381411552429
2024-12-07 19:55:54.718082300,6.239082275390625,-0.0108336508274078,-0.3341798782348633,-0.558527410030365
2024-12-07 19:55:54.728096300,6.24909619140625,-0.0098131475970149,-0.262378066778183,-0.5340487957000732
2024-12-07 19:55:54.738109200,6.259109130859375,-0.0371188037097454,-0.126784011721611,-0.4942385554313659
2024-12-07 19:55:54.748123100,6.269123046875,-0.0917997509241104,0.0311740320175886,-0.4398344457149505
2024-12-07 19:55:54.758136300,6.27913623046875,-0.1589372456073761,0.1768998056650161,-0.3738466501235962
2024-12-07 19:55:54.768149200,6.289149169921875,-0.2190587520599365,0.3071130514144897,-0.3073051571846008
2024-12-07 19:55:54.778163200,6.2991630859375,-0.2623162269592285,0.4743156135082245,-0.2560241520404815
2024-12-07 19:55:54.788176400,6.30917626953125,-0.2743109166622162,0.6548706889152527,-0.2293811589479446
2024-12-07 19:55:54.798189000,6.31918896484375,-0.2583412826061249,0.8082256317138672,-0.2265504896640777
2024-12-07 19:55:54.808203300,6.329203369140625,-0.2402946352958679,0.9151356816291808,-0.2272671610116958
2024-12-07 19:55:54.818216200,6.33921630859375,-0.2347659170627594,0.9442482590675354,-0.2075419276952743
2024-12-07 19:55:54.828230100,6.349230224609375,-0.2298460155725479,0.8550220727920532,-0.178235575556755
2024-12-07 19:55:54.838243300,6.359243408203125,-0.219656765460968,0.6448565721511841,-0.1596168875694275
2024-12-07 19:55:54.848256000,6.369256103515625,-0.2047548592090606,0.3580490350723266,-0.1841228753328323
2024-12-07 19:55:54.858270200,6.379270263671875,-0.182051420211792,0.0560635961592197,-0.2657804489135742
2024-12-07 19:55:54.868283400,6.389283447265625,-0.1383402943611145,-0.1642619669437408,-0.355945348739624
2024-12-07 19:55:54.878297000,6.399297119140625,-0.086108773946762,-0.2232677638530731,-0.4172968566417694
2024-12-07 19:55:54.888310300,6.409310302734375,-0.0450641810894012,-0.1402846127748489,-0.427284300327301
2024-12-07 19:55:54.898323200,6.4193232421875,-0.0299579314887523,0.0293861869722604,-0.3748248219490051
2024-12-07 19:55:54.908337200,6.429337158203125,-0.0516215376555919,0.1865588575601577,-0.2727004289627075
2024-12-07 19:55:54.918350300,6.439350341796875,-0.0833957195281982,0.2551118433475494,-0.2054121941328048
2024-12-07 19:55:54.928364300,6.4493642578125,-0.1061023995280265,0.2811219692230224,-0.2064397037029266
2024-12-07 19:55:54.938377200,6.459377197265625,-0.131874069571495,0.3380845785140991,-0.2613404989242553
2024-12-07 19:55:54.948390100,6.46939013671875,-0.1668814867734909,0.3956796824932098,-0.326126217842102
2024-12-07 19:55:54.958404400,6.479404296875,-0.2010085582733154,0.4567992389202118,-0.3589233160018921
2024-12-07 19:55:54.968417300,6.489417236328125,-0.2245048582553863,0.5551133155822754,-0.3585504591464996
2024-12-07 19:55:54.978431200,6.49943115234375,-0.2293499559164047,0.6840398907661438,-0.3405429422855377
2024-12-07 19:55:54.988444200,6.509444091796875,-0.2247249484062194,0.8101151585578918,-0.3497232496738434
2024-12-07 19:55:54.998457000,6.51945703125,-0.2514186203479767,0.8811301589012146,-0.3745713531970978
2024-12-07 19:55:55.008471300,6.52947119140625,-0.3269514143466949,0.7873787879943848,-0.3462502062320709
2024-12-07 19:55:55.018484200,6.539484130859375,-0.4269816279411316,0.6033945679664612,-0.2868174910545349
2024-12-07 19:55:55.028498200,6.549498291015625,-0.51869136095047,0.4685317277908325,-0.244747444987297
2024-12-07 19:55:55.038511400,6.559511474609375,-0.5925583839416504,0.4153481125831604,-0.2454888820648193
2024-12-07 19:55:55.048524000,6.56952392578125,-0.6362133622169495,0.3944997191429138,-0.2972156107425689
2024-12-07 19:55:55.058538200,6.579538330078125,-0.6407151222229004,0.338523805141449,-0.3887434005737304
2024-12-07 19:55:55.068551400,6.589551513671875,-0.6248639822006226,0.2565371990203857,-0.4975578486919403
2024-12-07 19:55:55.078565000,6.599565185546875,-0.6107057929039001,0.2219621688127517,-0.5976775288581848
2024-12-07 19:55:55.088578300,6.609578369140625,-0.61521977186203,0.2669451534748077,-0.6428996324539185
2024-12-07 19:55:55.098591000,6.619591064453125,-0.6283443570137024,0.3585999608039856,-0.6042353510856628
2024-12-07 19:55:55.108605200,6.629605224609375,-0.6507049202919006,0.4581117630004883,-0.4876827895641327
2024-12-07 19:55:55.118618400,6.639618408203125,-0.6872048377990723,0.4830000698566437,-0.3171360790729522
2024-12-07 19:55:55.128632300,6.64963232421875,-0.7169812917709351,0.4464569389820099,-0.1712307035923004
2024-12-07 19:55:55.138645200,6.659645263671875,-0.7293482422828674,0.3947460651397705,-0.1102698817849159
2024-12-07 19:55:55.148658200,6.669658203125,-0.7214094400405884,0.3018890619277954,-0.1087075918912887
2024-12-07 19:55:55.158672100,6.679672119140625,-0.6505728363990784,0.1521906554698944,-0.1448323130607605
2024-12-07 19:55:55.168685300,6.689685302734375,-0.5038197636604309,0.0037178406491875,-0.2221495062112808
2024-12-07 19:55:55.178699300,6.69969921875,-0.2952433824539184,-0.0986255779862403,-0.3217922151088714
2024-12-07 19:55:55.188712200,6.709712158203125,-0.0911982655525207,-0.1145622953772544,-0.4073967635631561
2024-12-07 19:55:55.198725000,6.71972509765625,0.0495985336601734,-0.0908638909459114,-0.4297737181186676
2024-12-07 19:55:55.208739300,6.7297392578125,0.1168043240904808,-0.1606316119432449,-0.3224573731422424
2024-12-07 19:55:55.218752300,6.739752197265625,0.1587299406528473,-0.3056409955024719,-0.0325946696102619
2024-12-07 19:55:55.228766200,6.74976611328125,0.2265318632125854,-0.3232231438159942,0.397718220949173
2024-12-07 19:55:55.238779400,6.759779296875,0.3330213129520416,-0.1500763893127441,0.8494012355804443
2024-12-07 19:55:55.248792000,6.7697919921875,0.4480790495872497,0.0567749105393886,1.2426446676254272
2024-12-07 19:55:55.258806300,6.77980615234375,0.54856276512146,0.2281288206577301,1.529131293296814
2024-12-07 19:55:55.268819200,6.789819091796875,0.6312932372093201,0.3336050510406494,1.7386502027511597
2024-12-07 19:55:55.278833200,6.799833251953125,0.7143521308898926,0.3870227634906769,1.8863056898117063
2024-12-07 19:55:55.288846300,6.809846435546875,0.8186637163162231,0.4478458762168884,1.9766515493392944
2024-12-07 19:55:55.298859000,6.81985888671875,0.9191221594810486,0.5893926620483398,2.016776323318481
2024-12-07 19:55:55.308873200,6.829873291015625,1.000219702720642,0.8069718480110168,2.0207204818725586
2024-12-07 19:55:55.318886400,6.839886474609375,1.045323610305786,0.9458929896354676,1.9683715105056765
2024-12-07 19:55:55.328900000,6.849900146484375,1.0798816680908203,0.8240034580230713,1.8045523166656487
2024-12-07 19:55:55.338913300,6.859913330078125,1.0821921825408936,0.4515923857688904,1.495793700218201
2024-12-07 19:55:55.348926200,6.86992626953125,0.9880024790763856,0.0451499447226524,1.153614163398743
2024-12-07 19:55:55.358940200,6.879940185546875,0.8225018978118896,-0.1727647930383682,0.8614091873168945
2024-12-07 19:55:55.368953300,6.889953369140625,0.6893735527992249,-0.1303841769695282,0.6418642997741699
2024-12-07 19:55:55.378967300,6.89996728515625,0.6412531733512878,0.0986402258276939,0.507526159286499
2024-12-07 19:55:55.388980200,6.909980224609375,0.6862586736679077,0.3777311742305755,0.4509163796901703
2024-12-07 19:55:55.398993200,6.9199931640625,0.7984296679496765,0.563031792640686,0.4343363344669342
2024-12-07 19:55:55.409007400,6.93000732421875,0.905226469039917,0.6494860053062439,0.4215824604034424
2024-12-07 19:55:55.419020300,6.940020263671875,0.9753570556640624,0.7015968561172485,0.3893129229545593
2024-12-07 19:55:55.429034200,6.9500341796875,0.9978896975517272,0.7254335880279541,0.3596252501010895
2024-12-07 19:55:55.439047200,6.960047119140625,0.9827845096588136,0.6902819871902466,0.3601277768611908
2024-12-07 19:55:55.449061000,6.97006103515625,0.9502829909324646,0.6077852249145508,0.3933094143867492
2024-12-07 19:55:55.459074300,6.98007421875,0.9500595331192015,0.5167868733406067,0.4328533709049225
2024-12-07 19:55:55.469087200,6.990087158203125,0.9938309192657472,0.4203254580497741,0.456464946269989
2024-12-07 19:55:55.479101200,7.00010107421875,1.051880121231079,0.3316025137901306,0.4628655910491943
2024-12-07 19:55:55.489114400,7.0101142578125,1.1221483945846558,0.2847112715244293,0.4732052385807037
2024-12-07 19:55:55.499128000,7.020128173828125,1.2186614274978638,0.2416929453611374,0.5086178183555603
2024-12-07 19:55:55.509141200,7.030141357421875,1.2988104820251465,0.1817467510700225,0.5357519388198853
2024-12-07 19:55:55.519154400,7.040154541015625,1.3163836002349854,0.1020314246416091,0.4897300899028778
2024-12-07 19:55:55.529168100,7.050168212890625,1.279893398284912,-0.0998388081789016,0.3714945316314697
2024-12-07 19:55:55.539181300,7.060181396484375,1.2156912088394165,-0.4583034813404083,0.2283099740743637
2024-12-07 19:55:55.549195300,7.0701953125,1.117893099784851,-0.9168875813484192,0.1463175117969513
2024-12-07 19:55:55.559208200,7.080208251953125,0.9640691876411438,-1.3089544773101809,0.1642664223909378
2024-12-07 19:55:55.569221400,7.090221435546875,0.801872193813324,-1.554194450378418,0.2175484895706176
2024-12-07 19:55:55.579235000,7.100235107421875,0.6588135957717896,-1.6098036766052246,0.2103590220212936
2024-12-07 19:55:55.589248300,7.110248291015625,0.5662251114845276,-1.4202871322631836,0.1359451711177826
2024-12-07 19:55:55.599262200,7.12026220703125,0.5376302003860474,-1.136052489280701,0.0820816680788993
2024-12-07 19:55:55.609275100,7.130275146484375,0.5309975743293762,-0.87360018491745,0.0965794622898101
2024-12-07 19:55:55.619288300,7.140288330078125,0.5110132098197937,-0.7682561278343201,0.1225998774170875
2024-12-07 19:55:55.629302300,7.15030224609375,0.4252369701862335,-0.8498477339744568,0.064634770154953
2024-12-07 19:55:55.639315200,7.160315185546875,0.3050423860549927,-1.0852009057998655,-0.0916861221194267
2024-12-07 19:55:55.649329200,7.1703291015625,0.2131109833717346,-1.3217400312423706,-0.2903474569320678
2024-12-07 19:55:55.659342300,7.18034228515625,0.1746344268321991,-1.3859128952026367,-0.471005380153656
2024-12-07 19:55:55.669355300,7.190355224609375,0.1932625323534011,-1.2879992723464966,-0.5700907111167908
2024-12-07 19:55:55.679369200,7.200369140625,0.2230065912008285,-1.1650161743164062,-0.5503617525100708
2024-12-07 19:55:55.689382400,7.21038232421875,0.2230833023786544,-1.1828058958053589,-0.4418602883815765
2024-12-07 19:55:55.699396000,7.22039599609375,0.1566590070724487,-1.5447722673416138,-0.3775098025798797
2024-12-07 19:55:55.709409300,7.2304091796875,0.0281693693250417,-1.8868252038955688,-0.3992275893688202
2024-12-07 19:55:55.719423200,7.24042333984375,-0.0770816877484321,-1.85392165184021,-0.4531728327274322
2024-12-07 19:55:55.729436200,7.250436279296875,-0.1522616744041443,-1.6473997831344604,-0.4953465461730957
2024-12-07 19:55:55.739449300,7.260449462890625,-0.2312108278274536,-1.4910203218460083,-0.5201411247253418
2024-12-07 19:55:55.749463000,7.270463134765625,-0.3219366371631622,-1.3995468616485596,-0.5496054887771606
2024-12-07 19:55:55.759476200,7.280476318359375,-0.4479102790355682,-1.262780785560608,-0.6272670030593872
2024-12-07 19:55:55.769490200,7.290490234375,-0.5768784284591675,-1.0003547668457031,-0.7362242341041565
2024-12-07 19:55:55.779503000,7.300503173828125,-0.6421170830726624,-0.6747548580169678,-0.849827766418457
2024-12-07 19:55:55.789516300,7.310516357421875,-0.6444793343544006,-0.430647999048233,-0.9516782164573668
2024-12-07 19:55:55.799530200,7.3205302734375,-0.5408650636672974,-0.3652146756649017,-1.0393614768981934
2024-12-07 19:55:55.809543200,7.330543212890625,-0.3340553045272827,-0.4911909997463226,-1.094365477561951
2024-12-07 19:55:55.819557000,7.34055712890625,-0.1009567975997924,-0.5230059027671814,-1.0020469427108765
2024-12-07 19:55:55.829570300,7.3505703125,-0.1258203536272049,-0.288238912820816,-0.6401134133338928
2024-12-07 19:55:55.839583200,7.360583251953125,-0.3978156745433807,-0.1224094629287719,-0.2692150175571441
2024-12-07 19:55:55.849597200,7.37059716796875,-0.6335306763648987,-0.1318287700414657,-0.0851281881332397
2024-12-07 19:55:55.859610000,7.380610107421875,-0.780485212802887,-0.0727835521101951,-0.1217541098594665
2024-12-07 19:55:55.869624000,7.3906240234375,-0.8981480002403259,0.3245526552200317,-0.25860595703125
2024-12-07 19:55:55.879637200,7.40063720703125,-1.013909935951233,0.7861426472663879,-0.3973691463470459
2024-12-07 19:55:55.889651200,7.410651123046875,-1.1196019649505615,0.9493573904037476,-0.5133194327354431
2024-12-07 19:55:55.899664100,7.4206640625,-1.136300802230835,0.8775186538696289,-0.5981043577194214
2024-12-07 19:55:55.909677300,7.43067724609375,-1.028103590011597,0.7050207853317261,-0.6532770395278931
2024-12-07 19:55:55.919691000,7.44069091796875,-0.8449361324310303,0.5714259743690491,-0.6470484137535095
2024-12-07 19:55:55.929704200,7.4507041015625,-0.6184961795806885,0.5886402130126953,-0.5936335325241089
2024-12-07 19:55:55.939718100,7.46071826171875,-0.4053421318531036,0.5449907183647156,-0.5251346826553345
2024-12-07 19:55:55.949731000,7.47073095703125,-0.2734129130840301,0.196349635720253,-0.4846327006816864
2024-12-07 19:55:55.959744300,7.480744140625,-0.2089961320161819,-0.2371703684329986,-0.4506030976772308
2024-12-07 19:55:55.969758200,7.49075830078125,-0.1640275120735168,-0.4344916045665741,-0.3782100677490234
2024-12-07 19:55:55.979771100,7.500771240234375,-0.1269280910491943,-0.3812060058116913,-0.2898788750171661
2024-12-07 19:55:55.989785000,7.51078515625,-0.0874650478363037,-0.2133077383041381,-0.2308815419673919
2024-12-07 19:55:55.999798300,7.52079833984375,-0.0504108853638172,-0.0340924523770809,-0.2089376300573349
2024-12-07 19:55:56.009812200,7.530812255859375,-0.0274835247546434,0.1425434947013855,-0.1973779797554016
2024-12-07 19:55:56.019825200,7.5408251953125,-0.0264976229518651,0.2860303521156311,-0.1717660874128341
2024-12-07 19:55:56.029838000,7.550838134765625,-0.0535963550209999,0.3438505232334137,-0.1350797116756439
2024-12-07 19:55:56.039852000,7.56085205078125,-0.0953946635127067,0.3821068108081817,-0.1083522364497184
2024-12-07 19:55:56.049865200,7.570865234375,-0.141066774725914,0.419068694114685,-0.0933041200041771
2024-12-07 19:55:56.059879400,7.58087939453125,-0.1904495060443878,0.4308632910251617,-0.0844493731856346
2024-12-07 19:55:56.069892000,7.59089208984375,-0.2485048919916153,0.4104964137077331,-0.0801975652575492
2024-12-07 19:55:56.079906300,7.60090625,-0.2945652902126312,0.3738712966442108,-0.0935674309730529
2024-12-07 19:55:56.089919000,7.6109189453125,-0.3181539177894592,0.3239101767539978,-0.1293599754571914
2024-12-07 19:55:56.099932200,7.62093212890625,-0.3155179023742676,0.2636438906192779,-0.1794692277908325
2024-12-07 19:55:56.109946400,7.6309462890625,-0.2862609922885895,0.1848604530096054,-0.2464687675237655
2024-12-07 19:55:56.119959000,7.640958984375,-0.2395496666431427,0.096684530377388,-0.3255151510238647
2024-12-07 19:55:56.129973200,7.65097314453125,-0.1895774751901626,0.0108073949813842,-0.3990421295166015
2024-12-07 19:55:56.139986200,7.660986083984375,-0.1557350903749466,-0.0461317859590053,-0.4420449733734131
2024-12-07 19:55:56.149999000,7.6709990234375,-0.1274507790803909,-0.0463190898299217,-0.4478881359100342
2024-12-07 19:55:56.160013300,7.681013427734375,-0.0998631045222282,-0.0074529182165861,-0.4322404563426971
2024-12-07 19:55:56.170026200,7.691026123046875,-0.0929982513189315,0.0890860855579376,-0.4058648943901062
2024-12-07 19:55:56.180040200,7.701040283203125,-0.0916435047984123,0.2102687060832977,-0.3560819029808044
2024-12-07 19:55:56.190053000,7.71105322265625,-0.1037439629435539,0.3122329711914062,-0.2789784371852875
2024-12-07 19:55:56.200067300,7.7210673828125,-0.1281387954950332,0.4524651765823364,-0.1917585879564285
2024-12-07 19:55:56.210080300,7.731080322265625,-0.1596225947141647,0.5793989300727844,-0.1150719970464706
2024-12-07 19:55:56.220093200,7.74109326171875,-0.1913166046142578,0.664463222026825,-0.0778511241078376
2024-12-07 19:55:56.230107400,7.751107421875,-0.2186502367258072,0.7222509384155273,-0.1001254171133041
2024-12-07 19:55:56.240120000,7.7611201171875,-0.2534971833229065,0.7595945596694946,-0.1757341623306274
2024-12-07 19:55:56.250134300,7.77113427734375,-0.2807557582855224,0.7706663012504578,-0.2674277722835541
2024-12-07 19:55:56.260147200,7.781147216796875,-0.2946310937404632,0.7547856569290161,-0.3543458878993988
2024-12-07 19:55:56.270160100,7.79116015625,-0.2753455638885498,0.6917837858200073,-0.4183515310287475
2024-12-07 19:55:56.280174300,7.80117431640625,-0.237263411283493,0.5739333033561707,-0.4572720229625702
2024-12-07 19:55:56.290187000,7.81118701171875,-0.1987087130546569,0.418410986661911,-0.4681327044963836
2024-12-07 19:55:56.300201200,7.821201171875,-0.1542123407125473,0.2827777862548828,-0.4392192959785461
2024-12-07 19:55:56.310214400,7.83121435546875,-0.0918610766530036,0.2308770567178726,-0.3940869569778442
2024-12-07 19:55:56.320228000,7.84122802734375,-0.0480169281363487,0.2776522636413574,-0.3698842525482178
2024-12-07 19:55:56.330241300,7.8512412109375,-0.0373379178345203,0.3553489148616791,-0.3503726124763489
2024-12-07 19:55:56.340254200,7.861254150390625,-0.0643106773495674,0.3780243992805481,-0.3342429101467132
2024-12-07 19:55:56.350268200,7.87126806640625,-0.105153352022171,0.3348191082477569,-0.3591248393058777
2024-12-07 19:55:56.360281300,7.88128125,-0.1502377390861511,0.256252110004425,-0.4326163828372955
2024-12-07 19:55:56.370295300,7.89129541015625,-0.1707633286714553,0.1694384068250656,-0.5136734247207642
2024-12-07 19:55:56.380308200,7.90130810546875,-0.1606531739234924,0.1290654093027115,-0.5642353892326355
2024-12-07 19:55:56.390322200,7.911322265625,-0.1467851549386978,0.1667327433824539,-0.5664253830909729
2024-12-07 19:55:56.400335400,7.92133544921875,-0.1515817791223526,0.3009525835514068,-0.516798198223114
2024-12-07 19:55:56.410348300,7.931348388671875,-0.1656354963779449,0.4668463468551636,-0.446956604719162
2024-12-07 19:55:56.420362200,7.9413623046875,-0.1962879449129104,0.6185144186019897,-0.3994210660457611
2024-12-07 19:55:56.430375200,7.951375244140625,-0.2460669726133346,0.7040374279022217,-0.3738053441047668
2024-12-07 19:55:56.440389000,7.96138916015625,-0.3122632801532745,0.6973523497581482,-0.348502904176712
2024-12-07 19:55:56.450402300,7.97140234375,-0.3850206732749939,0.5982688069343567,-0.3118558526039123
2024-12-07 19:55:56.460416000,7.981416015625,-0.444942831993103,0.4743492603302002,-0.2777639329433441
2024-12-07 19:55:56.470429200,7.99142919921875,-0.4734884798526764,0.4417594075202942,-0.2623794078826904
2024-12-07 19:55:56.480442400,8.0014423828125,-0.4491847455501556,0.4892542064189911,-0.2681520581245422
2024-12-07 19:55:56.490456000,8.0114560546875,-0.3949721455574035,0.5424003005027771,-0.2715010344982147
2024-12-07 19:55:56.500469200,8.02146923828125,-0.3640608191490173,0.4820408523082733,-0.231157585978508
2024-12-07 19:55:56.510483700,8.031483642578126,-0.3845119476318359,0.372718870639801,-0.2050076425075531
2024-12-07 19:55:56.520497000,8.041496826171874,-0.4312775731086731,0.3376580774784088,-0.2429017722606659
2024-12-07 19:55:56.530509800,8.051509765625,-0.5043811202049255,0.3737585544586181,-0.291190892457962
2024-12-07 19:55:56.540523800,8.061523681640624,-0.5792518854141235,0.3630904853343963,-0.2832195162773132
2024-12-07 19:55:56.550536700,8.07153662109375,-0.631853461265564,0.3601566851139068,-0.2402836382389068
2024-12-07 19:55:56.560550700,8.081550537109376,-0.646803617477417,0.3902754187583923,-0.1873058974742889
2024-12-07 19:55:56.570563800,8.091563720703125,-0.6298397183418274,0.3826859295368194,-0.1240433529019355
2024-12-07 19:55:56.580577800,8.101577880859375,-0.5788984894752502,0.3323383331298828,-0.0591786094009876
2024-12-07 19:55:56.590590700,8.1115908203125,-0.4952389597892761,0.2554796040058136,-0.0423144772648811
2024-12-07 19:55:56.600604000,8.12160400390625,-0.3788218200206756,0.2037708461284637,-0.0908183604478836
2024-12-07 19:55:56.610617600,8.13161767578125,-0.2455321997404098,0.1877521276473999,-0.1620416492223739
2024-12-07 19:55:56.620630800,8.141630859375,-0.129577100276947,0.1813192665576934,-0.1983463913202285
2024-12-07 19:55:56.630644700,8.151644775390626,-0.0842515230178833,0.1842685043811798,-0.1339436769485473
2024-12-07 19:55:56.640657700,8.16165771484375,-0.0931472852826118,0.1927163153886795,0.0305714961141347
2024-12-07 19:55:56.650671600,8.171671630859375,-0.0950495824217796,0.1643113046884536,0.2633312344551086
2024-12-07 19:55:56.660684800,8.181684814453124,-0.0567133761942386,0.1424957513809204,0.494740754365921
2024-12-07 19:55:56.670697700,8.19169775390625,0.0210420340299606,0.1579322516918182,0.7003762722015381
2024-12-07 19:55:56.680711700,8.201711669921876,0.1222413554787635,0.2345482110977172,0.8907829523086548
2024-12-07 19:55:56.690724900,8.211724853515625,0.2266158312559127,0.390826940536499,1.0885001420974731
2024-12-07 19:55:56.700738600,8.221738525390625,0.326663613319397,0.5347814559936523,1.294149398803711
2024-12-07 19:55:56.710751700,8.231751708984374,0.4261159598827362,0.5475829839706421,1.46460223197937
2024-12-07 19:55:56.720766000,8.241765869140625,0.5337731838226318,0.4916494488716125,1.5635969638824463
2024-12-07 19:55:56.730778600,8.251778564453126,0.6306521892547607,0.472848504781723,1.5968221426010132
2024-12-07 19:55:56.740791800,8.261791748046875,0.701991617679596,0.519748866558075,1.5751352310180664
2024-12-07 19:55:56.750805800,8.2718056640625,0.7658863663673401,0.6309879422187805,1.5086497068405151
2024-12-07 19:55:56.760818700,8.281818603515624,0.8531253933906555,0.8120245933532715,1.4226908683776855
2024-12-07 19:55:56.770833000,8.2918330078125,0.9530438780784608,0.9014490246772766,1.3208693265914917
2024-12-07 19:55:56.780845600,8.301845458984374,1.0109766721725464,0.7705687880516052,1.2202301025390625
2024-12-07 19:55:56.790859800,8.31185986328125,1.0086344480514526,0.5787186622619629,1.150102138519287
2024-12-07 19:55:56.800872700,8.321872802734376,1.0034584999084473,0.5765218138694763,1.1376073360443115
2024-12-07 19:55:56.810885600,8.3318857421875,1.027446746826172,0.7806805372238159,1.1869624853134155
2024-12-07 19:55:56.820899800,8.34189990234375,1.0695492029190063,0.9722968339920044,1.263729453086853
2024-12-07 19:55:56.830912800,8.351912841796874,1.0953577756881714,1.0222501754760742,1.322975754737854
2024-12-07 19:55:56.840926700,8.3619267578125,1.1092385053634644,0.9893873333930968,1.3390766382217407
2024-12-07 19:55:56.850939600,8.371939697265624,1.1339064836502075,0.9919410943984984,1.2868247032165527
2024-12-07 19:55:56.860953900,8.381953857421875,1.1617881059646606,1.0835882425308228,1.1723839044570925
2024-12-07 19:55:56.870966800,8.391966796875,1.1911115646362305,1.1679935455322266,1.0144715309143066
2024-12-07 19:55:56.880979700,8.401979736328125,1.2403042316436768,1.1843994855880735,0.8259682059288025
2024-12-07 19:55:56.890994000,8.411993896484375,1.315657138824463,1.122551441192627,0.6253138780593872
2024-12-07 19:55:56.901006600,8.422006591796874,1.4228824377059937,0.966469705104828,0.4134356677532196
2024-12-07 19:55:56.911020800,8.432020751953125,1.5700136423110962,0.658501923084259,0.1856493204832077
2024-12-07 19:55:56.921033700,8.44203369140625,1.7932089567184448,0.3604944348335266,-0.0202481970191001
2024-12-07 19:55:56.931047700,8.452047607421875,2.0085840225219727,0.1369864791631698,-0.1108728572726249
2024-12-07 19:55:56.941060900,8.462060791015626,2.071383714675904,-0.2070734202861786,-0.0579800829291343
2024-12-07 19:55:56.951073500,8.472073486328124,1.8962864875793457,-0.7355673313140869,0.0545944683253765
2024-12-07 19:55:56.961087700,8.482087646484375,1.6268771886825562,-1.2433407306671145,0.1208030506968498
2024-12-07 19:55:56.971101000,8.492100830078124,1.415177583694458,-1.6034197807312012,0.1306974589824676
2024-12-07 19:55:56.981114600,8.502114501953125,1.2861911058425903,-1.8263086080551147,0.1359982192516327
2024-12-07 19:55:56.991127800,8.5121279296875,1.1933624744415283,-1.951119303703308,0.1378729939460754
2024-12-07 19:55:57.001141800,8.522141845703125,1.081708312034607,-2.074235439300537,0.0954829305410385
2024-12-07 19:55:57.011154700,8.53215478515625,0.9285422563552856,-2.2175986766815186,0.0059083346277475
2024-12-07 19:55:57.021167900,8.54216796875,0.7506510615348816,-2.27043080329895,-0.1190442591905593
2024-12-07 19:55:57.031181800,8.552181884765625,0.5473816990852356,-2.089780330657959,-0.2252822369337082
2024-12-07 19:55:57.041194800,8.56219482421875,0.37085622549057,-1.7591769695281982,-0.3107790350914001
2024-12-07 19:55:57.051208700,8.572208740234375,0.2715503573417663,-1.467328429222107,-0.3840972483158111
2024-12-07 19:55:57.061222000,8.582221923828126,0.2105408012866974,-1.1967155933380127,-0.4218581914901733
2024-12-07 19:55:57.071235600,8.592235595703125,0.2011123895645141,-0.9009115695953368,-0.3776378929615021
2024-12-07 19:55:57.081248800,8.602248779296875,0.2443203032016754,-0.7279799580574036,-0.2665662169456482
2024-12-07 19:55:57.091261700,8.61226171875,0.2802568078041076,-0.7239524722099304,-0.1810793280601501
2024-12-07 19:55:57.101275600,8.622275634765625,0.3010425269603729,-0.8404293060302734,-0.1537047028541565
2024-12-07 19:55:57.111288800,8.632288818359376,0.3336268365383148,-1.0219976902008057,-0.1863760948181152
2024-12-07 19:55:57.121302800,8.642302734375,0.3741790652275085,-1.1199010610580444,-0.2414060533046722
2024-12-07 19:55:57.131315700,8.652315673828125,0.3601435124874115,-1.1469813585281372,-0.310713917016983
2024-12-07 19:55:57.141329700,8.66232958984375,0.2814393639564514,-1.2119594812393188,-0.3673292696475982
2024-12-07 19:55:57.151342600,8.672342529296875,0.1456227898597717,-1.2948639392852783,-0.4011722207069397
2024-12-07 19:55:57.161356800,8.682356689453124,-0.020167239010334,-1.417719841003418,-0.4536005556583404
2024-12-07 19:55:57.171369700,8.69236962890625,-0.1763738691806793,-1.471028447151184,-0.551533043384552
2024-12-07 19:55:57.181382700,8.702382568359376,-0.309425950050354,-1.3687644004821775,-0.7097786068916321
2024-12-07 19:55:57.191396600,8.712396728515625,-0.4223724603652954,-1.0940406322479248,-0.8474443554878235
2024-12-07 19:55:57.201409800,8.722409912109375,-0.4797662496566772,-0.742020845413208,-0.9244794845581056
2024-12-07 19:55:57.211423700,8.732423828125,-0.3065982460975647,-0.33163982629776,-0.9063470959663392
2024-12-07 19:55:57.221436700,8.742436767578125,0.0910034701228141,-0.0372521430253982,-0.7340784072875977
2024-12-07 19:55:57.231451000,8.752450927734374,0.4003810286521911,-0.2140940427780151,-0.5941368937492371
2024-12-07 19:55:57.241463600,8.762463623046875,0.1328483819961547,-0.7330642342567444,-0.4648279249668121
2024-12-07 19:55:57.251476700,8.772476806640626,-0.5217052698135376,-0.8823840022087097,-0.2451347708702087
2024-12-07 19:55:57.261491000,8.782490966796875,-0.898027241230011,-0.6952980160713196,-0.2475856840610504
2024-12-07 19:55:57.271503600,8.792503662109375,-1.0091321468353271,-0.284583032131195,-0.4671052396297455
2024-12-07 19:55:57.281517800,8.802517822265624,-1.0626451969146729,0.2614224851131439,-0.6051230430603027
2024-12-07 19:55:57.291530800,8.81253076171875,-1.1573532819747925,0.4317068755626678,-0.6940747499465942
2024-12-07 19:55:57.301544700,8.822544677734374,-1.2499735355377195,0.3882313072681427,-0.693638265132904
2024-12-07 19:55:57.311558000,8.832557861328125,-1.2670210599899292,0.2920180559158325,-0.5991951823234558
2024-12-07 19:55:57.321570600,8.842570556640625,-1.1870615482330322,0.2716675102710724,-0.5004510283470154
2024-12-07 19:55:57.331584800,8.852584716796875,-1.0385702848434448,0.3955131769180298,-0.4509142339229584
2024-12-07 19:55:57.341597700,8.86259765625,-0.8569037318229675,0.6380102038383484,-0.4530413150787353
2024-12-07 19:55:57.351612000,8.87261181640625,-0.7045508027076721,0.8058040142059326,-0.4906941950321197
2024-12-07 19:55:57.361624800,8.882624755859375,-0.6393901705741882,0.6506761908531189,-0.5390425324440002
2024-12-07 19:55:57.371638800,8.892638671875,-0.624302089214325,0.2352205514907837,-0.5444457530975342
2024-12-07 19:55:57.381651700,8.902651611328125,-0.5560353994369507,-0.1407706588506698,-0.4829165935516357
2024-12-07 19:55:57.391665700,8.912665771484376,-0.424130916595459,-0.3405466377735138,-0.3954136371612549
2024-12-07 19:55:57.401678800,8.922678955078124,-0.2813655138015747,-0.382516473531723,-0.3010671436786651
2024-12-07 19:55:57.411691800,8.93269189453125,-0.1388540714979171,-0.3424282670021057,-0.2248288542032241
2024-12-07 19:55:57.421705700,8.942705810546874,-0.0511226169764995,-0.257941871881485,-0.1774086207151413
2024-12-07 19:55:57.431719000,8.952718994140625,-0.049052458256483,-0.1229531317949295,-0.1629909873008728
2024-12-07 19:55:57.441732600,8.962732666015626,-0.0998730286955833,0.0194202587008476,-0.1675319522619247
2024-12-07 19:55:57.451745800,8.972745849609375,-0.1468831300735473,0.1226235404610633,-0.1657686382532119
2024-12-07 19:55:57.461759700,8.982759765625,-0.1945257484912872,0.1676445454359054,-0.1506490707397461
2024-12-07 19:55:57.471772700,8.992772705078124,-0.2542301118373871,0.1546073108911514,-0.1409732699394226
2024-12-07 19:55:57.481785900,9.002785888671875,-0.3240848183631897,0.0984830558300018,-0.1477084159851074
2024-12-07 19:55:57.491799800,9.0127998046875,-0.3841796517372131,0.0221762154251337,-0.2005635797977447
2024-12-07 19:55:57.501812700,9.022812744140625,-0.4067286252975464,-0.0472766272723674,-0.2915462255477905
2024-12-07 19:55:57.511826200,9.032826171875,-0.3876326978206634,-0.0799511671066284,-0.4055208563804626
2024-12-07 19:55:57.521839000,9.042839111328124,-0.34357950091362,-0.079215869307518,-0.5132923126220703
2024-12-07 19:55:57.531853300,9.052853271484375,-0.2880513966083526,-0.0533223189413547,-0.5966805219650269
2024-12-07 19:55:57.541866200,9.0628662109375,-0.2331596463918686,0.0263618603348732,-0.6477024555206299
2024-12-07 19:55:57.551879200,9.072879150390625,-0.198091983795166,0.17323799431324,-0.6580677032470703
2024-12-07 19:55:57.561893000,9.08289306640625,-0.203298732638359,0.3542906045913696,-0.6252815127372742
2024-12-07 19:55:57.571906000,9.092906005859374,-0.2417176663875579,0.5168337225914001,-0.5277398228645325
2024-12-07 19:55:57.581920300,9.102920166015624,-0.2787481248378753,0.6034005880355835,-0.3816569149494171
2024-12-07 19:55:57.591933200,9.11293310546875,-0.310509592294693,0.6227273344993591,-0.2529474794864654
2024-12-07 19:55:57.601947400,9.122947509765623,-0.3406262099742889,0.5754378437995911,-0.1892989724874496
2024-12-07 19:55:57.611960000,9.1329599609375,-0.36940997838974,0.5300816297531128,-0.1921926736831665
2024-12-07 19:55:57.621973200,9.14297314453125,-0.3900252282619476,0.5113478899002075,-0.2520706355571747
2024-12-07 19:55:57.631987200,9.1529873046875,-0.4002006947994232,0.4867472052574157,-0.3367460966110229
2024-12-07 19:55:57.642000100,9.163000244140624,-0.3965431153774261,0.4262140691280365,-0.4124014377593994
2024-12-07 19:55:57.652014300,9.173014404296875,-0.3730266690254211,0.3688579797744751,-0.4842675328254699
2024-12-07 19:55:57.662027000,9.183027099609374,-0.3155218362808227,0.3552154004573822,-0.5426019430160522
2024-12-07 19:55:57.672041200,9.193041259765623,-0.2394451349973678,0.3650147318840027,-0.5809021592140198
2024-12-07 19:55:57.682054400,9.203054443359376,-0.1710836589336395,0.4390916228294372,-0.5854777097702026
2024-12-07 19:55:57.692068000,9.213068115234377,-0.1165506094694137,0.5506697297096252,-0.5318600535392761
2024-12-07 19:55:57.702081300,9.223081298828124,-0.0675963833928108,0.6701159477233887,-0.4179901778697967
2024-12-07 19:55:57.712094200,9.23309423828125,-0.036082923412323,0.7992923259735107,-0.2864142954349518
2024-12-07 19:55:57.722108200,9.243108154296875,-0.0498512014746665,0.9262542724609376,-0.1817467659711837
2024-12-07 19:55:57.732121300,9.253121337890626,-0.1048285141587257,1.0252937078475952,-0.1348088979721069
2024-12-07 19:55:57.742135300,9.26313525390625,-0.1720632016658783,1.0468991994857788,-0.144326239824295
2024-12-07 19:55:57.752148200,9.273148193359376,-0.2389870882034301,1.0024733543395996,-0.1942061632871627
2024-12-07 19:55:57.762162200,9.283162109375,-0.299065887928009,0.8987759351730347,-0.2687624096870422
2024-12-07 19:55:57.772175400,9.29317529296875,-0.3308919072151184,0.7825676798820496,-0.3517626821994781
2024-12-07 19:55:57.782189000,9.30318896484375,-0.3391818106174469,0.6870922446250916,-0.4359310865402221
2024-12-07 19:55:57.792202200,9.3132021484375,-0.3383412063121795,0.5973119735717773,-0.471569150686264
2024-12-07 19:55:57.802215200,9.323215087890626,-0.3464998006820678,0.4691675901412964,-0.434174120426178
2024-12-07 19:55:57.812229000,9.33322900390625,-0.3736983239650726,0.2953508198261261,-0.339641660451889
2024-12-07 19:55:57.822242300,9.3432421875,-0.4056392014026642,0.1918284147977829,-0.2586331069469452
2024-12-07 19:55:57.832256000,9.353256103515625,-0.4170534610748291,0.244324192404747,-0.2606394588947296
2024-12-07 19:55:57.842269200,9.363269287109375,-0.4215930998325348,0.339909553527832,-0.3236021697521209
2024-12-07 19:55:57.852283100,9.373283203125,-0.4142587184906006,0.390062153339386,-0.3967224359512329
2024-12-07 19:55:57.862296000,9.383296142578123,-0.3889810442924499,0.3972817063331604,-0.4544920027256012
2024-12-07 19:55:57.872309200,9.393309326171876,-0.3619613647460937,0.4347209930419922,-0.4865734279155731
2024-12-07 19:55:57.882323200,9.4033232421875,-0.3647672533988952,0.4795119166374206,-0.4498694837093353
2024-12-07 19:55:57.892336000,9.413336181640624,-0.4053604006767273,0.5104004740715027,-0.3267066776752472
2024-12-07 19:55:57.902350000,9.42335009765625,-0.476331502199173,0.5191572308540344,-0.1971351206302642
2024-12-07 19:55:57.912363300,9.43336328125,-0.5649877786636353,0.5304579138755798,-0.1541891694068908
2024-12-07 19:55:57.922377200,9.443377197265624,-0.6536740064620972,0.5445793271064758,-0.2104721516370773
2024-12-07 19:55:57.932390100,9.45339013671875,-0.7309869527816772,0.5092354416847229,-0.2879159152507782
2024-12-07 19:55:57.942404400,9.463404296875,-0.7719565033912659,0.3722277879714966,-0.323195606470108
2024-12-07 19:55:57.952417000,9.4734169921875,-0.773087203502655,0.2166273146867752,-0.3402527868747711
2024-12-07 19:55:57.962430200,9.48343017578125,-0.7453889846801758,0.1112188696861267,-0.3639685213565826
2024-12-07 19:55:57.972444400,9.4934443359375,-0.7049513459205627,-0.0315221175551414,-0.3880032300949096
2024-12-07 19:55:57.982457000,9.50345703125,-0.6480675935745239,-0.207915261387825,-0.4248161017894745
2024-12-07 19:55:57.992471300,9.51347119140625,-0.5487140417098999,-0.3814868927001953,-0.4729147255420685
2024-12-07 19:55:58.002484000,9.52348388671875,-0.4156734347343445,-0.4924072921276092,-0.5391949415206909
2024-12-07 19:55:58.012498200,9.533498291015626,-0.2565610706806183,-0.4956823289394378,-0.5890324115753174
2024-12-07 19:55:58.022511400,9.543511474609376,-0.1633592098951339,-0.3774185180664062,-0.5608391165733337
2024-12-07 19:55:58.032524000,9.55352392578125,-0.1748981922864914,-0.2129008471965789,-0.4075262248516083
2024-12-07 19:55:58.042538200,9.563538330078124,-0.2073445469141006,-0.0692166462540626,-0.1469936966896057
2024-12-07 19:55:58.052551200,9.57355126953125,-0.1943422853946685,0.0082001714035868,0.1532555073499679
2024-12-07 19:55:58.062565000,9.583565185546876,-0.0948484614491462,0.0339345633983612,0.4536904394626617
2024-12-07 19:55:58.072578300,9.593578369140625,0.0702351555228233,0.0418416447937488,0.7517865896224976
2024-12-07 19:55:58.082592300,9.60359228515625,0.219081625342369,0.1957800835371017,1.0421491861343384
2024-12-07 19:55:58.092605200,9.613605224609374,0.356853187084198,0.4205734133720398,1.307552695274353
2024-12-07 19:55:58.102619100,9.623619140625,0.5373942255973816,0.5910087823867798,1.5339791774749756
2024-12-07 19:55:58.112632300,9.63363232421875,0.7578989863395691,0.6774240136146545,1.699369192123413
2024-12-07 19:55:58.122645200,9.643645263671877,0.9570035934448242,0.7229438424110413,1.8011796474456787
2024-12-07 19:55:58.132659200,9.6536591796875,1.0852346420288086,0.7348045706748962,1.8426567316055296
2024-12-07 19:55:58.142672400,9.66367236328125,1.1283835172653198,0.7010045647621155,1.8390849828720093
2024-12-07 19:55:58.152686000,9.67368603515625,1.11321759223938,0.6947216391563416,1.8087854385375977
2024-12-07 19:55:58.162699300,9.68369921875,1.0940533876419067,0.738700807094574,1.742664813995361
2024-12-07 19:55:58.172713200,9.693713134765623,1.1165388822555542,0.8301840424537659,1.6220922470092771
2024-12-07 19:55:58.182726100,9.70372607421875,1.1156917810440063,0.8817886710166931,1.4802379608154297
2024-12-07 19:55:58.192740000,9.713739990234377,1.0535482168197632,0.8284412026405334,1.3248344659805298
2024-12-07 19:55:58.202753300,9.723753173828126,0.97475266456604,0.6737133860588074,1.1379185914993286
2024-12-07 19:55:58.212766200,9.73376611328125,0.8955548405647278,0.4853524267673492,0.958221971988678
2024-12-07 19:55:58.222780200,9.7437802734375,0.8415102362632751,0.3312773704528808,0.806326687335968
2024-12-07 19:55:58.232793000,9.75379296875,0.8169874548912048,0.2197647094726562,0.7082879543304443
2024-12-07 19:55:58.242807000,9.76380712890625,0.8142175078392029,0.0845211371779441,0.6686015725135803
2024-12-07 19:55:58.252820200,9.7738203125,0.8025488257408142,-0.088561438024044,0.6500967144966125
2024-12-07 19:55:58.262834400,9.78383447265625,0.7769600749015808,-0.2269818931818008,0.620170533657074
2024-12-07 19:55:58.272847000,9.79384716796875,0.765023946762085,-0.2579623460769653,0.5887966156005859
2024-12-07 19:55:58.282860300,9.8038603515625,0.7878605127334595,-0.1912533491849899,0.5494316220283508
2024-12-07 19:55:58.292874000,9.8138740234375,0.8498374223709106,-0.1055167242884635,0.4893141388893127
2024-12-07 19:55:58.302887200,9.82388720703125,0.9353959560394288,-0.0469476841390132,0.4119780659675598
2024-12-07 19:55:58.312901400,9.8339013671875,1.0415676832199097,-0.0269307158887386,0.33225217461586
2024-12-07 19:55:58.322914000,9.8439140625,1.153471827507019,-0.0566252283751964,0.2663184404373169
2024-12-07 19:55:58.332928300,9.85392822265625,1.258303999900818,-0.1597010344266891,0.223932147026062
2024-12-07 19:55:58.342941200,9.863941162109375,1.3699418306350708,-0.2549766898155212,0.2015330940485
2024-12-07 19:55:58.352955100,9.873955078125,1.4656347036361694,-0.2088187038898468,0.1913981437683105
2024-12-07 19:55:58.362968300,9.88396826171875,1.5361427068710327,0.0033976752310991,0.192160353064537
2024-12-07 19:55:58.372981200,9.893981201171876,1.6185345649719238,0.190163716673851,0.1831454485654831
2024-12-07 19:55:58.382995200,9.9039951171875,1.665162444114685,0.127324029803276,0.1690647900104522
2024-12-07 19:55:58.393008000,9.914008056640624,1.5794280767440796,-0.0582601502537727,0.2542025744915008
2024-12-07 19:55:58.403022300,9.924022216796876,1.4138636589050293,-0.2056242972612381,0.485999047756195
2024-12-07 19:55:58.413035300,9.93403515625,1.2423512935638428,-0.3773165345191955,0.7484201192855835
2024-12-07 19:55:58.423049200,9.94404931640625,1.08297860622406,-0.6674221754074097,0.8687790036201477
2024-12-07 19:55:58.433062400,9.9540625,0.9302624464035034,-0.955237090587616,0.8445019125938416
2024-12-07 19:55:58.443076000,9.964076171875,0.7888270616531372,-0.9847949743270874,0.713117241859436
2024-12-07 19:55:58.453089300,9.97408935546875,0.663926362991333,-0.81283038854599,0.5219086408615112
2024-12-07 19:55:58.463102200,9.984102294921875,0.5277733206748962,-0.7406808137893677,0.3523989915847778
2024-12-07 19:55:58.473116200,9.9941162109375,0.3838756680488586,-0.7795225977897644,0.2420558482408523
2024-12-07 19:55:58.483129300,10.00412939453125,0.2654212117195129,-0.7497020959854126,0.131834790110588
2024-12-07 19:55:58.493143000,10.01414306640625,0.2119597345590591,-0.7885717749595642,-0.0241370592266321
2024-12-07 19:55:58.503156200,10.02415625,0.2329624891281128,-0.9179204106330872,-0.2008838653564453
2024-12-07 19:55:58.513169700,10.034169677734376,0.2836978435516357,-1.1638071537017822,-0.3931676745414734
2024-12-07 19:55:58.523182600,10.0441826171875,0.3001689612865448,-1.5124762058258057,-0.5768677592277527
2024-12-07 19:55:58.533196800,10.05419677734375,0.2585204541683197,-1.6955231428146362,-0.6977615356445312
2024-12-07 19:55:58.543209700,10.064209716796874,0.192987784743309,-1.5402730703353882,-0.7236890196800232
2024-12-07 19:55:58.553222700,10.07422265625,0.1407259404659271,-1.2814346551895142,-0.7023172378540039
2024-12-07 19:55:58.563236600,10.084236572265626,0.086726613342762,-1.1142033338546753,-0.6905391812324524
2024-12-07 19:55:58.573249500,10.09424951171875,0.0073257768526673,-0.9644015431404114,-0.687682032585144
2024-12-07 19:55:58.583263700,10.104263671875,-0.1353301703929901,-0.8841860890388489,-0.6802321076393127
2024-12-07 19:55:58.593276700,10.114276611328124,-0.3643934726715088,-0.8536559343338013,-0.6791533827781677
2024-12-07 19:55:58.603291000,10.124290771484375,-0.5670933723449707,-0.8664476275444031,-0.7405749559402466
2024-12-07 19:55:58.613303600,10.134303466796876,-0.6054922938346863,-0.7210183143615723,-0.8937400579452515
2024-12-07 19:55:58.623317800,10.14431787109375,-0.4644659161567688,-0.4530185759067535,-1.028560757637024
2024-12-07 19:55:58.633330700,10.15433056640625,-0.302977979183197,-0.3759918510913849,-1.019665002822876
2024-12-07 19:55:58.643343600,10.164343505859376,-0.3035761415958404,-0.5025846362113953,-0.8526943325996399
2024-12-07 19:55:58.653357800,10.17435791015625,-0.558619499206543,-0.625544011592865,-0.5701797604560852
2024-12-07 19:55:58.663370500,10.18437060546875,-0.7747395634651184,-0.644300103187561,-0.3166095316410064
2024-12-07 19:55:58.673384700,10.194384765625,-0.8077614307403564,-0.7307424545288086,-0.2474352717399597
2024-12-07 19:55:58.683398000,10.20439794921875,-0.7671937942504883,-0.6596387028694153,-0.3256800174713135
2024-12-07 19:55:58.693411600,10.21441162109375,-0.7700647711753845,-0.3462554514408111,-0.4912601709365845
2024-12-07 19:55:58.703424800,10.2244248046875,-0.828625500202179,-0.1033330857753753,-0.6508991122245789
2024-12-07 19:55:58.713438700,10.234438720703125,-0.8640949130058289,-0.0245894826948642,-0.7326061129570007
2024-12-07 19:55:58.723451600,10.24445166015625,-0.841219425201416,-0.0143813220784068,-0.7437575459480286
2024-12-07 19:55:58.733464800,10.25446484375,-0.768365204334259,0.0024979235604405,-0.7187137603759766
2024-12-07 19:55:58.743478800,10.264478759765623,-0.6748291254043579,0.0709853693842887,-0.6805142164230347
2024-12-07 19:55:58.753491700,10.27449169921875,-0.5949652194976807,0.1553484946489334,-0.634929358959198
2024-12-07 19:55:58.763505700,10.284505615234377,-0.5485721826553345,0.1336858123540878,-0.6150352954864502
2024-12-07 19:55:58.773518800,10.294518798828124,-0.550552248954773,-0.0488471277058124,-0.6087197661399841
2024-12-07 19:55:58.783532500,10.304532470703125,-0.5728636384010315,-0.2487032413482666,-0.5718219876289368
2024-12-07 19:55:58.793545700,10.314545654296875,-0.5692017674446106,-0.3680883944034576,-0.5095940828323364
2024-12-07 19:55:58.803559700,10.3245595703125,-0.5028365850448608,-0.4210330843925476,-0.485261857509613
2024-12-07 19:55:58.813572600,10.334572509765623,-0.41253861784935,-0.4015818536281585,-0.5030435919761658
2024-12-07 19:55:58.823585800,10.344585693359376,-0.3511189222335815,-0.2717354595661163,-0.5097411870956421
2024-12-07 19:55:58.833599700,10.354599853515625,-0.3330107033252716,-0.0999409481883049,-0.4750068187713623
2024-12-07 19:55:58.843612700,10.36461279296875,-0.3451459407806396,0.0287440624088048,-0.3889630138874054
2024-12-07 19:55:58.853626600,10.374626708984374,-0.3602239787578583,0.0541829615831375,-0.2851585149765014
2024-12-07 19:55:58.863639600,10.3846396484375,-0.3621712625026703,0.0078753847628831,-0.211574837565422
2024-12-07 19:55:58.873653800,10.39465380859375,-0.3605627119541168,-0.0277638360857963,-0.1886815130710601
2024-12-07 19:55:58.883666700,10.404666748046877,-0.3621323704719543,0.0073163332417607,-0.2098284512758255
2024-12-07 19:55:58.893681000,10.414680908203126,-0.3660502433776855,0.1202964484691619,-0.271572858095169
2024-12-07 19:55:58.903693600,10.424693603515625,-0.3928355276584625,0.2575166225433349,-0.3349851369857788
2024-12-07 19:55:58.913706800,10.434706787109375,-0.4599931240081787,0.3450585901737213,-0.3648722171783447
2024-12-07 19:55:58.923720700,10.444720703125,-0.5368610620498657,0.3292772471904754,-0.3504685163497925
2024-12-07 19:55:58.933733600,10.454733642578123,-0.5892943739891052,0.222644031047821,-0.3019199967384338
2024-12-07 19:55:58.943747800,10.464747802734376,-0.5977326035499573,0.0649052634835243,-0.2527966797351837
2024-12-07 19:55:58.953760500,10.474760498046876,-0.5632619261741638,-0.0756753236055374,-0.234384000301361
2024-12-07 19:55:58.963774700,10.484774658203126,-0.5054001808166504,-0.1342105269432068,-0.2709627747535705
2024-12-07 19:55:58.973788000,10.494787841796876,-0.4427228569984436,-0.1035003960132598,-0.3723649084568023
2024-12-07 19:55:58.983801600,10.504801513671875,-0.3675005435943603,-0.0101020066067576,-0.5058209896087646
2024-12-07 19:55:58.993814800,10.514814697265624,-0.2814743816852569,0.091121532022953,-0.6260733008384705
2024-12-07 19:55:59.003827700,10.52482763671875,-0.2051316648721695,0.1936673521995544,-0.6911870837211609
2024-12-07 19:55:59.013841700,10.534841552734376,-0.1483716517686844,0.3315951228141784,-0.688373863697052
2024-12-07 19:55:59.023854800,10.544854736328125,-0.1105403751134872,0.4419701099395752,-0.5869388580322266
2024-12-07 19:55:59.033868800,10.554868896484376,-0.095265619456768,0.4377042651176452,-0.3961580693721771
2024-12-07 19:55:59.043881700,10.5648818359375,-0.0852209776639938,0.3360916078090668,-0.2108462750911712
2024-12-07 19:55:59.053895700,10.574895751953123,-0.1003422513604164,0.2397981137037277,-0.1143005266785621
2024-12-07 19:55:59.063908600,10.58490869140625,-0.1345391124486923,0.1856137067079544,-0.1101923361420631
2024-12-07 19:55:59.073922600,10.594922607421877,-0.1619650274515152,0.2386918067932129,-0.1940114945173263
2024-12-07 19:55:59.083935700,10.604935791015626,-0.1577726900577545,0.4354711771011352,-0.3025906980037689
2024-12-07 19:55:59.093948700,10.61494873046875,-0.1585531830787658,0.6660663485527039,-0.3637507855892181
2024-12-07 19:55:59.103962600,10.624962646484375,-0.1439699828624725,0.8679824471473694,-0.3486014008522033
2024-12-07 19:55:59.113975800,10.634975830078124,-0.1277649253606796,0.9785068035125732,-0.268003761768341
2024-12-07 19:55:59.123989500,10.644989501953123,-0.1519427001476287,0.9256454706192015,-0.1633452773094177
2024-12-07 19:55:59.134002700,10.655002685546876,-0.1701991260051727,0.8682399988174438,-0.1091213673353195
2024-12-07 19:55:59.144016600,10.6650166015625,-0.1511764228343963,0.8942963480949402,-0.1499822437763214
2024-12-07 19:55:59.154029600,10.675029541015626,-0.1359304785728454,0.9227803349494934,-0.2400211840867996
2024-12-07 19:55:59.164043800,10.685043701171876,-0.1080788746476173,0.8867203593254089,-0.3036366403102875
2024-12-07 19:55:59.174056700,10.695056640625,-0.0962829366326332,0.7656495571136475,-0.2949801683425903
2024-12-07 19:55:59.184070700,10.705070556640624,-0.0778868868947029,0.6721188426017761,-0.2511413395404815
2024-12-07 19:55:59.194083600,10.71508349609375,-0.0381047055125236,0.7371538877487183,-0.2152595072984695
2024-12-07 19:55:59.204096800,10.7250966796875,-0.0445365086197853,0.8756803274154663,-0.2110136300325393
2024-12-07 19:55:59.214110700,10.73511083984375,-0.1043988987803459,0.9406660795211792,-0.2737706005573272
2024-12-07 19:55:59.224123600,10.74512353515625,-0.180630549788475,0.9149305820465088,-0.3838891088962555
2024-12-07 19:55:59.234137900,10.755137939453125,-0.2307156175374984,0.8239039182662964,-0.4643125236034393
2024-12-07 19:55:59.244150500,10.765150634765623,-0.2585568130016327,0.703863263130188,-0.478305846452713
2024-12-07 19:55:59.254164700,10.775164794921874,-0.2786213457584381,0.6351329684257507,-0.4380211234092712
2024-12-07 19:55:59.264178000,10.785177978515623,-0.2870009839534759,0.6447999477386475,-0.3772938549518585
2024-12-07 19:55:59.274191600,10.795191650390626,-0.2697137892246246,0.7192236185073853,-0.3058669865131378
2024-12-07 19:55:59.284204800,10.805204833984376,-0.2466510832309723,0.7802265286445618,-0.2038703262805938
2024-12-07 19:55:59.294217500,10.815217529296875,-0.2466588318347931,0.8059649467468262,-0.1148645728826522
2024-12-07 19:55:59.304231700,10.825231689453124,-0.2876794934272766,0.8273642659187317,-0.0738287270069122
2024-12-07 19:55:59.314244900,10.835244873046875,-0.353096067905426,0.8502400517463684,-0.0770255848765373
2024-12-07 19:55:59.324258800,10.8452587890625,-0.4411457479000091,0.8439853191375732,-0.125006154179573
2024-12-07 19:55:59.334271700,10.855271728515625,-0.5348110198974609,0.7892960906028748,-0.1756307333707809
2024-12-07 19:55:59.344285700,10.86528564453125,-0.611401379108429,0.7448961138725281,-0.1963168382644653
2024-12-07 19:55:59.354298600,10.875298583984376,-0.6826680898666382,0.7143154740333557,-0.1843167543411255
2024-12-07 19:55:59.364312600,10.8853125,-0.7300838232040405,0.6559262275695801,-0.1611951887607574
2024-12-07 19:55:59.374325800,10.89532568359375,-0.748437762260437,0.5401566624641418,-0.1357515901327133
2024-12-07 19:55:59.384339700,10.905339599609375,-0.7191306948661804,0.3668453395366668,-0.1147219464182853
2024-12-07 19:55:59.394352600,10.9153525390625,-0.6330614686012268,0.146796777844429,-0.105790689587593
2024-12-07 19:55:59.404365800,10.92536572265625,-0.4765296280384063,-0.1450979262590408,-0.1235435977578163
2024-12-07 19:55:59.414379500,10.935379638671876,-0.2606744468212127,-0.3410586714744568,-0.1895717680454254
2024-12-07 19:55:59.424392700,10.945392822265624,-0.0453664027154445,-0.3257755935192108,-0.2588872015476227
2024-12-07 19:55:59.434406700,10.95540673828125,0.1231022700667381,-0.1111044436693191,-0.2159723043441772
2024-12-07 19:55:59.444419600,10.965419677734374,0.2226083576679229,0.1375373303890228,0.0097542870789766
2024-12-07 19:55:59.454433800,10.975433837890623,0.2629897892475128,0.2856156527996063,0.3422144651412964
2024-12-07 19:55:59.464446700,10.98544677734375,0.2694567441940307,0.4055370092391968,0.6708964705467224
2024-12-07 19:55:59.474460700,10.995460693359377,0.2667073011398315,0.4672981202602386,0.928400993347168
2024-12-07 19:55:59.484473600,11.0054736328125,0.28083536028862,0.446052998304367,1.13322651386261
2024-12-07 19:55:59.494486800,11.01548681640625,0.3670698404312134,0.3940263390541076,1.2888460159301758
2024-12-07 19:55:59.504500700,11.025500732421875,0.4945500493049621,0.3429170846939087,1.4105188846588137
2024-12-07 19:55:59.514514700,11.0355146484375,0.6361724734306335,0.3452809751033783,1.5252305269241333
2024-12-07 19:55:59.524528400,11.0455283203125,0.7560102343559265,0.4212250113487243,1.6445449590682983
2024-12-07 19:55:59.534541600,11.05554150390625,0.8594833016395569,0.5297659635543823,1.761332392692566
2024-12-07 19:55:59.544555800,11.0655556640625,0.9421334266662598,0.5269944071769714,1.8291054964065552
2024-12-07 19:55:59.554568400,11.075568359375,0.9972485899925232,0.3914103209972381,1.816797018051148
2024-12-07 19:55:59.564582700,11.085582763671876,1.0372793674468994,0.2294563055038452,1.718716025352478
2024-12-07 19:55:59.574595600,11.095595703125,1.054588794708252,0.1702820509672165,1.5751535892486572
2024-12-07 19:55:59.584609500,11.105609619140624,1.0368268489837646,0.2718068063259125,1.4304646253585815
2024-12-07 19:55:59.594622700,11.115622802734377,0.9673492312431335,0.4057618975639343,1.2874537706375122
2024-12-07 19:55:59.604635400,11.125635498046876,0.870843231678009,0.4095880687236786,1.1330894231796265
2024-12-07 19:55:59.614649600,11.135649658203125,0.7962185740470886,0.2736141979694366,0.9662269353866576
2024-12-07 19:55:59.624662500,11.14566259765625,0.7635416388511658,0.098035991191864,0.7986355423927307
2024-12-07 19:55:59.634676500,11.155676513671876,0.7759698033332825,-0.0075833844020962,0.6671989560127258
2024-12-07 19:55:59.644689700,11.165689697265623,0.8212442994117737,0.0096693728119134,0.5808547735214233
2024-12-07 19:55:59.654703600,11.17570361328125,0.8442913293838501,0.0630591586232185,0.5059278011322021
2024-12-07 19:55:59.664716500,11.185716552734377,0.839139997959137,0.082867220044136,0.4297416806221008
2024-12-07 19:55:59.674730500,11.19573046875,0.8054294586181641,0.0854332521557807,0.3522504270076751
2024-12-07 19:55:59.684743700,11.20574365234375,0.7737151980400085,0.0993717014789581,0.2830684185028076
2024-12-07 19:55:59.694756600,11.215756591796875,0.7669082880020142,0.125054731965065,0.2263877987861633
2024-12-07 19:55:59.704770600,11.2257705078125,0.7917672991752625,0.1191542297601699,0.1823582649230957
2024-12-07 19:55:59.714783700,11.23578369140625,0.8368228077888489,0.0268317535519599,0.1404048949480056
2024-12-07 19:55:59.724797400,11.24579736328125,0.9045912027359008,-0.1685180366039276,0.09055957198143
2024-12-07 19:55:59.734810600,11.255810546875,0.999465823173523,-0.4542229175567627,0.0314644575119018
2024-12-07 19:55:59.744824600,11.265824462890626,1.1190186738967896,-0.6379969716072083,-0.0212645325809717
2024-12-07 19:55:59.754837500,11.27583740234375,1.2728694677352903,-0.6737777590751648,-0.0595539584755897
2024-12-07 19:55:59.764851500,11.2858515625,1.4471288919448853,-0.5990313291549683,-0.0789678692817688
2024-12-07 19:55:59.774864600,11.29586474609375,1.587382674217224,-0.4766269624233246,-0.0787751451134681
2024-12-07 19:55:59.784878600,11.305878662109375,1.7131685018539429,-0.3362288475036621,-0.0704855248332023
2024-12-07 19:55:59.794891500,11.3158916015625,1.730077862739563,-0.3018977046012878,-0.0419508107006549
2024-12-07 19:55:59.804904400,11.325904541015625,1.6240545511245728,-0.472316563129425,0.0079190107062459
2024-12-07 19:55:59.814918400,11.33591845703125,1.4575685262680054,-0.8586640954017639,0.0651818886399269
2024-12-07 19:55:59.824931600,11.345931640625,1.301374912261963,-1.2801607847213743,0.0858994200825691
2024-12-07 19:55:59.834945800,11.35594580078125,1.1416525840759275,-1.634782314300537,0.0867730900645256
2024-12-07 19:55:59.844958500,11.36595849609375,0.953466773033142,-1.8494490385055544,0.0836872830986976
2024-12-07 19:55:59.854972700,11.37597265625,0.7686017751693726,-1.950894951820373,0.0620377212762832
2024-12-07 19:55:59.864985300,11.3859853515625,0.6144819855690002,-1.994006514549256,-0.0098311407491564
2024-12-07 19:55:59.874999600,11.39599951171875,0.4951147139072418,-1.95398473739624,-0.1557455956935882
2024-12-07 19:55:59.885012700,11.4060126953125,0.3837873935699463,-1.7827613353729248,-0.3269391655921936
2024-12-07 19:55:59.895026700,11.416026611328125,0.2904831171035766,-1.548541784286499,-0.3869817852973938
2024-12-07 19:55:59.905039600,11.42603955078125,0.2158818393945694,-1.3303390741348269,-0.3895969986915588
