time,seconds_elapsed,z,y,x
2024-12-07 20:24:06.893129500,0.01812939453125,-0.0187545884400606,-0.0072269015945494,0.0095007335767149
2024-12-07 20:24:06.903143700,0.028143798828125,-0.019326101988554,-0.0270525384694337,0.0004012449644505
2024-12-07 20:24:06.913157400,0.038157470703125,-0.0173847936093807,-0.0331822112202644,-0.0135361663997173
2024-12-07 20:24:06.923170600,0.048170654296875,-0.022819772362709,-0.0340772978961467,-0.0243083853274583
2024-12-07 20:24:06.933184500,0.0581845703125,-0.0231959875673055,-0.0293299071490764,-0.0331561304628849
2024-12-07 20:24:06.943198500,0.068198486328125,-0.0205445438623428,-0.0287181790918111,-0.0391181521117687
2024-12-07 20:24:06.953212400,0.07821240234375,-0.0189575236290693,-0.0279792211949825,-0.0470934398472309
2024-12-07 20:24:06.963225600,0.0882255859375,-0.0179223529994487,-0.0169774368405342,-0.0518282726407051
2024-12-07 20:24:06.973239300,0.0982392578125,-0.0162265859544277,-0.0110454829409718,-0.0536782592535018
2024-12-07 20:24:06.983253500,0.10825341796875,-0.0192841608077287,-0.0208754763007164,-0.051465705037117
2024-12-07 20:24:06.993266700,0.1182666015625,-0.0272978823632001,-0.0282269790768623,-0.0571389459073543
2024-12-07 20:24:07.003280600,0.12828076171875,-0.0433018803596496,-0.0308619104325771,-0.0809798315167427
2024-12-07 20:24:07.013294300,0.13829443359375,-0.063099592924118,-0.049844853579998,-0.1102917268872261
2024-12-07 20:24:07.023308500,0.14830859375,-0.0814511775970459,-0.0974017232656478,-0.1166588142514228
2024-12-07 20:24:07.033321700,0.15832177734375,-0.0869651138782501,-0.1071048155426979,-0.1186186596751213
2024-12-07 20:24:07.043335400,0.16833544921875,-0.086362175643444,-0.1004258766770362,-0.1298305690288543
2024-12-07 20:24:07.053349400,0.178349365234375,-0.0706377103924751,-0.0741081610321998,-0.1628111153841018
2024-12-07 20:24:07.063363600,0.188363525390625,-0.0423157960176467,-0.0491812340915203,-0.2098649144172668
2024-12-07 20:24:07.073376500,0.19837646484375,-0.0276215393096208,-0.0337974280118942,-0.2603654265403747
2024-12-07 20:24:07.083390500,0.208390380859375,-0.0299949459731578,-0.0537399761378765,-0.2932557165622711
2024-12-07 20:24:07.093404400,0.218404296875,-0.0556760765612125,-0.0916294753551483,-0.3127134442329407
2024-12-07 20:24:07.103418600,0.228418701171875,-0.1696905344724655,-0.1221021637320518,-0.3765374422073364
2024-12-07 20:24:07.113431600,0.238431640625,-0.2689547538757324,-0.15557362139225,-0.5525395274162292
2024-12-07 20:24:07.123445500,0.248445556640625,-0.253033846616745,-0.290569007396698,-0.6409742832183838
2024-12-07 20:24:07.133459500,0.25845947265625,-0.2819976210594177,-0.3818235397338867,-0.628024160861969
2024-12-07 20:24:07.143472400,0.268472412109375,-0.311223953962326,-0.4028481245040893,-0.5808910131454468
2024-12-07 20:24:07.153486600,0.278486572265625,-0.331124871969223,-0.3990520536899566,-0.567008912563324
2024-12-07 20:24:07.163500500,0.28850048828125,-0.357646495103836,-0.3923808336257934,-0.5828478336334229
2024-12-07 20:24:07.173514500,0.298514404296875,-0.447584867477417,-0.4567386507987976,-0.6128409504890442
2024-12-07 20:24:07.183527400,0.30852734375,-0.5557228326797485,-0.562150239944458,-0.6447637677192688
2024-12-07 20:24:07.193541600,0.318541748046875,-0.6300811767578125,-0.7145325541496277,-0.6902055740356445
2024-12-07 20:24:07.203555600,0.3285556640625,-0.6389124989509583,-0.8121033310890198,-0.7681195139884949
2024-12-07 20:24:07.213569500,0.338569580078125,-0.5599260330200195,-0.8190147280693054,-0.8640310764312744
2024-12-07 20:24:07.223582500,0.34858251953125,-0.4292053282260895,-0.6942357420921326,-0.896266758441925
2024-12-07 20:24:07.233596700,0.3585966796875,-0.1041739732027053,-0.3865104019641876,-0.7303041219711304
2024-12-07 20:24:07.243610600,0.368610595703125,0.0724894776940345,-0.17863629758358,-0.4460468590259552
2024-12-07 20:24:07.253624300,0.378624267578125,0.0678552240133285,-0.1885396093130111,-0.233323648571968
2024-12-07 20:24:07.263637500,0.388637451171875,0.0600218027830123,-0.192995086312294,-0.0278261490166187
2024-12-07 20:24:07.273651700,0.398651611328125,-0.0557273849844932,0.0148527501150965,0.2124700248241424
2024-12-07 20:24:07.283665400,0.40866552734375,-0.2997051775455475,0.1869129240512848,0.3430352210998535
2024-12-07 20:24:07.293679400,0.418679443359375,-0.5608419179916382,0.2070786952972412,0.2755880057811737
2024-12-07 20:24:07.303692500,0.428692626953125,-0.7459981441497803,0.1956942081451416,0.0545576140284538
2024-12-07 20:24:07.313706800,0.438706787109375,-0.7851474285125732,0.2293523401021957,-0.2850026190280914
2024-12-07 20:24:07.323720400,0.448720458984375,-0.8015139102935791,0.2468413263559341,-0.751599133014679
2024-12-07 20:24:07.333733600,0.458733642578125,-0.9824903607368468,0.0275041367858648,-1.3587654829025269
2024-12-07 20:24:07.343747600,0.46874755859375,-1.3084481954574585,-0.3861231207847595,-1.931293487548828
2024-12-07 20:24:07.353761500,0.478761474609375,-1.679464340209961,-0.7517633438110352,-2.3336308002471924
2024-12-07 20:24:07.363775500,0.488775390625,-2.048832416534424,-0.8259832262992859,-2.397010564804077
2024-12-07 20:24:07.373788700,0.49878857421875,-2.285916328430176,-0.5743800401687622,-2.129990577697754
2024-12-07 20:24:07.383802400,0.50880224609375,-2.481927394866944,-0.1833744347095489,-1.566287875175476
2024-12-07 20:24:07.393816600,0.518816650390625,-2.637690782546997,0.1856206357479095,-0.880480170249939
2024-12-07 20:24:07.403830500,0.52883056640625,-2.7110557556152344,0.3211185336112976,-0.2858285307884216
2024-12-07 20:24:07.413843700,0.53884375,-2.6344361305236816,0.2249766290187835,0.1602739691734314
2024-12-07 20:24:07.423857400,0.548857421875,-2.4534826278686523,0.0604255050420761,0.4003206789493561
2024-12-07 20:24:07.433871600,0.55887158203125,-2.14859938621521,-0.0259114727377891,0.4103597700595855
2024-12-07 20:24:07.443884500,0.568884521484375,-1.7292555570602417,0.0040498888120055,0.236376017332077
2024-12-07 20:24:07.453898500,0.5788984375,-1.3018516302108765,0.0181569904088974,0.0699911266565322
2024-12-07 20:24:07.463912400,0.588912353515625,-1.1805758476257324,-0.0102259162813425,-0.111452966928482
2024-12-07 20:24:07.473926700,0.5989267578125,-2.105393648147583,-0.1808554828166961,-0.5215742588043213
2024-12-07 20:24:07.483939600,0.608939697265625,-2.552770614624023,-0.5170150995254517,-0.9467681646347046
2024-12-07 20:24:07.493953500,0.61895361328125,-2.276353120803833,-0.8108423948287964,-1.2000073194503784
2024-12-07 20:24:07.503967500,0.628967529296875,-1.977867603302002,-0.9619712233543396,-1.2397180795669556
2024-12-07 20:24:07.513981700,0.638981689453125,-1.7313965559005735,-0.9828234314918518,-1.061884880065918
2024-12-07 20:24:07.523994400,0.648994384765625,-1.527499079704285,-0.939910054206848,-0.817984938621521
2024-12-07 20:24:07.534008600,0.659008544921875,-1.474754810333252,-0.7950663566589355,-0.592384397983551
2024-12-07 20:24:07.544022500,0.6690224609375,-1.5088800191879272,-0.5726423263549805,-0.3832274675369262
2024-12-07 20:24:07.554036700,0.67903662109375,-1.5130181312561035,-0.3662566244602203,-0.2327256202697754
2024-12-07 20:24:07.564049400,0.68904931640625,-1.482860445976257,-0.3756873905658722,-0.1884894520044326
2024-12-07 20:24:07.574063600,0.699063720703125,-1.4744913578033447,-0.5521429181098938,-0.2054320871829986
2024-12-07 20:24:07.584077600,0.70907763671875,-1.5861268043518066,-0.6741346120834351,-0.1812388598918914
2024-12-07 20:24:07.594090500,0.719090576171875,-1.5667341947555542,-0.8772392868995667,-0.1942520588636398
2024-12-07 20:24:07.604104400,0.7291044921875,-1.6662969589233398,-0.9676450490951538,-0.2055752873420715
2024-12-07 20:24:07.614118700,0.73911865234375,-1.7262626886367798,-0.8238902688026428,-0.1313020139932632
2024-12-07 20:24:07.624132600,0.749132568359375,-1.6503362655639648,-0.6184673309326172,-0.0880173966288566
2024-12-07 20:24:07.634145500,0.7591455078125,-1.4856722354888916,-0.3860568404197693,-0.0619090721011161
2024-12-07 20:24:07.644158700,0.76915869140625,-1.2948732376098633,-0.3311634957790375,-0.0746158063411712
2024-12-07 20:24:07.654172700,0.779172607421875,-0.9856668710708618,-0.2290984392166137,-0.0788433849811554
2024-12-07 20:24:07.664186600,0.7891865234375,-0.8195303678512573,-0.0605544298887252,-0.0658487603068351
2024-12-07 20:24:07.674199600,0.799199462890625,-0.5232210755348206,-0.0378111638128757,-0.0362240746617317
2024-12-07 20:24:07.684213800,0.8092138671875,-0.2797700762748718,-0.0647136196494102,0.0016250337939709
2024-12-07 20:24:07.694227700,0.819227783203125,-0.1064838171005249,-0.0789035558700561,0.0562630780041217
2024-12-07 20:24:07.704240600,0.82924072265625,-0.0032016381155699,-0.0512152016162872,0.085678219795227
2024-12-07 20:24:07.714254600,0.839254638671875,0.072096437215805,0.058055642992258,0.1003981083631515
2024-12-07 20:24:07.724268800,0.849268798828125,0.1351385116577148,0.2015321105718612,0.0995893105864524
2024-12-07 20:24:07.734282500,0.859282470703125,0.2002204954624176,0.2559837400913238,0.0886941030621528
2024-12-07 20:24:07.744295700,0.869295654296875,0.2801297008991241,0.22624371945858,0.0775879248976707
2024-12-07 20:24:07.754309600,0.8793095703125,0.4120650887489319,0.1687413603067398,0.0981239676475524
2024-12-07 20:24:07.764323600,0.889323486328125,0.6002973318099976,0.0936026722192764,0.1808476150035858
2024-12-07 20:24:07.774337500,0.899337646484375,0.7700552940368652,-0.0215711649507284,0.3359815180301666
2024-12-07 20:24:07.784350700,0.909350830078125,0.9173872470855712,-0.1032417938113212,0.5163300037384033
2024-12-07 20:24:07.794364700,0.91936474609375,1.0681018829345703,-0.1234868094325065,0.6765967607498169
2024-12-07 20:24:07.804378600,0.929378662109375,1.174754023551941,-0.0111690536141395,0.7823833227157593
2024-12-07 20:24:07.814392600,0.939392578125,1.269325852394104,0.2140934914350509,0.8029054403305054
2024-12-07 20:24:07.824405800,0.94940576171875,1.303465485572815,0.4970884323120117,0.7686276435852051
2024-12-07 20:24:07.834419700,0.959419677734375,1.2512379884719849,0.8351327180862427,0.4074583053588867
2024-12-07 20:24:07.844433700,0.96943359375,1.1119245290756226,0.9981592297554016,-0.2164255380630493
2024-12-07 20:24:07.854446600,0.979446533203125,0.9110214114189148,0.8005987405776978,-0.5229739546775818
2024-12-07 20:24:07.864460800,0.989460693359375,0.6615657806396484,0.4897588789463043,-0.496777206659317
2024-12-07 20:24:07.874474500,0.999474609375,0.4053457975387573,0.1878816038370132,-0.2762227058410644
2024-12-07 20:24:07.884488700,1.00948876953125,0.1752518564462661,-0.0734599903225898,-0.0128712328150868
2024-12-07 20:24:07.894501600,1.019501708984375,0.0102768847718834,-0.2790194451808929,0.1661361306905746
2024-12-07 20:24:07.904515600,1.029515625,-0.0674261599779129,-0.375882625579834,0.1958053410053253
2024-12-07 20:24:07.914529500,1.039529541015625,-0.075415126979351,-0.3801366984844208,0.1147692650556564
2024-12-07 20:24:07.924543700,1.049543701171875,-0.0580877996981143,-0.3441930711269378,-0.0055536851286888
2024-12-07 20:24:07.934556700,1.059556640625,-0.0381064489483833,-0.2622302174568176,-0.1036297753453254
2024-12-07 20:24:07.944570600,1.069570556640625,-0.0837849900126457,-0.2294845283031463,-0.1565947234630584
2024-12-07 20:24:07.954584600,1.07958447265625,-0.1860073655843734,-0.313848465681076,-0.1614875495433807
2024-12-07 20:24:07.964597800,1.08959765625,-0.1789113730192184,-0.3903421759605407,-0.1513811200857162
2024-12-07 20:24:07.974611500,1.099611572265625,-0.1068191081285476,-0.3843325078487396,-0.1491371691226959
2024-12-07 20:24:07.984625700,1.109625732421875,-0.0618383213877677,-0.3134985566139221,-0.1398195773363113
2024-12-07 20:24:07.994639600,1.1196396484375,-0.0608608536422252,-0.2166846841573715,-0.1066988334059715
2024-12-07 20:24:08.004652500,1.129652587890625,-0.0674971863627433,-0.1302304863929748,-0.0537567846477031
2024-12-07 20:24:08.014666500,1.13966650390625,-0.0704430788755416,-0.0471558421850204,-0.0047078980132937
2024-12-07 20:24:08.024680700,1.1496806640625,-0.0802091583609581,0.0437865778803825,0.0382238551974296
2024-12-07 20:24:08.034694700,1.159694580078125,-0.1095666512846946,0.1249731332063674,0.0742250680923461
2024-12-07 20:24:08.044707600,1.16970751953125,-0.1332453489303589,0.1891129612922668,0.0981730073690414
2024-12-07 20:24:08.054721500,1.179721435546875,-0.1527231782674789,0.2189046740531921,0.1025935932993888
2024-12-07 20:24:08.064735700,1.18973583984375,-0.1677165180444717,0.1871012151241302,0.0824537053704261
2024-12-07 20:24:08.074748400,1.19974853515625,-0.1731380820274353,0.1156920939683914,0.0517373196780681
2024-12-07 20:24:08.084762600,1.2097626953125,-0.1779397577047348,0.046406764537096,0.0272181294858455
2024-12-07 20:24:08.094776600,1.219776611328125,-0.1799084991216659,-0.0213691145181655,0.0087220985442399
2024-12-07 20:24:08.104790800,1.229790771484375,-0.1849503964185714,-0.0581934414803981,-0.0012857946567237
2024-12-07 20:24:08.114803500,1.239803466796875,-0.1855712234973907,-0.0579564049839973,-0.008610856719315
2024-12-07 20:24:08.124817700,1.249817626953125,-0.176208883523941,-0.0508154034614563,-0.0155193619430065
2024-12-07 20:24:08.134831600,1.25983154296875,-0.1617962270975113,-0.0687334612011909,-0.0243352968245744
2024-12-07 20:24:08.144845800,1.269845703125,-0.1519374698400497,-0.1059599220752716,-0.0341128259897232
2024-12-07 20:24:08.154858500,1.2798583984375,-0.1502299606800079,-0.1466931700706482,-0.0474831610918045
2024-12-07 20:24:08.164872700,1.289872802734375,-0.1542990058660507,-0.1863225996494293,-0.063474640250206
2024-12-07 20:24:08.174886700,1.29988671875,-0.1591793447732925,-0.224438801407814,-0.0816231444478035
2024-12-07 20:24:08.184899600,1.309899658203125,-0.1702815294265747,-0.2540608942508697,-0.0864788815379142
2024-12-07 20:24:08.194913500,1.31991357421875,-0.180227592587471,-0.2647553384304046,-0.0725012049078941
2024-12-07 20:24:08.204927700,1.329927734375,-0.18218794465065,-0.2497574687004089,-0.050241433084011
2024-12-07 20:24:08.214941400,1.33994140625,-0.1815529614686966,-0.2259197533130645,-0.0314930155873298
2024-12-07 20:24:08.224954600,1.34995458984375,-0.1861735433340072,-0.2036621272563934,-0.0021340637467801
2024-12-07 20:24:08.234968600,1.359968505859375,-0.1947293877601623,-0.1819333434104919,0.0414505042135715
2024-12-07 20:24:08.244982800,1.369982666015625,-0.2004882097244262,-0.1489426493644714,0.0837348476052284
2024-12-07 20:24:08.254996500,1.37999658203125,-0.2010015398263931,-0.1101499497890472,0.0992689058184623
2024-12-07 20:24:08.265009700,1.390009765625,-0.2024233937263488,-0.0832943618297576,0.093576930463314
2024-12-07 20:24:08.275023600,1.400023681640625,-0.2102626413106918,-0.0816741660237312,0.090241402387619
2024-12-07 20:24:08.285037600,1.41003759765625,-0.2151727080345153,-0.0993351861834526,0.0941048488020896
2024-12-07 20:24:08.295051500,1.420051513671875,-0.212386205792427,-0.1144656240940094,0.1059295460581779
2024-12-07 20:24:08.305064700,1.430064697265625,-0.1958735436201095,-0.1180134862661361,0.1201899722218513
2024-12-07 20:24:08.315078400,1.440078369140625,-0.1620446890592575,-0.1209772229194641,0.1358213424682617
2024-12-07 20:24:08.325092600,1.450092529296875,-0.1266888380050659,-0.0828341022133827,0.1460500210523605
2024-12-07 20:24:08.335105500,1.46010546875,-0.0774949118494987,-0.0011918568052351,0.1551640629768371
2024-12-07 20:24:08.345119700,1.47011962890625,-0.0062457667663693,0.1078539341688156,0.1792957633733749
2024-12-07 20:24:08.355133400,1.480133544921875,0.0800342187285423,0.2369477897882461,0.2195991277694702
2024-12-07 20:24:08.365147600,1.490147705078125,0.174415037035942,0.4092396795749664,0.2533155381679535
2024-12-07 20:24:08.375160600,1.50016064453125,0.2660152912139892,0.6379185914993286,0.2696900367736816
2024-12-07 20:24:08.385174500,1.510174560546875,0.3459367454051971,0.8528333306312561,0.2585470974445343
2024-12-07 20:24:08.395188500,1.5201884765625,0.4142518639564514,0.9926102161407472,0.2359415739774704
2024-12-07 20:24:08.405201700,1.53020166015625,0.4624063670635223,1.0351719856262207,0.2359080165624618
2024-12-07 20:24:08.415215600,1.540215576171875,0.526894211769104,1.0286048650741575,0.2965519428253174
2024-12-07 20:24:08.425229600,1.5502294921875,0.6107826828956604,1.0374397039413452,0.4295888245105743
2024-12-07 20:24:08.435243500,1.560243408203125,0.7275907397270203,0.9896944165229796,0.551128089427948
2024-12-07 20:24:08.445256700,1.570256591796875,0.8963302373886108,0.8727765679359436,0.6545144319534302
2024-12-07 20:24:08.455270700,1.580270751953125,1.011871337890625,0.7285177111625671,0.7597255110740662
2024-12-07 20:24:08.465284600,1.59028466796875,0.948137104511261,0.408121109008789,0.7632984519004822
2024-12-07 20:24:08.475298600,1.600298583984375,0.7495827674865723,-0.0633294880390167,0.6935843229293823
2024-12-07 20:24:08.485311500,1.6103115234375,0.5262926816940308,-0.506332516670227,0.6410247087478638
2024-12-07 20:24:08.495325400,1.620325439453125,0.3418798148632049,-0.765698254108429,0.5928279757499695
2024-12-07 20:24:08.505339600,1.630339599609375,0.1928700804710388,-0.8271957039833069,0.4915905892848968
2024-12-07 20:24:08.515352800,1.640352783203125,0.0736495032906532,-0.6845914125442505,0.3512708246707916
2024-12-07 20:24:08.525366500,1.650366455078125,-0.0224972646683454,-0.4547533988952636,0.1576217263936996
2024-12-07 20:24:08.535380500,1.66038037109375,-0.0979629978537559,-0.2599166631698608,-0.0699191913008689
2024-12-07 20:24:08.545394700,1.670394775390625,-0.1288724392652511,-0.1130353435873985,-0.2087774723768234
2024-12-07 20:24:08.555407600,1.68040771484375,-0.1111280173063278,-0.0291189830750226,-0.241099551320076
2024-12-07 20:24:08.565421600,1.690421630859375,-0.0804697126150131,-0.0093066627159714,-0.2481492012739181
2024-12-07 20:24:08.575435500,1.700435546875,-0.0472673252224922,-0.0210065618157386,-0.2722752690315246
2024-12-07 20:24:08.585449700,1.71044970703125,-0.0058810045011341,-0.0449515730142593,-0.2999287247657776
2024-12-07 20:24:08.595462700,1.720462646484375,0.0476784519851207,-0.1068320572376251,-0.3055922985076904
2024-12-07 20:24:08.605476600,1.7304765625,0.0845400616526603,-0.2030131816864013,-0.2575552761554718
2024-12-07 20:24:08.615490600,1.740490478515625,0.0983544588088989,-0.320519745349884,-0.1755874902009964
2024-12-07 20:24:08.625503500,1.75050341796875,0.1011899262666702,-0.4300667643547058,-0.111829288303852
2024-12-07 20:24:08.635517700,1.760517578125,0.1003112122416496,-0.4549675285816192,-0.1277149468660354
2024-12-07 20:24:08.645532000,1.770531982421875,0.0986837521195411,-0.3556097745895386,-0.18755804002285
2024-12-07 20:24:08.655545900,1.7805458984375,0.0784606412053108,-0.2371297180652618,-0.1972270607948303
2024-12-07 20:24:08.665558800,1.790558837890625,0.1016927286982536,-0.1507570147514343,-0.1341713964939117
2024-12-07 20:24:08.675573000,1.800572998046875,0.1935948729515075,0.0300751533359289,-0.0035075526684522
2024-12-07 20:24:08.685587000,1.8105869140625,0.2784527540206909,0.3790440559387207,0.10616435110569
2024-12-07 20:24:08.695600600,1.8206005859375,0.2515583038330078,0.7275214195251465,0.0548933111131191
2024-12-07 20:24:08.705613800,1.83061376953125,0.0530622489750385,0.6993542313575745,-0.127925232052803
2024-12-07 20:24:08.715628000,1.8406279296875,-0.2581822574138641,0.3574161529541015,-0.286987692117691
2024-12-07 20:24:08.725642000,1.85064208984375,-0.5220757126808167,0.0311842765659093,-0.3043230175971985
2024-12-07 20:24:08.735655000,1.860655029296875,-0.618719756603241,-0.2244083881378173,-0.1136604771018028
2024-12-07 20:24:08.745668900,1.8706689453125,-0.5033646821975708,-0.3582663238048553,0.2607376277446747
2024-12-07 20:24:08.755683000,1.88068310546875,-0.2484395802021026,-0.291206955909729,0.5232450366020203
2024-12-07 20:24:08.765696800,1.89069677734375,0.0464037731289863,-0.017737852409482,0.4132749140262604
2024-12-07 20:24:08.775710000,1.9007099609375,0.2624403238296509,0.2824143171310425,0.0826861336827278
2024-12-07 20:24:08.785724000,1.910723876953125,0.3551710546016693,0.4842659533023834,-0.1008796989917755
2024-12-07 20:24:08.795737900,1.92073779296875,0.2501461505889892,0.511227011680603,-0.0030788029544055
2024-12-07 20:24:08.805751800,1.930751708984375,0.0173576474189758,0.3532629311084747,0.1269210129976272
2024-12-07 20:24:08.815765000,1.940764892578125,-0.2117657363414764,0.106046937406063,0.0759642422199249
2024-12-07 20:24:08.825779000,1.950779052734375,-0.3507049679756164,-0.064594842493534,-0.1008893623948097
2024-12-07 20:24:08.835793000,1.96079296875,-0.3958998322486877,-0.0931160151958465,-0.2259848266839981
2024-12-07 20:24:08.845805800,1.970805908203125,-0.4001614451408386,-0.0556852892041206,-0.2389245927333831
2024-12-07 20:24:08.855820000,1.980820068359375,-0.3971969783306122,-0.0914870873093605,-0.1931113600730896
2024-12-07 20:24:08.865833700,1.990833740234375,-0.3881478309631347,-0.1930547207593917,-0.1379527747631073
2024-12-07 20:24:08.875848000,2.000847900390625,-0.3733744621276855,-0.2868883311748504,-0.1075197234749794
2024-12-07 20:24:08.885860900,2.01086083984375,-0.3396585583686828,-0.2844800353050232,-0.1012386530637741
2024-12-07 20:24:08.895875000,2.020875,-0.2959968447685241,-0.1525012254714965,-0.1081785857677459
2024-12-07 20:24:08.905888800,2.030888671875,-0.2429946064949035,0.0299838911741971,-0.1181433349847793
2024-12-07 20:24:08.915903000,2.040903076171875,-0.187701940536499,0.1681902706623077,-0.1255015432834625
2024-12-07 20:24:08.925916000,2.050916015625,-0.1234403848648071,0.238196775317192,-0.1262024790048599
2024-12-07 20:24:08.935929900,2.060929931640625,-0.0454453267157077,0.2659681737422943,-0.1234598085284233
2024-12-07 20:24:08.945943800,2.07094384765625,0.0437527261674404,0.3018122017383575,-0.122978575527668
2024-12-07 20:24:08.955957000,2.08095703125,0.1245062574744224,0.343490332365036,-0.1265030950307846
2024-12-07 20:24:08.965970700,2.090970703125,0.1872031986713409,0.3642736375331878,-0.117972731590271
2024-12-07 20:24:08.975985000,2.10098486328125,0.2368801087141037,0.3793427348136902,-0.0782271176576614
2024-12-07 20:24:08.985998800,2.110998779296875,0.2982252240180969,0.4327953159809112,-0.0098462011665105
2024-12-07 20:24:08.996012000,2.121011962890625,0.4114265739917755,0.5527190566062927,0.0683045387268066
2024-12-07 20:24:09.006025700,2.131025634765625,0.624001145362854,0.7324962615966797,0.1498076468706131
2024-12-07 20:24:09.016040000,2.1410400390625,0.941714644432068,0.8749990463256836,0.2291644513607025
2024-12-07 20:24:09.026054000,2.151053955078125,1.3023830652236938,0.9371721148490906,0.2748400568962097
2024-12-07 20:24:09.036066800,2.16106689453125,1.6499544382095337,1.3903807401657104,0.4289728999137878
2024-12-07 20:24:09.046080800,2.171080810546875,1.8585728406906128,1.838027834892273,0.6636254191398621
2024-12-07 20:24:09.056095000,2.181094970703125,1.798505425453186,0.9795516133308412,0.5241128206253052
2024-12-07 20:24:09.066107600,2.191107666015625,1.5113849639892578,-0.5395940542221069,0.1889279186725616
2024-12-07 20:24:09.076121900,2.201121826171875,1.2361056804656982,-1.3535733222961426,0.0103214606642723
2024-12-07 20:24:09.086135800,2.2111357421875,1.088550090789795,-1.0243921279907229,0.1318787783384323
2024-12-07 20:24:09.096150000,2.22114990234375,0.928855836391449,-0.1788933128118515,0.3980415761470794
2024-12-07 20:24:09.106162700,2.23116259765625,0.6085729002952576,0.1412170529365539,0.3829172253608703
2024-12-07 20:24:09.116177000,2.241177001953125,0.2337979078292846,-0.1726232469081878,0.1320045590400695
2024-12-07 20:24:09.126190800,2.25119091796875,-0.0466007366776466,-0.446114182472229,-0.0721115544438362
2024-12-07 20:24:09.136205000,2.261205078125,-0.162164881825447,-0.3935607671737671,-0.1608624160289764
2024-12-07 20:24:09.146217700,2.2712177734375,-0.1181146055459976,-0.2239328175783157,-0.1452488303184509
2024-12-07 20:24:09.156232000,2.28123193359375,-0.0288829002529382,-0.1831986159086227,-0.09554223716259
2024-12-07 20:24:09.166246000,2.291245849609375,0.0426882207393646,-0.2886145412921905,-0.0643235966563224
2024-12-07 20:24:09.176258800,2.3012587890625,0.0927109941840171,-0.4548932015895843,-0.0301616005599498
2024-12-07 20:24:09.186272800,2.311272705078125,0.141782134771347,-0.6409360766410828,0.0508312545716762
2024-12-07 20:24:09.196287000,2.321286865234375,0.1968820095062255,-0.7424928545951843,0.1538639217615127
2024-12-07 20:24:09.206301000,2.331301025390625,0.2303166687488556,-0.6556788682937622,0.2098728567361831
2024-12-07 20:24:09.216313900,2.34131396484375,0.179277166724205,-0.4266853928565979,0.1869110018014907
2024-12-07 20:24:09.226327800,2.351327880859375,0.0202483758330345,-0.2634226679801941,0.1362270563840866
2024-12-07 20:24:09.236342000,2.361342041015625,-0.1768131554126739,-0.1848646700382232,0.1537520438432693
2024-12-07 20:24:09.246355700,2.371355712890625,-0.3098809421062469,-0.0731471851468086,0.1725563555955886
2024-12-07 20:24:09.256369000,2.381368896484375,-0.2974717020988464,0.1632182151079177,0.1267765760421753
2024-12-07 20:24:09.266382800,2.3913828125,-0.207799881696701,0.4657525420188904,0.0560009442269802
2024-12-07 20:24:09.276396800,2.401396728515625,-0.1185163408517837,0.6733995079994202,0.0130648855119943
2024-12-07 20:24:09.286409700,2.41140966796875,-0.0933028608560562,0.6822076439857483,0.0088056921958923
2024-12-07 20:24:09.296424000,2.421423828125,-0.0920286253094673,0.655710756778717,-0.022588524967432
2024-12-07 20:24:09.306438000,2.43143798828125,0.0543304495513439,0.6972839832305908,-0.2066526263952255
2024-12-07 20:24:09.316451800,2.441451904296875,0.3942604064941406,0.303048700094223,-0.5977996587753296
2024-12-07 20:24:09.326464800,2.45146484375,0.875419557094574,-0.6279042363166809,-0.8598858714103699
2024-12-07 20:24:09.336479000,2.46147900390625,1.346290111541748,-1.1350295543670654,-0.4673226475715637
2024-12-07 20:24:09.346492700,2.47149267578125,1.4799635410308838,-0.3880482614040375,0.931551158428192
2024-12-07 20:24:09.356507000,2.4815068359375,0.9419685006141664,0.0882182791829109,1.736292600631714
2024-12-07 20:24:09.366519800,2.491519775390625,0.2729744911193847,-0.4482078552246094,1.3164546489715576
2024-12-07 20:24:09.376533800,2.50153369140625,-0.2788351476192474,-1.026167392730713,0.3203870952129364
2024-12-07 20:24:09.386547700,2.511547607421875,-0.6573387980461121,-0.782443106174469,-0.5434635281562805
2024-12-07 20:24:09.396561000,2.521560791015625,-0.805965006351471,-0.2468307912349701,-0.9648979306221008
2024-12-07 20:24:09.406574800,2.531574951171875,-0.8019769191741943,0.061340358108282,-0.97123384475708
2024-12-07 20:24:09.416588800,2.5415888671875,-0.7003682255744934,0.0695586800575256,-0.6799991130828857
2024-12-07 20:24:09.426602800,2.551602783203125,-0.5555939674377441,-0.0904525592923164,-0.2576233446598053
2024-12-07 20:24:09.436616000,2.561615966796875,-0.4484410583972931,-0.2839106917381286,0.0634666457772255
2024-12-07 20:24:09.446630000,2.5716298828125,-0.4063466191291809,-0.340079665184021,0.1558453142642974
2024-12-07 20:24:09.456643800,2.581643798828125,-0.3988621830940246,-0.2454793900251388,0.0541957169771194
2024-12-07 20:24:09.466657000,2.591656982421875,-0.4140270352363586,-0.1341472715139389,-0.117460198700428
2024-12-07 20:24:09.476671000,2.6016708984375,-0.4292463362216949,-0.0683273747563362,-0.2435712367296219
2024-12-07 20:24:09.486684700,2.6116845703125,-0.449004590511322,-0.0168759003281593,-0.2665306329727173
2024-12-07 20:24:09.496699000,2.621698974609375,-0.4527668952941894,0.010139487683773,-0.2212246805429458
2024-12-07 20:24:09.506712000,2.631712158203125,-0.4251829385757446,0.0496136583387851,-0.1553005278110504
2024-12-07 20:24:09.516725800,2.641725830078125,-0.3738883435726166,0.0933242812752723,-0.0974946767091751
2024-12-07 20:24:09.526739700,2.65173974609375,-0.3258558213710785,0.1321760714054107,-0.064184121787548
2024-12-07 20:24:09.536754000,2.66175390625,-0.2934709191322326,0.1980106830596923,-0.0467908903956413
2024-12-07 20:24:09.546766800,2.671766845703125,-0.2645396590232849,0.3093257546424866,-0.0359017550945282
2024-12-07 20:24:09.556780800,2.68178076171875,-0.2223863154649734,0.4326083064079284,-0.0215382706373929
2024-12-07 20:24:09.566794800,2.691794677734375,-0.169290080666542,0.5352481603622437,0.0106095466762781
2024-12-07 20:24:09.576808000,2.701807861328125,-0.0944358631968498,0.594632625579834,0.0522258877754211
2024-12-07 20:24:09.586822000,2.71182177734375,-0.0213083885610103,0.6286957859992981,0.0838298872113227
2024-12-07 20:24:09.596835800,2.7218359375,0.0346323363482952,0.6362224817276001,0.0852836221456527
2024-12-07 20:24:09.606849800,2.731849853515625,0.0702670291066169,0.6034560203552246,0.0868410393595695
2024-12-07 20:24:09.616862700,2.74186279296875,0.1009792685508728,0.5542014241218567,0.105415366590023
2024-12-07 20:24:09.626877000,2.751876953125,0.1330538541078567,0.4626629948616028,0.1059285551309585
2024-12-07 20:24:09.636891000,2.761890869140625,0.1822762936353683,0.3948361277580261,0.0733731389045715
2024-12-07 20:24:09.646904800,2.77190478515625,0.2646004855632782,0.4610172808170318,0.0183303952217102
2024-12-07 20:24:09.656917800,2.781917724609375,0.3672142922878265,0.6330122947692871,-0.0009271637536585
2024-12-07 20:24:09.666932000,2.791931884765625,0.5222824215888977,0.8703979849815369,0.1081420704722404
2024-12-07 20:24:09.676945700,2.801945556640625,0.7048965692520142,1.0396835803985596,0.2981998026371002
2024-12-07 20:24:09.686959600,2.811959716796875,0.8303722143173218,0.8737100958824158,0.4500657618045807
2024-12-07 20:24:09.696972800,2.821972900390625,0.8821417689323425,0.3849059641361236,0.4904327690601349
2024-12-07 20:24:09.706986800,2.83198681640625,0.8559788465499878,-0.0563760846853256,0.4992291927337646
2024-12-07 20:24:09.717000700,2.842000732421875,0.7853674292564392,-0.2433692365884781,0.5248637795448303
2024-12-07 20:24:09.727014000,2.852013916015625,0.6741455793380737,-0.2416200786828994,0.5441210865974426
2024-12-07 20:24:09.737027800,2.86202783203125,0.5264015197753906,-0.0561423301696777,0.5513516068458557
2024-12-07 20:24:09.747041800,2.872041748046875,0.3574913144111633,0.252310574054718,0.5410789847373962
2024-12-07 20:24:09.757055700,2.8820556640625,0.2139868587255478,0.3520530462265014,0.4687787890434265
2024-12-07 20:24:09.767069000,2.89206884765625,0.1197061613202095,0.1377860158681869,0.3158893585205078
2024-12-07 20:24:09.777082600,2.90208251953125,0.0718974098563194,-0.1605724990367889,0.1609028428792953
2024-12-07 20:24:09.787096800,2.912096923828125,0.0549514517188072,-0.3732030093669891,0.0733641982078552
2024-12-07 20:24:09.797109800,2.92210986328125,0.0422305539250373,-0.4785515666007995,0.0454873032867908
2024-12-07 20:24:09.807123700,2.932123779296875,0.0245437007397413,-0.5077640414237976,0.0122846085578203
2024-12-07 20:24:09.817137700,2.9421376953125,0.0065200957469642,-0.4657845795154571,-0.0455139093101024
2024-12-07 20:24:09.827152000,2.95215185546875,0.0169402472674846,-0.4176639020442962,-0.123000182211399
2024-12-07 20:24:09.837164800,2.962164794921875,0.0435628928244113,-0.4134199619293213,-0.2084291577339172
2024-12-07 20:24:09.847178800,2.9721787109375,0.0684064552187919,-0.4609057307243347,-0.2370184659957885
2024-12-07 20:24:09.857192700,2.982192626953125,0.095988281071186,-0.5036806464195251,-0.1992042064666748
2024-12-07 20:24:09.867207000,2.99220703125,0.1288650035858154,-0.4889438152313232,-0.1082343384623527
2024-12-07 20:24:09.877219600,3.002219482421875,0.1660237312316894,-0.435574322938919,0.0260738153010606
2024-12-07 20:24:09.887233800,3.01223388671875,0.1887788474559784,-0.3842075169086456,0.1280728876590728
2024-12-07 20:24:09.897247700,3.022247802734375,0.1919906735420227,-0.2780658304691314,0.129381775856018
2024-12-07 20:24:09.907261000,3.032260986328125,0.1900849193334579,-0.1191818937659263,0.0694300234317779
2024-12-07 20:24:09.917274600,3.042274658203125,0.186213880777359,0.0061787776648998,0.0350063368678092
2024-12-07 20:24:09.927288800,3.052288818359375,0.1693091988563537,0.0284774266183376,0.045822761952877
2024-12-07 20:24:09.937302800,3.062302734375,0.1353025436401367,0.0279188472777605,0.0985095798969268
2024-12-07 20:24:09.947315700,3.072315673828125,0.0917790234088897,0.0183849968016147,0.1420408189296722
2024-12-07 20:24:09.957329700,3.08232958984375,0.0604817308485507,0.01053321454674,0.1084055081009864
2024-12-07 20:24:09.967343900,3.09234375,0.0854936093091964,0.0653783529996872,0.0064676878973841
2024-12-07 20:24:09.977357800,3.10235791015625,0.170226588845253,0.1344486027956009,-0.1180075258016586
2024-12-07 20:24:09.987370800,3.112370849609375,0.2532879114151001,0.1438335925340652,-0.2206611931324005
2024-12-07 20:24:09.997384700,3.122384765625,0.2507081925868988,0.0005971146165393,-0.2969610095024109
2024-12-07 20:24:10.007399000,3.13239892578125,0.1000965684652328,-0.3342743515968323,-0.3460257649421692
2024-12-07 20:24:10.017411600,3.14241162109375,-0.1020522788166999,-0.683243453502655,-0.3803654611110687
2024-12-07 20:24:10.027425800,3.15242578125,-0.2827475070953369,-0.913089156150818,-0.4223427474498749
2024-12-07 20:24:10.037439700,3.162439697265625,-0.412153959274292,-0.9403140544891356,-0.4489318132400512
2024-12-07 20:24:10.047454000,3.172453857421875,-0.311659574508667,-0.7267224192619324,-0.5406723618507385
2024-12-07 20:24:10.057466600,3.182466552734375,0.0542803816497325,-0.4993463456630707,-0.745558500289917
2024-12-07 20:24:10.067480800,3.192480712890625,0.2561389207839966,-0.3665648698806762,-0.8351661562919617
2024-12-07 20:24:10.077494800,3.202494873046875,0.0976024642586708,-0.5852907299995422,-0.5532552599906921
2024-12-07 20:24:10.087508700,3.2125087890625,-0.1714449673891067,-1.0961589813232422,0.0769975185394287
2024-12-07 20:24:10.097521700,3.222521728515625,-0.4442134201526642,-1.221868872642517,0.5230934023857117
2024-12-07 20:24:10.107536000,3.232535888671875,-0.6266764402389526,-0.8286775350570679,0.3822409808635711
2024-12-07 20:24:10.117549800,3.2425498046875,-0.672481119632721,-0.1693421304225921,-0.1335422396659851
2024-12-07 20:24:10.127562800,3.252562744140625,-0.6204456090927124,0.3590277135372162,-0.6301349401473999
2024-12-07 20:24:10.137576700,3.26257666015625,-0.5884078145027161,0.583885133266449,-0.8241764903068542
2024-12-07 20:24:10.147591000,3.2725908203125,-0.5598858594894409,0.5865674614906311,-0.7056170701980591
2024-12-07 20:24:10.157604600,3.2826044921875,-0.4452221095561981,0.4221446216106415,-0.502815842628479
2024-12-07 20:24:10.167617800,3.29261767578125,-0.2923462688922882,0.2075585424900055,-0.3338268399238586
2024-12-07 20:24:10.177631700,3.3026318359375,-0.1848649531602859,0.1218498423695564,-0.2107442617416381
2024-12-07 20:24:10.187645700,3.312645751953125,-0.1529424488544464,0.1906621903181076,-0.1536396741867065
2024-12-07 20:24:10.197659600,3.32265966796875,-0.219663605093956,0.2268210351467132,-0.1811098903417587
2024-12-07 20:24:10.207672800,3.3326728515625,-0.2980329692363739,0.1401444673538208,-0.2535691559314728
2024-12-07 20:24:10.217686800,3.342686767578125,-0.2487425953149795,0.0036661834456026,-0.3175821304321289
2024-12-07 20:24:10.227700700,3.35270068359375,-0.1570550203323364,-0.0418967753648757,-0.3243241906166076
2024-12-07 20:24:10.237714000,3.3627138671875,-0.0868036523461341,0.0153771834447979,-0.2819593548774719
2024-12-07 20:24:10.247727900,3.372727783203125,-0.0484394803643226,0.1081390753388404,-0.2159989774227142
2024-12-07 20:24:10.257741600,3.382741455078125,-0.0406512804329395,0.1777244955301284,-0.1557624042034149
2024-12-07 20:24:10.267755800,3.392755859375,-0.0559543371200561,0.1978976726531982,-0.1175396591424942
2024-12-07 20:24:10.277769000,3.40276904296875,-0.0932788550853729,0.223733901977539,-0.0884165614843368
2024-12-07 20:24:10.287782700,3.41278271484375,-0.1479170620441436,0.2804211378097534,-0.0576179027557373
2024-12-07 20:24:10.297796600,3.422796630859375,-0.2011438012123108,0.3631506264209747,-0.025150503963232
2024-12-07 20:24:10.307810800,3.432810791015625,-0.2434031069278717,0.4369359016418457,-0.0086117405444383
2024-12-07 20:24:10.317824000,3.442823974609375,-0.2709826231002807,0.4503229558467865,-0.0071453456766903
2024-12-07 20:24:10.327837700,3.452837646484375,-0.279371052980423,0.398539662361145,-0.0095645617693662
2024-12-07 20:24:10.337851600,3.4628515625,-0.2668456733226776,0.2834277749061584,-0.0111545138061046
2024-12-07 20:24:10.347864800,3.47286474609375,-0.2383186966180801,0.1430221945047378,0.0010345075279474
2024-12-07 20:24:10.357878800,3.482878662109375,-0.2000719606876373,0.0368985794484615,0.0261785686016082
2024-12-07 20:24:10.367892700,3.492892822265625,-0.162007138133049,-0.0147470366209745,0.0517244115471839
2024-12-07 20:24:10.377906700,3.50290673828125,-0.1354513764381408,-0.0114161670207977,0.0671454742550849
2024-12-07 20:24:10.387919600,3.512919677734375,-0.1138795092701911,0.0206983610987663,0.0610335208475589
2024-12-07 20:24:10.397933800,3.522933837890625,-0.0958913639187812,0.0876780673861503,0.0405367091298103
2024-12-07 20:24:10.407947800,3.53294775390625,-0.0928798615932464,0.168576642870903,0.0069662313908338
2024-12-07 20:24:10.417961700,3.542961669921875,-0.1079685315489769,0.2381654232740402,-0.0291729532182216
2024-12-07 20:24:10.427974700,3.552974609375,-0.1285582333803177,0.2645994126796722,-0.0658044666051864
2024-12-07 20:24:10.437988900,3.56298876953125,-0.1391699016094207,0.2404703348875045,-0.1024874150753021
2024-12-07 20:24:10.448002800,3.5730029296875,-0.1469623148441314,0.1847098618745803,-0.1233080178499221
2024-12-07 20:24:10.458015700,3.583015625,-0.1454010009765625,0.0881302431225776,-0.1196008697152137
2024-12-07 20:24:10.468029700,3.59302978515625,-0.1307887583971023,-0.0460086539387702,-0.0942515730857849
2024-12-07 20:24:10.478044000,3.6030439453125,-0.1004686281085014,-0.1637814790010452,-0.0542547218501567
2024-12-07 20:24:10.488057900,3.613057861328125,-0.0687439888715744,-0.2362934947013855,-0.0228557866066694
2024-12-07 20:24:10.498070800,3.62307080078125,-0.0443637706339359,-0.2761794030666351,-0.0144745148718357
2024-12-07 20:24:10.508084700,3.633084716796875,-0.0283296778798103,-0.3012666404247284,-0.0285288132727146
2024-12-07 20:24:10.518099000,3.643098876953125,-0.0199889242649078,-0.3092284202575683,-0.0646159797906875
2024-12-07 20:24:10.528113000,3.65311279296875,-0.0158836618065834,-0.2685033679008484,-0.1088028848171234
2024-12-07 20:24:10.538125800,3.663125732421875,-0.0272931270301342,-0.160193458199501,-0.1345371454954147
2024-12-07 20:24:10.548139800,3.673139892578125,-0.0309736169874668,-0.0053892373107373,-0.1378189623355865
2024-12-07 20:24:10.558154000,3.683154052734375,-0.0244481172412633,0.1281016170978546,-0.1308020055294037
2024-12-07 20:24:10.568166700,3.693166748046875,-0.0290673691779375,0.2080534398555755,-0.1231110766530036
2024-12-07 20:24:10.578180900,3.703180908203125,-0.0379660166800022,0.2603975832462311,-0.1256397068500518
2024-12-07 20:24:10.588194800,3.71319482421875,-0.0488604754209518,0.3637631237506866,-0.1498076170682907
2024-12-07 20:24:10.598208800,3.723208740234375,-0.0379189662635326,0.4965369403362274,-0.1950612813234329
2024-12-07 20:24:10.608221700,3.7332216796875,-0.0218076407909393,0.5326632857322693,-0.2202401310205459
2024-12-07 20:24:10.618236000,3.74323583984375,-0.0336273238062858,0.4792406857013702,-0.1675350666046142
2024-12-07 20:24:10.628249900,3.753249755859375,-0.1172614991664886,0.4661062359809875,-0.0066071669571101
2024-12-07 20:24:10.638263800,3.763263916015625,-0.2450071275234222,0.558563232421875,0.2278693318367004
2024-12-07 20:24:10.648277500,3.773277587890625,-0.3108143806457519,0.7353518605232239,0.4188283681869507
2024-12-07 20:24:10.658291500,3.78329150390625,-0.3107088208198547,0.9129917621612548,0.4894731938838959
2024-12-07 20:24:10.668305700,3.7933056640625,-0.3104438185691833,0.987323522567749,0.4882965981960296
2024-12-07 20:24:10.678318600,3.803318603515625,-0.3079619407653808,0.8813255429267883,0.5053898096084595
2024-12-07 20:24:10.688332500,3.81333251953125,-0.2873514890670776,0.6123175024986267,0.4983031451702118
2024-12-07 20:24:10.698346500,3.823346435546875,-0.2496805191040039,0.3287375867366791,0.365652859210968
2024-12-07 20:24:10.708360700,3.833360595703125,-0.2139792591333389,0.2713192999362945,0.0839335620403289
2024-12-07 20:24:10.718373600,3.84337353515625,-0.1941906809806823,0.5340552926063538,-0.2230676561594009
2024-12-07 20:24:10.728387600,3.8533876953125,-0.1291248500347137,0.8211259841918945,-0.3269908428192138
2024-12-07 20:24:10.738401500,3.863401611328125,-0.0040264278650283,0.9399573802947998,-0.15109384059906
2024-12-07 20:24:10.748415700,3.873415771484375,0.0793129354715347,0.8339523673057556,0.2198930233716964
2024-12-07 20:24:10.758428700,3.8834287109375,0.1122902408242225,0.5732341408729553,0.6131420731544495
2024-12-07 20:24:10.768442600,3.893442626953125,0.1627941727638244,0.4218544363975525,0.8465018272399902
2024-12-07 20:24:10.778456600,3.90345654296875,0.2155026942491531,0.4809893071651459,0.8798096179962158
2024-12-07 20:24:10.788469500,3.913469482421875,0.2398263961076736,0.6728975176811218,0.804259181022644
2024-12-07 20:24:10.798483700,3.923483642578125,0.2444938719272613,0.8478179574012756,0.6904593110084534
2024-12-07 20:24:10.808497700,3.93349755859375,0.2598280906677246,0.936015486717224,0.558451771736145
2024-12-07 20:24:10.818511600,3.94351171875,0.3029230833053589,0.910033643245697,0.4434442222118377
2024-12-07 20:24:10.828524500,3.953524658203125,0.358202576637268,0.7731554508209229,0.3780202269554138
2024-12-07 20:24:10.838538800,3.963538818359375,0.4037605822086334,0.6016666889190674,0.349721610546112
2024-12-07 20:24:10.848552700,3.973552734375,0.4529116153717041,0.4474388062953949,0.3246159851551056
2024-12-07 20:24:10.858566400,3.98356640625,0.5197842121124268,0.2636905610561371,0.296220064163208
2024-12-07 20:24:10.868579600,3.99357958984375,0.609268307685852,0.0536592975258827,0.2598753869533539
2024-12-07 20:24:10.878593800,4.00359375,0.6929329037666321,-0.1363634765148162,0.2469760030508041
2024-12-07 20:24:10.888607500,4.013607421875,0.7406375408172607,-0.290856122970581,0.2648492753505707
2024-12-07 20:24:10.898620700,4.02362060546875,0.7610471248626709,-0.428495317697525,0.2840168178081512
2024-12-07 20:24:10.908634600,4.033634521484375,0.8124865889549255,-0.2784357666969299,0.3885248601436615
2024-12-07 20:24:10.918648800,4.04364892578125,1.0394244194030762,0.4861232340335846,0.8397114872932434
2024-12-07 20:24:10.928662500,4.05366259765625,0.7422130703926086,-0.951065719127655,0.2274427860975265
2024-12-07 20:24:10.938675700,4.06367578125,0.5621066689491272,-1.1726418733596802,-0.038299947977066
2024-12-07 20:24:10.948689700,4.073689697265625,0.549335241317749,-0.864851176738739,-0.0073311114683747
2024-12-07 20:24:10.958703600,4.08370361328125,0.6156527400016785,-0.6079999804496765,0.138505756855011
2024-12-07 20:24:10.968717600,4.093717529296875,0.6803776621818542,-0.6107441186904907,0.2714906930923462
2024-12-07 20:24:10.978730800,4.103730712890625,0.708490252494812,-0.7900253534317017,0.3241689801216125
2024-12-07 20:24:10.988744400,4.113744384765625,0.7251698970794678,-0.9594516158103944,0.3132843673229217
2024-12-07 20:24:10.998758700,4.123758544921875,0.7271818518638611,-0.9758296608924866,0.2365384101867675
2024-12-07 20:24:11.008771600,4.133771484375,0.6996240019798279,-0.8042243123054504,0.124664083123207
2024-12-07 20:24:11.018785800,4.143785888671875,0.626913845539093,-0.5212705731391907,0.0437575578689575
2024-12-07 20:24:11.028799500,4.153799560546875,0.5126647353172302,-0.3318093419075012,0.0039939009584486
2024-12-07 20:24:11.038813700,4.163813720703125,0.3882189095020294,-0.3016032576560974,-0.0412162616848945
2024-12-07 20:24:11.048826600,4.17382666015625,0.2870006859302521,-0.3428833186626434,-0.1241300478577613
2024-12-07 20:24:11.058840600,4.183840576171875,0.2169679105281829,-0.3056963384151459,-0.229915976524353
2024-12-07 20:24:11.068854500,4.1938544921875,0.1512549519538879,-0.1992790699005127,-0.3414081633090973
2024-12-07 20:24:11.078868700,4.20386865234375,0.0954771786928176,-0.1513258665800094,-0.4517432451248169
2024-12-07 20:24:11.088881700,4.213881591796875,0.0693062916398048,-0.2309972643852234,-0.5409247875213623
2024-12-07 20:24:11.098895600,4.2238955078125,0.0680535435676574,-0.3862901031970978,-0.6043536067008972
2024-12-07 20:24:11.108909600,4.23390966796875,0.0969387143850326,-0.5410839319229126,-0.637022078037262
2024-12-07 20:24:11.118922800,4.2439228515625,0.1274865567684173,-0.664935290813446,-0.6152504682540894
2024-12-07 20:24:11.128936400,4.2539365234375,0.1459630280733108,-0.7325289845466614,-0.5497545599937439
2024-12-07 20:24:11.138950700,4.26395068359375,0.1607425659894943,-0.7192490696907043,-0.4664309024810791
2024-12-07 20:24:11.148964600,4.273964599609375,0.1634872108697891,-0.6730576157569885,-0.3782248795032501
2024-12-07 20:24:11.158977500,4.2839775390625,0.1599260717630386,-0.5956999659538269,-0.2778500616550445
2024-12-07 20:24:11.168991500,4.293991455078125,0.1621058732271194,-0.4751663506031036,-0.1842807084321975
2024-12-07 20:24:11.179005700,4.304005615234375,0.1723262369632721,-0.3898825347423553,-0.1002753600478172
2024-12-07 20:24:11.189019600,4.31401953125,0.1983226835727691,-0.3360896110534668,-0.03971454128623
2024-12-07 20:24:11.199032600,4.324032470703125,0.2428893446922302,-0.2572232782840729,-0.0004079253412783
2024-12-07 20:24:11.209046500,4.334046630859375,0.2679246664047241,-0.1998332291841507,0.0129845794290304
2024-12-07 20:24:11.219060700,4.344060791015625,0.2719475626945495,-0.206663966178894,-0.034965444356203
2024-12-07 20:24:11.229073400,4.354073486328125,0.2461846619844436,-0.2588499188423157,-0.0350064598023891
2024-12-07 20:24:11.239087600,4.364087646484375,0.2189119756221771,-0.4002703726291656,0.0795183926820755
2024-12-07 20:24:11.249101600,4.3741015625,0.4179979264736175,-0.2826036810874939,0.1461104750633239
2024-12-07 20:24:11.259115800,4.38411572265625,0.8152285218238831,0.2988237142562866,-0.0604144558310508
2024-12-07 20:24:11.269128400,4.39412841796875,1.0160300731658936,0.5279034376144409,-0.5697450637817383
2024-12-07 20:24:11.279142700,4.404142578125,0.6908129453659058,-0.1050426810979843,-0.8106659054756165
2024-12-07 20:24:11.289156600,4.414156494140625,0.1362304240465164,-1.0735613107681274,-0.1055508330464363
2024-12-07 20:24:11.299170600,4.424170654296875,-0.320254385471344,-1.3966004848480225,0.4917788803577423
2024-12-07 20:24:11.309183500,4.43418359375,-0.6769976019859314,-0.9900564551353456,0.2518528401851654
2024-12-07 20:24:11.319197700,4.44419775390625,-0.9482751488685608,-0.3524864912033081,-0.3496677875518799
2024-12-07 20:24:11.329211600,4.454211669921875,-1.0873520374298096,-0.0652392655611038,-0.739303708076477
2024-12-07 20:24:11.339224600,4.464224609375,-1.108808517456055,-0.0404979400336742,-0.7359813451766968
2024-12-07 20:24:11.349238500,4.474238525390625,-1.0013750791549685,-0.0860249474644661,-0.5640140771865845
2024-12-07 20:24:11.359252700,4.484252685546875,-0.7905302047729492,-0.0874843969941139,-0.363677054643631
2024-12-07 20:24:11.369266400,4.494266357421875,-0.5611044764518738,0.0174273680895566,-0.2156702727079391
2024-12-07 20:24:11.379279600,4.504279541015625,-0.4058590531349182,0.1796749979257583,-0.1245291158556938
2024-12-07 20:24:11.389293600,4.51429345703125,-0.3664458990097046,0.2857950329780578,-0.1330453753471374
2024-12-07 20:24:11.399307800,4.524307861328125,-0.4206723570823669,0.3365159034729004,-0.2027130126953125
2024-12-07 20:24:11.409321500,4.534321533203125,-0.4886476993560791,0.3985438346862793,-0.2534624636173248
2024-12-07 20:24:11.419334700,4.544334716796875,-0.4883406162261963,0.4959289729595184,-0.2591887712478637
2024-12-07 20:24:11.429348600,4.5543486328125,-0.4423321187496185,0.5839259624481201,-0.2259349375963211
2024-12-07 20:24:11.439362600,4.564362548828125,-0.3826572895050049,0.61542809009552,-0.1566156148910522
2024-12-07 20:24:11.449375700,4.574375732421875,-0.3013986349105835,0.6154949069023132,-0.0767942816019058
2024-12-07 20:24:11.459389700,4.5843896484375,-0.2155923694372177,0.6022836565971375,-0.0296774581074714
2024-12-07 20:24:11.469403400,4.5944033203125,-0.1589448153972625,0.5421247482299805,-0.0409895032644271
2024-12-07 20:24:11.479417600,4.60441748046875,-0.1370340585708618,0.462243378162384,-0.0965295284986496
2024-12-07 20:24:11.489430800,4.6144306640625,-0.1474523395299911,0.3900594711303711,-0.1523294150829315
2024-12-07 20:24:11.499444700,4.62444482421875,-0.1777478903532028,0.3127933740615845,-0.1652456521987915
2024-12-07 20:24:11.509458400,4.63445849609375,-0.2149557024240493,0.227426528930664,-0.1259083598852157
2024-12-07 20:24:11.519472600,4.64447265625,-0.2378808110952377,0.1546914726495742,-0.0653488337993621
2024-12-07 20:24:11.529485800,4.65448583984375,-0.2429147213697433,0.0930139869451522,-0.048088613897562
2024-12-07 20:24:11.539499500,4.66449951171875,-0.2363190054893493,0.0877483561635017,-0.0827907845377922
2024-12-07 20:24:11.549513500,4.674513427734375,-0.2448070347309112,0.1036500930786132,-0.1428740918636322
2024-12-07 20:24:11.559526700,4.684526611328125,-0.2759460508823395,0.1068015247583389,-0.1878435313701629
2024-12-07 20:24:11.569540600,4.69454052734375,-0.3210757076740265,0.0901751443743705,-0.2120913416147232
2024-12-07 20:24:11.579554600,4.704554443359375,-0.357130616903305,0.0662760362029075,-0.2149644047021865
2024-12-07 20:24:11.589568500,4.714568603515625,-0.3705260455608368,0.05118203535676,-0.1946253031492233
2024-12-07 20:24:11.599581700,4.724581787109375,-0.3561308085918426,0.0588680170476436,-0.1429738998413086
2024-12-07 20:24:11.609595600,4.734595703125,-0.3250522315502167,0.0671941265463829,-0.099945455789566
2024-12-07 20:24:11.619609600,4.744609619140625,-0.2949216067790985,0.0288095772266387,-0.0847816318273544
2024-12-07 20:24:11.629623600,4.75462353515625,-0.2862396836280823,-0.0446137748658657,-0.0739683955907821
2024-12-07 20:24:11.639636500,4.764636474609375,-0.2782154083251953,-0.1396480649709701,-0.0547711625695228
2024-12-07 20:24:11.649650700,4.774650634765625,-0.264977365732193,-0.1906758397817611,-0.0437254346907138
2024-12-07 20:24:11.659664600,4.78466455078125,-0.2535129189491272,-0.1974027901887893,-0.0401592999696731
2024-12-07 20:24:11.669678600,4.7946787109375,-0.254575252532959,-0.1899400800466537,-0.050056405365467
2024-12-07 20:24:11.679691500,4.80469140625,-0.2665665447711944,-0.2060438692569732,-0.0776579529047012
2024-12-07 20:24:11.689705700,4.814705810546875,-0.2842459380626678,-0.2397373765707016,-0.1065540462732315
2024-12-07 20:24:11.699719700,4.8247197265625,-0.299220472574234,-0.2739916145801544,-0.123608611524105
2024-12-07 20:24:11.709732900,4.83473291015625,-0.2998058199882507,-0.2850559949874878,-0.12558014690876
2024-12-07 20:24:11.719746600,4.84474658203125,-0.2804233431816101,-0.2833423912525177,-0.1156889796257019
2024-12-07 20:24:11.729760800,4.8547607421875,-0.239151269197464,-0.2409153133630752,-0.0964487195014953
2024-12-07 20:24:11.739774700,4.864774658203125,-0.1773327738046646,-0.1573561728000641,-0.0761306434869766
2024-12-07 20:24:11.749787600,4.87478759765625,-0.1253766417503357,-0.0736836493015289,-0.0514625757932662
2024-12-07 20:24:11.759801600,4.884801513671875,-0.0841059908270835,0.0004531919839791,-0.023129278793931
2024-12-07 20:24:11.769815800,4.89481591796875,-0.0711838006973266,0.061693113297224,0.0054075582884252
2024-12-07 20:24:11.779828500,4.904828369140625,-0.0742087066173553,0.0731683671474456,0.0281093344092369
2024-12-07 20:24:11.789842700,4.9148427734375,-0.0925243273377418,0.078818529844284,0.0350178405642509
2024-12-07 20:24:11.799856600,4.924856689453125,-0.1341061145067215,0.1199806109070777,0.0322465524077415
2024-12-07 20:24:11.809870600,4.93487060546875,-0.1828773915767669,0.1702917069196701,0.0375220105051994
2024-12-07 20:24:11.819883500,4.944883544921875,-0.2199548482894897,0.1863250434398651,0.0465153492987155
2024-12-07 20:24:11.829897700,4.954897705078125,-0.2224590182304382,0.1550275683403015,0.0610242523252964
2024-12-07 20:24:11.839911700,4.96491162109375,-0.2118654996156692,0.0374833680689334,0.0545929856598377
2024-12-07 20:24:11.849925600,4.974925537109375,-0.1922209560871124,-0.0721342042088508,0.0167249627411365
2024-12-07 20:24:11.859938600,4.9849384765625,-0.1577955335378646,-0.0462516024708747,-0.0584047324955463
2024-12-07 20:24:11.869952800,4.994952880859375,-0.120368517935276,0.0946682319045066,-0.1482403576374054
2024-12-07 20:24:11.879966700,5.004966796875,-0.0844501107931137,0.2689842283725738,-0.2333992421627044
2024-12-07 20:24:11.889979600,5.014979736328125,-0.0702000707387924,0.4561661183834076,-0.2691085040569305
2024-12-07 20:24:11.899993600,5.02499365234375,-0.0794011205434799,0.597679078578949,-0.2553411424160003
2024-12-07 20:24:11.910007800,5.0350078125,-0.095759317278862,0.6541250348091125,-0.1940362453460693
2024-12-07 20:24:11.920021800,5.045021728515625,-0.1215666308999061,0.6152217388153076,-0.1228721439838409
2024-12-07 20:24:11.930034700,5.05503466796875,-0.1531557142734527,0.5561813116073608,-0.0694635212421417
2024-12-07 20:24:11.940048600,5.065048583984375,-0.1845828294754028,0.5228064656257629,-0.0461894497275352
2024-12-07 20:24:11.950062800,5.075062744140625,-0.2013343870639801,0.5430288910865784,-0.0450323075056076
2024-12-07 20:24:11.960076500,5.08507666015625,-0.1874841302633285,0.6240153312683105,-0.0686087310314178
2024-12-07 20:24:11.970089700,5.09508984375,-0.1612852811813354,0.7239456176757812,-0.0956041291356086
2024-12-07 20:24:11.980103700,5.105103759765625,-0.1513990461826324,0.8489389419555664,-0.1139247789978981
2024-12-07 20:24:11.990117600,5.11511767578125,-0.1701559573411941,1.0366599559783936,-0.1044654995203018
2024-12-07 20:24:12.000131600,5.125131591796875,-0.2125036120414734,1.204131245613098,-0.0531927794218063
2024-12-07 20:24:12.010144800,5.135144775390625,-0.2360296994447708,1.328003168106079,0.0758155360817909
2024-12-07 20:24:12.020158700,5.14515869140625,-0.2002125382423401,1.3089390993118286,0.2969171404838562
2024-12-07 20:24:12.030172700,5.155172607421875,-0.0785313695669174,1.0785480737686155,0.5647752285003662
2024-12-07 20:24:12.040185600,5.165185546875,0.1374154835939407,0.7121632099151611,0.7646329998970032
2024-12-07 20:24:12.050199800,5.17519970703125,0.3797716498374939,0.2979755997657776,0.8093953728675842
2024-12-07 20:24:12.060213500,5.185213623046875,0.4689357280731201,-0.0076233055442571,0.7825498580932617
2024-12-07 20:24:12.070227700,5.195227783203125,0.4257914423942566,-0.1490227729082107,0.8569337725639343
2024-12-07 20:24:12.080240600,5.20524072265625,0.4912715852260589,-0.2124659568071365,1.0855573415756226
2024-12-07 20:24:12.090254600,5.215254638671875,0.6140987277030945,-0.0817423015832901,1.275197148323059
2024-12-07 20:24:12.100268500,5.2252685546875,0.7234348654747009,0.2098186463117599,1.298038363456726
2024-12-07 20:24:12.110282800,5.23528271484375,0.83819979429245,0.5454760193824768,1.180661916732788
2024-12-07 20:24:12.120295700,5.245295654296875,0.9365584254264832,0.7452534437179565,0.985556423664093
2024-12-07 20:24:12.130309600,5.2553095703125,0.974665343761444,0.6173409819602966,0.7809995412826538
2024-12-07 20:24:12.140323600,5.265323486328125,0.8844717741012573,0.2532956898212433,0.640516459941864
2024-12-07 20:24:12.150336800,5.275336669921875,0.6530225872993469,-0.0890201181173324,0.5825751423835754
2024-12-07 20:24:12.160350500,5.2853505859375,0.4253276288509369,-0.2916446030139923,0.5398417115211487
2024-12-07 20:24:12.170364700,5.29536474609375,0.3571176826953888,-0.2752027809619903,0.4588049352169037
2024-12-07 20:24:12.180378600,5.305378662109375,0.4620860815048218,-0.0349938757717609,0.3555202186107635
2024-12-07 20:24:12.190391600,5.3153916015625,0.6205156445503235,0.3149921000003814,0.2585609257221222
2024-12-07 20:24:12.200405500,5.325405517578125,0.7572212219238281,0.5427939891815186,0.1642608493566513
2024-12-07 20:24:12.210419700,5.335419677734375,0.8723832368850708,0.4966855943202972,0.0638644769787788
2024-12-07 20:24:12.220433700,5.34543359375,0.9537783861160278,0.2794248461723327,-0.0209447611123323
2024-12-07 20:24:12.230446600,5.355446533203125,0.9889853596687316,-0.0274229552596807,-0.0719959586858749
2024-12-07 20:24:12.240460500,5.36546044921875,0.9572970867156982,-0.351262092590332,-0.0755087360739708
2024-12-07 20:24:12.250474800,5.375474853515625,0.8418123126029968,-0.6626349091529846,-0.0364558771252632
2024-12-07 20:24:12.260487700,5.38548779296875,0.693425714969635,-0.9511286020278932,0.0294183511286973
2024-12-07 20:24:12.270501600,5.395501708984375,0.5493133068084717,-1.168137550354004,0.1072284653782844
2024-12-07 20:24:12.280515600,5.405515625,0.4516068696975708,-1.2520045042037964,0.1329995393753051
2024-12-07 20:24:12.290529800,5.41552978515625,0.4207181930541992,-1.243517279624939,0.0840863212943077
2024-12-07 20:24:12.300542700,5.425542724609375,0.4202740788459778,-1.1097170114517212,0.0008107633329927
2024-12-07 20:24:12.310556700,5.435556640625,0.4099218249320984,-0.8526546359062195,-0.0596770793199539
2024-12-07 20:24:12.320570600,5.445570556640625,0.3681561350822449,-0.5463943481445312,-0.0815151035785675
2024-12-07 20:24:12.330584800,5.455584716796875,0.3036916553974151,-0.2706687450408935,-0.0873484909534454
2024-12-07 20:24:12.340597500,5.465597412109375,0.2334116101264953,-0.1070469841361045,-0.1074991673231124
2024-12-07 20:24:12.350611700,5.47561181640625,0.1282135546207428,-0.0681653693318367,-0.1434968411922454
2024-12-07 20:24:12.360625700,5.485625732421875,-0.0067068999633193,-0.0994541719555854,-0.1962906122207641
2024-12-07 20:24:12.370638600,5.495638671875,-0.1217980682849884,-0.0902468264102935,-0.328029990196228
2024-12-07 20:24:12.380652500,5.505652587890625,-0.1720520406961441,-0.1437002718448639,-0.550369381904602
2024-12-07 20:24:12.390666800,5.515666748046875,-0.1188506036996841,-0.2801603972911834,-0.7906789183616638
2024-12-07 20:24:12.400680400,5.525680419921875,0.0723942294716835,-0.2966050207614898,-0.9188039302825928
2024-12-07 20:24:12.410693600,5.535693603515625,0.2950720489025116,-0.2495794743299484,-0.8414912819862366
2024-12-07 20:24:12.420707600,5.54570751953125,0.4651799201965332,-0.3010945320129394,-0.5628002285957336
2024-12-07 20:24:12.430721800,5.5557216796875,0.5525180101394653,-0.3985885977745056,-0.230889692902565
2024-12-07 20:24:12.440735500,5.565735595703125,0.463001549243927,-0.3688064515590668,0.0248207580298185
2024-12-07 20:24:12.450748700,5.575748779296875,0.2296380847692489,-0.4077301323413849,0.1539542376995086
2024-12-07 20:24:12.460762600,5.5857626953125,-0.0490524023771286,-0.7407810091972351,0.1664251685142517
2024-12-07 20:24:12.470776600,5.595776611328125,-0.1486383825540542,-0.9251838326454164,0.0683443993330001
2024-12-07 20:24:12.480789800,5.605789794921875,-0.0242847371846437,-0.7123059034347534,-0.0860042050480842
2024-12-07 20:24:12.490803700,5.6158037109375,0.0936685353517532,-0.3552697002887726,-0.3145865201950073
2024-12-07 20:24:12.500817700,5.625817626953125,-0.0941350981593132,-0.2703944444656372,-0.3445070683956146
2024-12-07 20:24:12.510831600,5.63583154296875,-0.4065883159637451,-0.6500880122184753,0.0381282046437263
2024-12-07 20:24:12.520844800,5.6458447265625,-0.6213444471359253,-0.6387762427330017,0.2862387895584106
2024-12-07 20:24:12.530858800,5.655858642578125,-0.7239611148834229,-0.2712298631668091,0.0015210362616926
2024-12-07 20:24:12.540872400,5.66587255859375,-0.8390584588050842,0.0643747076392173,-0.5716323256492615
2024-12-07 20:24:12.550886700,5.67588671875,-0.9919790029525756,0.2468531727790832,-1.0051791667938232
2024-12-07 20:24:12.560899800,5.68589990234375,-1.045762062072754,0.3642365038394928,-1.068779230117798
2024-12-07 20:24:12.570913500,5.69591357421875,-0.8856343030929565,0.3171866834163666,-0.8961964845657349
2024-12-07 20:24:12.580927500,5.705927490234375,-0.5718288421630859,0.0433829277753829,-0.6684198379516602
2024-12-07 20:24:12.590940700,5.715940673828125,-0.3005164265632629,-0.1922828555107116,-0.4164477884769439
2024-12-07 20:24:12.600955000,5.725954833984375,-0.1906439661979675,-0.2376947104930877,-0.2474508732557296
2024-12-07 20:24:12.610968600,5.735968505859375,-0.2083284258842468,-0.1276699304580688,-0.2708131968975067
2024-12-07 20:24:12.620982500,5.745982421875,-0.2990227043628692,0.0337212048470974,-0.3566387593746185
2024-12-07 20:24:12.630995700,5.75599560546875,-0.3851714432239532,0.1367021799087524,-0.3964072167873382
2024-12-07 20:24:12.641009700,5.766009765625,-0.4154457747936249,0.1507701873779297,-0.3892470002174377
2024-12-07 20:24:12.651024100,5.776024169921875,-0.4013414084911346,0.1474809199571609,-0.349662035703659
2024-12-07 20:24:12.661038000,5.7860380859375,-0.3615300357341766,0.1661282628774643,-0.3129960000514984
2024-12-07 20:24:12.671051000,5.796051025390625,-0.3024885654449463,0.2098312675952911,-0.2655792236328125
2024-12-07 20:24:12.681065000,5.80606494140625,-0.2367194592952728,0.2676509916782379,-0.2190808653831482
2024-12-07 20:24:12.691079200,5.8160791015625,-0.170767068862915,0.3394412994384765,-0.1756859868764877
2024-12-07 20:24:12.701092000,5.826092041015625,-0.1298316717147827,0.3732266128063202,-0.1232062131166458
2024-12-07 20:24:12.711106000,5.83610595703125,-0.1153906732797622,0.3300719559192657,-0.0792893469333648
2024-12-07 20:24:12.721120000,5.8461201171875,-0.1084553599357605,0.2638126015663147,-0.054972767829895
2024-12-07 20:24:12.731134200,5.85613427734375,-0.1135505214333534,0.2592514157295227,-0.0647292584180831
2024-12-07 20:24:12.741147100,5.866147216796875,-0.1354290544986724,0.289610356092453,-0.1101615652441978
2024-12-07 20:24:12.751161000,5.8761611328125,-0.1673856526613235,0.3165999054908752,-0.1439584195613861
2024-12-07 20:24:12.761175000,5.886175048828125,-0.188009575009346,0.3149448335170746,-0.1405660063028335
2024-12-07 20:24:12.771189200,5.896189208984375,-0.1960954666137695,0.2826441526412964,-0.1264627128839492
2024-12-07 20:24:12.781202200,5.9062021484375,-0.1965351998805999,0.2244973927736282,-0.1312955021858215
2024-12-07 20:24:12.791216000,5.916216064453125,-0.1897004544734954,0.1548916846513748,-0.1402274668216705
2024-12-07 20:24:12.801230000,5.92622998046875,-0.2008877843618393,0.1226054057478904,-0.1434333622455597
2024-12-07 20:24:12.811244000,5.936244140625,-0.2298499196767807,0.0972979217767715,-0.1390103846788406
2024-12-07 20:24:12.821257200,5.94625732421875,-0.2614378333091736,0.0383770689368248,-0.1277323067188263
2024-12-07 20:24:12.831271200,5.956271240234375,-0.2733331024646759,-0.024562481790781,-0.112986110150814
2024-12-07 20:24:12.841285000,5.96628515625,-0.2656238079071045,-0.0703994259238243,-0.0981038808822631
2024-12-07 20:24:12.851298000,5.976298095703125,-0.2474160492420196,-0.0764954015612602,-0.0863670632243156
2024-12-07 20:24:12.861312300,5.986312255859375,-0.2248003035783767,-0.0481606386601924,-0.0745556131005287
2024-12-07 20:24:12.871326200,5.996326171875,-0.2089659422636032,-0.0028653296176344,-0.0696359574794769
2024-12-07 20:24:12.881340000,6.00633984375,-0.2084892839193344,0.0529811680316925,-0.0614611580967903
2024-12-07 20:24:12.891353000,6.01635302734375,-0.2120475471019745,0.1105730906128883,-0.0448784530162811
2024-12-07 20:24:12.901367300,6.0263671875,-0.2117365598678589,0.1671247035264969,-0.0205019954591989
2024-12-07 20:24:12.911381000,6.036381103515625,-0.1893750578165054,0.1847007721662521,0.0136402621865272
2024-12-07 20:24:12.921394200,6.046394287109375,-0.1532722413539886,0.15711410343647,0.0290117673575878
2024-12-07 20:24:12.931408100,6.056408203125,-0.1208868622779846,0.1649160981178283,0.0291361361742019
2024-12-07 20:24:12.941422300,6.06642236328125,-0.1016572415828704,0.1887753009796142,0.0172291900962591
2024-12-07 20:24:12.951436000,6.07643603515625,-0.1187872290611267,0.1888448148965835,0.0109435971826314
2024-12-07 20:24:12.961449200,6.08644921875,-0.1592959463596344,0.1247101724147796,0.0167492292821407
2024-12-07 20:24:12.971463200,6.096463134765625,-0.2022519409656524,-0.0076654404401779,0.0345450043678283
2024-12-07 20:24:12.981477000,6.10647705078125,-0.2292299717664718,-0.1636577695608139,0.0512037351727485
2024-12-07 20:24:12.991491000,6.116490966796875,-0.2256445586681366,-0.2872896790504455,0.0555641278624534
2024-12-07 20:24:13.001504300,6.126504150390625,-0.2067038118839264,-0.3694770932197571,0.0431928858160972
2024-12-07 20:24:13.011518000,6.13651806640625,-0.1842941045761108,-0.4066271185874939,-0.0012070690281689
2024-12-07 20:24:13.021532200,6.1465322265625,-0.1624780744314193,-0.3900799453258514,-0.0617771558463573
2024-12-07 20:24:13.031545000,6.156545166015625,-0.1465089619159698,-0.3314081132411957,-0.1161530464887619
2024-12-07 20:24:13.041559300,6.166559326171875,-0.1317708790302276,-0.2907371520996094,-0.1419900804758072
2024-12-07 20:24:13.051573000,6.176572998046875,-0.1153122931718826,-0.2799678444862366,-0.1485859304666519
2024-12-07 20:24:13.061587200,6.186587158203125,-0.1091922521591186,-0.2601116597652435,-0.1501945704221725
2024-12-07 20:24:13.071600000,6.19660009765625,-0.119018517434597,-0.2268090844154358,-0.1460877209901809
2024-12-07 20:24:13.081614000,6.206614013671875,-0.149892196059227,-0.156569018959999,-0.1301230192184448
2024-12-07 20:24:13.091628000,6.2166279296875,-0.1942444741725921,-0.0685036107897758,-0.0972723886370658
2024-12-07 20:24:13.101642200,6.226642333984375,-0.2317452430725097,0.0095592252910137,-0.0701070800423622
2024-12-07 20:24:13.111655000,6.236655029296875,-0.2496043890714645,0.0478621385991573,-0.0567321553826332
2024-12-07 20:24:13.121669000,6.246669189453125,-0.2583333253860473,0.066596008837223,-0.0641783773899078
2024-12-07 20:24:13.131683000,6.25668310546875,-0.2721745669841766,0.0786244347691536,-0.097337931394577
2024-12-07 20:24:13.141697300,6.266697265625,-0.2977533638477325,0.0921056196093559,-0.1414514780044555
2024-12-07 20:24:13.151710000,6.2767099609375,-0.3399828374385834,0.1015214920043945,-0.1800246983766555
2024-12-07 20:24:13.161724200,6.28672412109375,-0.3726522028446197,0.0946494340896606,-0.2110474407672882
2024-12-07 20:24:13.171738000,6.296738037109375,-0.3917140364646911,0.0770062580704689,-0.2347242683172226
2024-12-07 20:24:13.181751000,6.3067509765625,-0.4012600183486938,0.073250912129879,-0.2460252493619918
2024-12-07 20:24:13.191765000,6.316764892578125,-0.4055948555469513,0.0774930566549301,-0.2450318932533264
2024-12-07 20:24:13.201779200,6.326779296875,-0.4032419919967651,0.0745046809315681,-0.2253066450357437
2024-12-07 20:24:13.211793200,6.336793212890625,-0.3930990695953369,0.0903960317373275,-0.1984649002552032
2024-12-07 20:24:13.221806000,6.34680615234375,-0.3752174973487854,0.1248357146978378,-0.1512472033500671
2024-12-07 20:24:13.231820000,6.356820068359375,-0.3321869373321533,0.1726599484682083,-0.0753311365842819
2024-12-07 20:24:13.241834200,6.366834228515625,-0.2525112926959991,0.2237755954265594,0.0355349294841289
2024-12-07 20:24:13.251848200,6.37684814453125,-0.1024376302957534,0.2503614127635956,0.1742904186248779
2024-12-07 20:24:13.261861000,6.386861083984375,0.1407146006822586,0.2369835525751114,0.3237174749374389
2024-12-07 20:24:13.271875000,6.396875,0.4356711506843567,0.1669370830059051,0.4664354920387268
2024-12-07 20:24:13.281889300,6.40688916015625,0.6874392628669739,0.1368097811937332,0.593782365322113
2024-12-07 20:24:13.291902000,6.41690185546875,0.8325884938240051,0.330475389957428,0.6887829303741455
2024-12-07 20:24:13.301916200,6.426916259765625,0.934664785861969,0.7868636250495911,0.7374613285064697
2024-12-07 20:24:13.311930000,6.43693017578125,1.0591477155685425,1.3541712760925293,0.754096508026123
2024-12-07 20:24:13.321944000,6.446944091796875,1.16647207736969,1.7269928455352783,0.8359067440032959
2024-12-07 20:24:13.331957000,6.45695703125,1.1735787391662598,1.748765230178833,1.0829572677612305
2024-12-07 20:24:13.341971200,6.46697119140625,1.0756464004516602,1.389581322669983,1.4550470113754272
2024-12-07 20:24:13.351985200,6.476985107421875,0.9112832546234132,0.8045940399169922,1.7207971811294556
2024-12-07 20:24:13.361999000,6.4869990234375,0.7442074418067932,0.3745703101158142,1.7166951894760132
2024-12-07 20:24:13.372012000,6.497011962890625,0.6366761922836304,0.2529735565185547,1.4992129802703855
2024-12-07 20:24:13.382026200,6.507026123046875,0.5887722373008728,0.23600734770298,1.1941704750061035
2024-12-07 20:24:13.392040000,6.5170400390625,0.5311324000358582,0.1802205145359039,0.9137819409370422
2024-12-07 20:24:13.402053000,6.52705322265625,0.4105561971664428,0.0526599250733852,0.6744995713233948
2024-12-07 20:24:13.412067000,6.537067138671875,0.2648258805274963,-0.0843796879053115,0.5067989826202393
2024-12-07 20:24:13.422081000,6.5470810546875,0.2382123470306396,-0.1348070502281189,0.4442630410194397
2024-12-07 20:24:13.432095000,6.557094970703125,0.3152019381523132,-0.1290200054645538,0.483319878578186
2024-12-07 20:24:13.442108200,6.567108154296875,0.4251688718795776,-0.2025251537561416,0.5290237069129944
2024-12-07 20:24:13.452122000,6.5771220703125,0.5268784761428833,-0.338016152381897,0.528761088848114
2024-12-07 20:24:13.462136000,6.587135986328125,0.6005282998085022,-0.4558082520961761,0.4953821897506714
2024-12-07 20:24:13.472150000,6.59714990234375,0.6441971659660339,-0.5305927395820618,0.4334335923194885
2024-12-07 20:24:13.482163200,6.6071630859375,0.6483038663864136,-0.5411572456359863,0.3460949659347534
2024-12-07 20:24:13.492177000,6.617177001953125,0.6253348588943481,-0.5092456340789795,0.2474171221256256
2024-12-07 20:24:13.502191000,6.627191162109375,0.5910279750823975,-0.4631263017654419,0.1618180274963379
2024-12-07 20:24:13.512204300,6.637204345703125,0.557737410068512,-0.4167734384536743,0.1021320596337318
2024-12-07 20:24:13.522218200,6.64721826171875,0.5317776203155518,-0.3874379694461822,0.0615701787173748
2024-12-07 20:24:13.532232000,6.65723193359375,0.5234019756317139,-0.3989478945732116,0.0291834753006696
2024-12-07 20:24:13.542246100,6.66724609375,0.5290932655334473,-0.4225150048732757,0.0155625902116298
2024-12-07 20:24:13.552259300,6.67725927734375,0.528964102268219,-0.4338265061378479,0.0220079720020294
2024-12-07 20:24:13.562273000,6.68727294921875,0.5154717564582825,-0.4244947135448456,0.0393501594662666
2024-12-07 20:24:13.572287000,6.697286865234375,0.4798748791217804,-0.3859084248542785,0.0423912219703197
2024-12-07 20:24:13.582301200,6.70730126953125,0.4361801147460937,-0.3362064957618713,0.0250927507877349
2024-12-07 20:24:13.592314000,6.717314208984375,0.3870951235294342,-0.3028290867805481,-0.0214017797261476
2024-12-07 20:24:13.602328000,6.727328125,0.3295316100120544,-0.2943492531776428,-0.0877053365111351
2024-12-07 20:24:13.612342000,6.737342041015625,0.2519260346889496,-0.2476504743099212,-0.1281550228595733
2024-12-07 20:24:13.622355200,6.747355224609375,0.1604979932308197,-0.2386407107114792,-0.154119923710823
2024-12-07 20:24:13.632369200,6.757369140625,0.0885074138641357,-0.2791372537612915,-0.1803672462701797
2024-12-07 20:24:13.642383000,6.767383056640625,0.0549422651529312,-0.2904768884181976,-0.2033232450485229
2024-12-07 20:24:13.652396300,6.777396240234375,0.0526942908763885,-0.2424803376197815,-0.2116948962211609
2024-12-07 20:24:13.662409200,6.7874091796875,0.0603307299315929,-0.2216190695762634,-0.2097487598657608
2024-12-07 20:24:13.672423200,6.797423095703125,0.0829979553818702,-0.2098769247531891,-0.2058072835206985
2024-12-07 20:24:13.682437000,6.80743701171875,0.1148087978363037,-0.1450997143983841,-0.2007748782634735
2024-12-07 20:24:13.692451300,6.817451416015625,0.1542864292860031,-0.0184805244207382,-0.1770005673170089
2024-12-07 20:24:13.702464300,6.82746435546875,0.1856817305088043,0.052950445562601,-0.1646614521741867
2024-12-07 20:24:13.712478200,6.837478271484375,0.1917108595371246,0.0079294415190815,-0.1883492022752761
2024-12-07 20:24:13.722492200,6.8474921875,0.2246738523244857,-0.0710512995719909,-0.1768482029438018
2024-12-07 20:24:13.732505300,6.85750537109375,0.2847747504711151,-0.0469169318675994,-0.1290814727544784
2024-12-07 20:24:13.742519000,6.86751904296875,0.3267894089221954,0.1043900772929191,-0.1348902881145477
2024-12-07 20:24:13.752533200,6.877533203125,0.3374897241592407,0.166033998131752,-0.235303446650505
2024-12-07 20:24:13.762547200,6.887547119140625,0.3092900514602661,-0.036271434277296,-0.331635057926178
2024-12-07 20:24:13.772560100,6.89756005859375,0.2000327855348587,-0.3379409909248352,-0.3709787428379059
2024-12-07 20:24:13.782574000,6.907573974609375,-0.0613483488559722,-0.5487044453620911,-0.4706806242465973
2024-12-07 20:24:13.792588300,6.91758837890625,-0.4222663342952728,-0.6107475757598877,-0.6303517818450928
2024-12-07 20:24:13.802602200,6.927602294921875,-0.5608952641487122,-0.436452567577362,-0.7937624454498291
2024-12-07 20:24:13.812615200,6.937615234375,-0.2704181969165802,-0.1566531509160995,-0.8878268599510193
2024-12-07 20:24:13.822629000,6.947629150390625,0.2818166613578796,-0.2081035077571869,-0.8420696258544922
2024-12-07 20:24:13.832643300,6.957643310546875,0.4785789847373962,-0.7039515972137451,-0.3824695646762848
2024-12-07 20:24:13.842656300,6.96765625,0.1700750142335891,-1.4397908449172974,0.4103712737560272
2024-12-07 20:24:13.852670200,6.977670166015625,-0.2526325583457947,-1.554888129234314,0.7456856369972229
2024-12-07 20:24:13.862684200,6.98768408203125,-0.5665048956871033,-0.9927064180374146,0.4267770648002624
2024-12-07 20:24:13.872698400,6.997698486328125,-0.7152605652809143,-0.1875060498714447,-0.2304460704326629
2024-12-07 20:24:13.882711300,7.007711181640625,-0.7616808414459229,0.3707245886325836,-0.7574716806411743
2024-12-07 20:24:13.892725200,7.017725341796875,-0.7584205865859985,0.5530768036842346,-0.9086127281188964
2024-12-07 20:24:13.902739200,7.0277392578125,-0.6684999465942383,0.4689442813396454,-0.846224308013916
2024-12-07 20:24:13.912753400,7.03775341796875,-0.521025538444519,0.304512470960617,-0.7492445111274719
2024-12-07 20:24:13.922766300,7.047766357421875,-0.3419615626335144,0.1583126932382583,-0.6635425090789795
2024-12-07 20:24:13.932780300,7.0577802734375,-0.2011932432651519,0.0678837299346923,-0.5983733534812927
2024-12-07 20:24:13.942794200,7.067794189453125,-0.186563953757286,0.0240408666431903,-0.5456029772758484
2024-12-07 20:24:13.952807200,7.07780712890625,-0.2931553721427917,-0.0954522415995597,-0.4621216654777527
2024-12-07 20:24:13.962821000,7.087821044921875,-0.3890134394168854,-0.2373998463153839,-0.3425341844558716
2024-12-07 20:24:13.972835300,7.09783544921875,-0.4231255948543548,-0.2526293992996216,-0.2592858970165252
2024-12-07 20:24:13.982849000,7.10784912109375,-0.4226316809654236,-0.1672591567039489,-0.2168181240558624
2024-12-07 20:24:13.992862200,7.1178623046875,-0.3996478021144867,-0.0572112128138542,-0.1908219456672668
2024-12-07 20:24:14.002876200,7.127876220703125,-0.3298842906951904,0.0965351238846778,-0.1829944550991058
2024-12-07 20:24:14.012890400,7.137890380859375,-0.226113423705101,0.3010837435722351,-0.2020568251609802
2024-12-07 20:24:14.022904000,7.147904052734375,-0.171620562672615,0.5125501751899719,-0.2346266657114029
2024-12-07 20:24:14.032917200,7.157917236328125,-0.1706469058990478,0.6481985449790955,-0.2550256848335266
2024-12-07 20:24:14.042931200,7.16793115234375,-0.1816643178462982,0.6588411331176758,-0.2238435000181198
2024-12-07 20:24:14.052945200,7.177945068359375,-0.2001205682754516,0.6044234037399292,-0.1487404853105545
2024-12-07 20:24:14.062959000,7.187958984375,-0.2053047120571136,0.5548349022865295,-0.0815588757395744
2024-12-07 20:24:14.072972300,7.19797216796875,-0.2112459540367126,0.5225390195846558,-0.0598458535969257
2024-12-07 20:24:14.082986200,7.207986328125,-0.2316333055496215,0.4532490074634552,-0.0726584941148758
2024-12-07 20:24:14.093000200,7.218000244140625,-0.2605618834495544,0.3533879220485687,-0.0940692424774169
2024-12-07 20:24:14.103013400,7.228013427734375,-0.2890918552875519,0.2698812484741211,-0.0870630368590354
2024-12-07 20:24:14.113027300,7.23802734375,-0.3032793402671814,0.2119220495223999,-0.0708603635430336
2024-12-07 20:24:14.123041300,7.248041259765625,-0.2911462485790252,0.2004494965076446,-0.0719856321811676
2024-12-07 20:24:14.133055200,7.25805517578125,-0.2612093985080719,0.2269319742918014,-0.092034712433815
2024-12-07 20:24:14.143068400,7.268068359375,-0.2308621406555175,0.2783307731151581,-0.1180517077445983
2024-12-07 20:24:14.153082000,7.27808203125,-0.2068516165018081,0.3418833911418915,-0.1407293230295181
2024-12-07 20:24:14.163096000,7.288095947265625,-0.1969109177589416,0.3664000630378723,-0.1600854247808456
2024-12-07 20:24:14.173110300,7.2981103515625,-0.211917832493782,0.3605245947837829,-0.1687007546424865
2024-12-07 20:24:14.183123500,7.30812353515625,-0.2441860288381576,0.3365433812141418,-0.1549540907144546
2024-12-07 20:24:14.193137200,7.31813720703125,-0.2784675657749176,0.311048686504364,-0.1222203746438026
2024-12-07 20:24:14.203151000,7.328151123046875,-0.3008056282997131,0.2979825735092163,-0.0847160145640373
2024-12-07 20:24:14.213164300,7.338164306640625,-0.2996615469455719,0.3019711673259735,-0.0538997799158096
2024-12-07 20:24:14.223178200,7.34817822265625,-0.2863223850727081,0.309587299823761,-0.0281761586666107
2024-12-07 20:24:14.233192200,7.358192138671875,-0.2709053456783294,0.3075161576271057,-0.0075917900539934
2024-12-07 20:24:14.243206100,7.3682060546875,-0.2604522705078125,0.2956918179988861,0.0133708994835615
2024-12-07 20:24:14.253219000,7.378218994140625,-0.2362060397863388,0.2764294445514679,0.0334300957620143
2024-12-07 20:24:14.263233300,7.3882333984375,-0.2115679830312729,0.2604807913303375,0.0459864363074302
2024-12-07 20:24:14.273247200,7.398247314453125,-0.1969107538461685,0.2334193587303161,0.042395431548357
2024-12-07 20:24:14.283261200,7.40826123046875,-0.2016516178846359,0.2050312161445617,0.0326024442911148
2024-12-07 20:24:14.293274000,7.418274169921875,-0.2265369892120361,0.1829845011234283,0.0195063482969999
2024-12-07 20:24:14.303288300,7.428288330078125,-0.2599199414253235,0.1541428864002227,0.0101052913814783
2024-12-07 20:24:14.313302300,7.43830224609375,-0.2944987118244171,0.1237186715006828,-0.0016405801288783
2024-12-07 20:24:14.323315200,7.448315185546875,-0.3272314071655273,0.0986962541937828,-0.0175920184701681
2024-12-07 20:24:14.333329200,7.4583291015625,-0.3475891351699829,0.0702896490693092,-0.0322370044887065
2024-12-07 20:24:14.343343400,7.46834326171875,-0.3421652317047119,-0.0001551304012537,-0.0395963601768016
2024-12-07 20:24:14.353357300,7.478357421875,-0.3175786435604095,-0.0662316158413887,-0.04910384491086
2024-12-07 20:24:14.363370200,7.488370361328125,-0.2903603315353393,-0.0985747128725051,-0.0576700828969478
2024-12-07 20:24:14.373384200,7.49838427734375,-0.2608980238437652,-0.0948177948594093,-0.0730088278651237
2024-12-07 20:24:14.383398400,7.5083984375,-0.2348017543554306,-0.0745734944939613,-0.0975166037678718
2024-12-07 20:24:14.393412400,7.518412353515625,-0.2180613875389099,-0.0663435235619545,-0.1251575499773025
2024-12-07 20:24:14.403425300,7.52842529296875,-0.2149660885334015,-0.0838922038674354,-0.1592191904783249
2024-12-07 20:24:14.413439200,7.538439208984375,-0.2308672964572906,-0.0964958742260932,-0.1899139732122421
2024-12-07 20:24:14.423453400,7.548453369140625,-0.2652983069419861,-0.1089887991547584,-0.2212410420179367
2024-12-07 20:24:14.433466000,7.558466064453125,-0.3085238039493561,-0.1350741982460022,-0.2516684830188751
2024-12-07 20:24:14.443480300,7.568480224609375,-0.345462292432785,-0.1775442361831665,-0.2759243249893188
2024-12-07 20:24:14.453494300,7.578494384765625,-0.3709159791469574,-0.2326181381940841,-0.2852126359939575
2024-12-07 20:24:14.463508200,7.58850830078125,-0.3880049288272857,-0.2796276211738586,-0.2943849265575409
2024-12-07 20:24:14.473521200,7.598521240234375,-0.3841774463653564,-0.2999563217163086,-0.3028607070446014
2024-12-07 20:24:14.483535400,7.608535400390625,-0.3635534346103668,-0.3028396666049957,-0.323372483253479
2024-12-07 20:24:14.493549300,7.61854931640625,-0.3293885290622711,-0.2752439975738525,-0.3383066952228546
2024-12-07 20:24:14.503563300,7.628563232421875,-0.3054412603378296,-0.2321005016565323,-0.3373411893844604
2024-12-07 20:24:14.513576200,7.638576171875,-0.2951377332210541,-0.1980048418045044,-0.3160028755664825
2024-12-07 20:24:14.523590400,7.64859033203125,-0.2884861528873443,-0.1826152950525283,-0.2804662883281708
2024-12-07 20:24:14.533604000,7.65860400390625,-0.2743855118751526,-0.1858329325914383,-0.2349025458097458
2024-12-07 20:24:14.543617300,7.6686171875,-0.2524730265140533,-0.189834862947464,-0.1855962425470352
2024-12-07 20:24:14.553631200,7.67863134765625,-0.2194932401180267,-0.1674864143133163,-0.1410586088895797
2024-12-07 20:24:14.563645200,7.688645263671875,-0.1855509877204895,-0.1313071697950363,-0.110582411289215
2024-12-07 20:24:14.573659100,7.6986591796875,-0.1508654356002807,-0.0884118974208831,-0.10079076141119
2024-12-07 20:24:14.583672300,7.70867236328125,-0.1310329735279083,-0.0238130688667297,-0.0940164178609848
2024-12-07 20:24:14.593686300,7.718686279296875,-0.119668997824192,0.084093689918518,-0.0727737098932266
2024-12-07 20:24:14.603700200,7.7287001953125,-0.1095927134156227,0.2511908411979675,-0.0345316417515277
2024-12-07 20:24:14.613714200,7.738714111328125,-0.083656720817089,0.4053040146827698,0.0409026592969894
2024-12-07 20:24:14.623727400,7.748727294921875,-0.0291008874773979,0.4983219504356384,0.1845224648714065
2024-12-07 20:24:14.633741000,7.758740966796875,0.0637286528944969,0.5008226633071899,0.3953896760940552
2024-12-07 20:24:14.643755300,7.76875537109375,0.2127522230148315,0.4657323658466339,0.6326642632484436
2024-12-07 20:24:14.653768400,7.7787685546875,0.4524314105510711,0.4304553270339966,0.8203548192977905
2024-12-07 20:24:14.663781600,7.78878173828125,0.7523502707481384,0.4145675301551819,0.9405320286750792
2024-12-07 20:24:14.673795600,7.798795654296875,1.0385210514068604,0.5362295508384705,1.0145213603973389
2024-12-07 20:24:14.683809500,7.8088095703125,1.2842401266098022,0.9088090062141418,1.0532959699630735
2024-12-07 20:24:14.693822700,7.81882275390625,1.486276149749756,1.491613507270813,1.084245681762695
2024-12-07 20:24:14.703836400,7.82883642578125,1.64696204662323,2.0438685417175293,1.1085915565490725
2024-12-07 20:24:14.713850600,7.8388505859375,1.7169519662857056,2.241152763366699,1.1204407215118408
2024-12-07 20:24:14.723864600,7.848864501953125,1.664810299873352,1.933456301689148,1.1165812015533447
2024-12-07 20:24:14.733877500,7.85887744140625,1.4863667488098145,1.1373591423034668,1.0511471033096311
2024-12-07 20:24:14.743891500,7.868891357421875,1.2245272397994995,0.0682308226823806,0.8379899263381958
2024-12-07 20:24:14.753905400,7.878905517578125,0.9205693006515504,-0.8012872934341431,0.5357632040977478
2024-12-07 20:24:14.763919600,7.888919677734375,0.6696922183036804,-1.3743414878845217,0.260718286037445
2024-12-07 20:24:14.773932500,7.8989326171875,0.5260623693466187,-1.5873470306396484,0.1648604571819305
2024-12-07 20:24:14.783946500,7.908946533203125,0.5049759149551392,-1.3585107326507568,0.3884541988372803
2024-12-07 20:24:14.793960400,7.91896044921875,0.5070728659629822,-0.9955373406410216,0.6115511655807495
2024-12-07 20:24:14.803973400,7.928973388671875,0.4903829097747803,-0.7212483286857605,0.5265917181968689
2024-12-07 20:24:14.813987600,7.938987548828125,0.4746931791305542,-0.5282058715820312,0.2878982126712799
2024-12-07 20:24:14.824001500,7.94900146484375,0.4956719875335693,-0.402066558599472,0.0777449011802673
2024-12-07 20:24:14.834015500,7.959015380859375,0.5471594333648682,-0.3097097277641296,-0.0207079015672206
2024-12-07 20:24:14.844028400,7.9690283203125,0.591042160987854,-0.2987489998340606,-0.0433218218386173
2024-12-07 20:24:14.854042600,7.979042724609375,0.598053514957428,-0.3456384837627411,-0.0403380170464515
2024-12-07 20:24:14.864056600,7.989056640625,0.5731142163276672,-0.3788127899169922,-0.0312664359807968
2024-12-07 20:24:14.874070500,7.999070556640625,0.5155819654464722,-0.3754950165748596,-0.0166829638183116
2024-12-07 20:24:14.884083500,8.00908349609375,0.442439317703247,-0.3698332607746124,0.0170426424592733
2024-12-07 20:24:14.894097700,8.01909765625,0.3736051023006439,-0.3892000317573547,0.0837748050689697
2024-12-07 20:24:14.904111600,8.029111572265625,0.3255223035812378,-0.4495927691459656,0.1561016738414764
2024-12-07 20:24:14.914124500,8.03912451171875,0.3017503917217254,-0.5557866096496582,0.2031775712966919
2024-12-07 20:24:14.924138500,8.049138427734375,0.2832662463188171,-0.6960563659667969,0.2259434759616851
2024-12-07 20:24:14.934152700,8.059152587890624,0.2674207091331482,-0.7989441752433777,0.2282417863607406
2024-12-07 20:24:14.944166400,8.06916650390625,0.2490962147712707,-0.7947934865951538,0.2047407329082489
2024-12-07 20:24:14.954179600,8.0791796875,0.2309185415506363,-0.7055464386940002,0.1409558951854705
2024-12-07 20:24:14.964193500,8.089193603515625,0.207546591758728,-0.5952620506286621,0.024549389258027
2024-12-07 20:24:14.974207700,8.099207763671876,0.18614062666893,-0.5063601136207581,-0.0692972093820571
2024-12-07 20:24:14.984221400,8.109221435546875,0.1621115058660507,-0.4691616594791412,-0.1082828789949417
2024-12-07 20:24:14.994234600,8.119234619140625,0.1195528656244278,-0.4759676158428192,-0.1282435357570648
2024-12-07 20:24:15.004248600,8.12924853515625,0.0570840649306774,-0.4606751501560211,-0.1418876051902771
2024-12-07 20:24:15.014262500,8.139262451171875,0.020831786096096,-0.4138272404670715,-0.1289803236722946
2024-12-07 20:24:15.024275500,8.149275390625,0.0395009517669677,-0.3931061029434204,-0.1093754470348358
2024-12-07 20:24:15.034289700,8.15928955078125,0.0970590487122535,-0.4101772308349609,-0.1213194504380226
2024-12-07 20:24:15.044303400,8.169303466796874,0.152312234044075,-0.3746688663959503,-0.1615833491086959
2024-12-07 20:24:15.054317600,8.179317626953125,0.1771012097597122,-0.2948043942451477,-0.1951748728752136
2024-12-07 20:24:15.064330500,8.18933056640625,0.1563670635223388,-0.277849018573761,-0.2276139855384826
2024-12-07 20:24:15.074344700,8.1993447265625,0.1119114533066749,-0.30766361951828,-0.260542631149292
2024-12-07 20:24:15.084358400,8.2093583984375,0.0695625692605972,-0.317454993724823,-0.3036665618419647
2024-12-07 20:24:15.094372600,8.21937255859375,0.0435685217380523,-0.3278546333312988,-0.36640664935112
2024-12-07 20:24:15.104385500,8.229385498046875,0.0616444200277328,-0.2104730904102325,-0.429709792137146
2024-12-07 20:24:15.114399500,8.2393994140625,0.133317545056343,0.1013210192322731,-0.4869272708892822
2024-12-07 20:24:15.124413400,8.249413330078125,0.2149839103221893,0.3286876678466797,-0.5950681567192078
2024-12-07 20:24:15.134426600,8.259426513671874,0.1964517682790756,0.2771584093570709,-0.6759531497955322
2024-12-07 20:24:15.144440300,8.2694404296875,-0.0634291619062423,0.0519271753728389,-0.5982629656791687
2024-12-07 20:24:15.154454500,8.27945458984375,-0.4174434244632721,-0.0306931361556053,-0.4219465851783752
2024-12-07 20:24:15.164468500,8.289468505859375,-0.500149130821228,0.1191553026437759,-0.2547146677970886
2024-12-07 20:24:15.174481700,8.299481689453126,-0.1002818495035171,-0.0405528731644153,-0.0382214859127998
2024-12-07 20:24:15.184495400,8.309495361328125,0.6677094101905823,-0.4700006544589996,0.081458956003189
2024-12-07 20:24:15.194509600,8.319509521484376,0.8990968465805054,-0.8537341952323914,0.4734464585781097
2024-12-07 20:24:15.204523500,8.3295234375,0.5395576357841492,-1.1631542444229126,0.88423091173172
2024-12-07 20:24:15.214536400,8.339536376953125,0.0298059731721878,-1.0185868740081787,0.8499714732170105
2024-12-07 20:24:15.224550400,8.34955029296875,-0.4055562615394592,-0.3870963752269745,0.2997277081012726
2024-12-07 20:24:15.234564600,8.359564697265625,-0.6855661273002625,0.36617311835289,-0.4578755795955658
2024-12-07 20:24:15.244577500,8.36957763671875,-0.8059303760528564,0.7968543171882629,-1.0309040546417236
2024-12-07 20:24:15.254591500,8.379591552734375,-0.8247190117835999,0.8833005428314209,-1.2411657571792605
2024-12-07 20:24:15.264605400,8.38960546875,-0.7501444220542908,0.7351548671722412,-1.1804358959197998
2024-12-07 20:24:15.274619600,8.39961962890625,-0.6161666512489319,0.4216530919075012,-0.9406795501708984
2024-12-07 20:24:15.284632300,8.40963232421875,-0.4549853801727295,0.0519533157348632,-0.5976768136024475
2024-12-07 20:24:15.294646500,8.419646484375,-0.2851761281490326,-0.2006054371595382,-0.2829382717609405
2024-12-07 20:24:15.304660500,8.429660400390626,-0.2074952125549316,-0.2027478367090225,-0.1804243326187133
2024-12-07 20:24:15.314674700,8.4396748046875,-0.3179215788841247,-0.1870106756687164,-0.2806023359298706
2024-12-07 20:24:15.324687400,8.449687255859375,-0.439189076423645,-0.2654248774051666,-0.3885994851589203
2024-12-07 20:24:15.334701600,8.45970166015625,-0.490591287612915,-0.2757933437824249,-0.4139919281005859
2024-12-07 20:24:15.344715500,8.469715576171875,-0.5019623041152954,-0.1522623300552368,-0.3749621212482452
2024-12-07 20:24:15.354729500,8.4797294921875,-0.4749903380870819,0.0404685027897357,-0.3332551419734955
2024-12-07 20:24:15.364742400,8.489742431640625,-0.4328851699829101,0.2383284121751785,-0.3173827826976776
2024-12-07 20:24:15.374756600,8.499756591796874,-0.4016255140304565,0.3825109004974365,-0.320796400308609
2024-12-07 20:24:15.384770600,8.5097705078125,-0.3767663240432739,0.4508054852485657,-0.3092515766620636
2024-12-07 20:24:15.394783500,8.519783447265626,-0.3443593680858612,0.4497018754482269,-0.2810367345809936
2024-12-07 20:24:15.404797400,8.52979736328125,-0.3176603317260742,0.4547959566116333,-0.2662305235862732
2024-12-07 20:24:15.414811600,8.539811767578126,-0.2872872352600097,0.4667644798755646,-0.2584628760814667
2024-12-07 20:24:15.424825300,8.549825439453125,-0.2670202851295471,0.4711737036705017,-0.2585013508796692
2024-12-07 20:24:15.434838500,8.559838623046875,-0.283246099948883,0.4309887290000915,-0.2662271857261657
2024-12-07 20:24:15.444852500,8.5698525390625,-0.3287910223007202,0.3386274576187134,-0.2744543850421905
2024-12-07 20:24:15.454866700,8.57986669921875,-0.3812273144721985,0.2476621568202972,-0.274120956659317
2024-12-07 20:24:15.464880400,8.58988037109375,-0.4130514562129974,0.1822727918624878,-0.2635712623596191
2024-12-07 20:24:15.474893600,8.5998935546875,-0.4193841814994812,0.1369330137968063,-0.2442838549613952
2024-12-07 20:24:15.484907500,8.609907470703124,-0.405602216720581,0.090691402554512,-0.2309612333774566
2024-12-07 20:24:15.494921500,8.61992138671875,-0.3809069693088531,0.0400340855121612,-0.2274791449308395
2024-12-07 20:24:15.504934700,8.6299345703125,-0.3632632791996002,0.0039126239717006,-0.2163082957267761
2024-12-07 20:24:15.514948600,8.639948486328125,-0.3574967384338379,-0.0083544282242655,-0.1963167488574981
2024-12-07 20:24:15.524962300,8.64996240234375,-0.3618389368057251,0.0123660154640674,-0.1790255010128021
2024-12-07 20:24:15.534976500,8.6599765625,-0.3688609004020691,0.0284847989678382,-0.1684133410453796
2024-12-07 20:24:15.544989700,8.66998974609375,-0.3756300806999206,0.0393973514437675,-0.1707435697317123
2024-12-07 20:24:15.555003600,8.680003662109375,-0.3773858845233917,0.0418541170656681,-0.1855065375566482
2024-12-07 20:24:15.565017300,8.690017333984375,-0.3862750828266144,0.0077500147745013,-0.206566721200943
2024-12-07 20:24:15.575031600,8.700031494140624,-0.3901957869529724,-0.0641587972640991,-0.2258477360010147
2024-12-07 20:24:15.585044700,8.710044677734375,-0.39366215467453,-0.1380356848239898,-0.2304688543081283
2024-12-07 20:24:15.595058400,8.720058349609374,-0.3997434973716736,-0.2003722935914993,-0.2200433760881424
2024-12-07 20:24:15.605072400,8.730072265625,-0.405804842710495,-0.2629252076148987,-0.1941651254892349
2024-12-07 20:24:15.615085600,8.74008544921875,-0.4122810959815979,-0.3049501776695251,-0.1668413579463958
2024-12-07 20:24:15.625099500,8.750099609375,-0.4100594222545624,-0.32757768034935,-0.1529849022626876
2024-12-07 20:24:15.635113500,8.760113525390626,-0.4007178544998169,-0.3452171087265014,-0.1489773690700531
2024-12-07 20:24:15.645127400,8.77012744140625,-0.4026576280593872,-0.3628524243831634,-0.1576403975486755
2024-12-07 20:24:15.655140600,8.780140625,-0.4149001538753509,-0.3736816346645355,-0.1701692342758178
2024-12-07 20:24:15.665154800,8.79015478515625,-0.4346114099025726,-0.3729881644248962,-0.1904170960187912
2024-12-07 20:24:15.675168800,8.800168701171875,-0.4670593440532684,-0.3612843751907348,-0.2199219912290573
2024-12-07 20:24:15.685182500,8.810182373046874,-0.4954500794410705,-0.3354468643665313,-0.2614615857601166
2024-12-07 20:24:15.695195600,8.820195556640625,-0.5176653861999512,-0.3045248985290527,-0.3099971711635589
2024-12-07 20:24:15.705209900,8.8302099609375,-0.5300527811050415,-0.2752245962619781,-0.3411785066127777
2024-12-07 20:24:15.715223600,8.8402236328125,-0.5267818570137024,-0.2436922192573547,-0.3424317836761474
2024-12-07 20:24:15.725236700,8.85023681640625,-0.4967427253723144,-0.2241659164428711,-0.3157300353050232
2024-12-07 20:24:15.735250700,8.860250732421875,-0.4328178167343139,-0.2482443749904632,-0.2666346728801727
2024-12-07 20:24:15.745265000,8.870264892578126,-0.337244302034378,-0.288385272026062,-0.2222917377948761
2024-12-07 20:24:15.755278600,8.880278564453125,-0.2311708480119705,-0.298275738954544,-0.1885928958654403
2024-12-07 20:24:15.765291800,8.890291748046875,-0.1411210745573043,-0.245287224650383,-0.1636902540922165
2024-12-07 20:24:15.775305700,8.9003056640625,-0.0681579187512397,-0.1406231373548507,-0.1427199840545654
2024-12-07 20:24:15.785319700,8.910319580078125,-0.0110125131905078,-0.0089450199156999,-0.1264562159776687
2024-12-07 20:24:15.795333600,8.920333740234375,0.0312470588833093,0.1117891147732734,-0.1110447645187377
2024-12-07 20:24:15.805346800,8.930346923828125,0.0628571808338165,0.2088854759931564,-0.1121176704764366
2024-12-07 20:24:15.815360500,8.940360595703124,0.0697790011763572,0.2780948877334595,-0.1210808083415031
2024-12-07 20:24:15.825374700,8.950374755859375,0.0477230139076709,0.3912542164325714,-0.1261114329099655
2024-12-07 20:24:15.835388700,8.960388671875,0.0588275976479053,2.019170999526977,0.0806824937462806
2024-12-07 20:24:15.845401900,8.97040185546875,0.0909989327192306,1.510459542274475,-0.0378107875585556
2024-12-07 20:24:15.855415600,8.98041552734375,-0.0397606752812862,1.6718900203704834,-0.0906585603952407
2024-12-07 20:24:15.865429800,8.9904296875,-0.112956054508686,1.3532028198242188,-0.0816990211606025
2024-12-07 20:24:15.875442700,9.000442626953125,-0.0788910314440727,0.8745070099830627,0.2370547354221344
2024-12-07 20:24:15.885456600,9.01045654296875,-0.3423016369342804,0.7549376487731934,0.0474465377628803
2024-12-07 20:24:15.895470600,9.020470703125,-0.5753047466278076,0.4603451490402221,-0.1779319941997528
2024-12-07 20:24:15.905484800,9.03048486328125,-0.5876744985580444,0.0932395607233047,-0.2601638734340668
2024-12-07 20:24:15.915497500,9.04049755859375,-0.4906864464282989,-0.1100097000598907,-0.2289119213819503
2024-12-07 20:24:15.925511700,9.05051171875,-0.4131617546081543,-0.0688983350992202,-0.1330083608627319
2024-12-07 20:24:15.935525600,9.060525634765623,-0.359984278678894,0.0955119132995605,-0.0517952591180801
2024-12-07 20:24:15.945538800,9.070538818359376,-0.3065330982208252,0.2136020362377166,-0.0159661881625652
2024-12-07 20:24:15.955552500,9.080552490234377,-0.2411202788352966,0.2675728797912597,-0.0119549352675676
2024-12-07 20:24:15.965566700,9.090566650390626,-0.1695239096879959,0.2741171419620514,-0.0267835892736911
2024-12-07 20:24:15.975580700,9.10058056640625,-0.0897076427936554,0.2806903719902038,-0.0375725850462913
2024-12-07 20:24:15.985593600,9.110593505859375,0.0030374354682862,0.3055493533611297,-0.0226580779999494
2024-12-07 20:24:15.995607600,9.120607666015625,0.1144792810082435,0.3026691377162933,0.0320078283548355
2024-12-07 20:24:16.005621800,9.130621826171875,0.2474069744348526,0.2481229752302169,0.1287979036569595
2024-12-07 20:24:16.015635700,9.1406357421875,0.4083686769008636,0.1451257467269897,0.2458986937999725
2024-12-07 20:24:16.025648600,9.150648681640623,0.6002810001373291,0.0538664758205413,0.3706973493099212
2024-12-07 20:24:16.035662600,9.16066259765625,0.7655943632125854,0.0565006099641323,0.4927771985530853
2024-12-07 20:24:16.045676800,9.1706767578125,0.8725124001502991,0.0943348333239555,0.5945436358451843
2024-12-07 20:24:16.055689500,9.180689453125,0.9498245120048524,0.1451958864927292,0.6873680949211121
2024-12-07 20:24:16.065703700,9.19070361328125,0.9961503744125366,0.2703420519828796,0.8296875953674316
2024-12-07 20:24:16.075717600,9.200717529296876,0.9959439635276794,0.4798579812049866,1.076276421546936
2024-12-07 20:24:16.085731800,9.21073193359375,0.992759644985199,0.8137658834457397,1.383992314338684
2024-12-07 20:24:16.095744500,9.22074462890625,1.0337640047073364,1.2666561603546145,1.6392297744750977
2024-12-07 20:24:16.105758700,9.2307587890625,1.104888081550598,1.6864972114562988,1.733589768409729
2024-12-07 20:24:16.115772700,9.240772705078124,1.1430572271347046,1.8637571334838867,1.632416009902954
2024-12-07 20:24:16.125786600,9.25078662109375,1.115968942642212,1.701935887336731,1.4684158563613892
2024-12-07 20:24:16.135799600,9.260799560546875,1.0081969499588013,1.1676025390625,1.3063329458236694
2024-12-07 20:24:16.145813800,9.270813720703124,0.8458805084228516,0.3220276534557342,1.0325886011123655
2024-12-07 20:24:16.155827700,9.28082763671875,0.6577015519142151,-0.4364765882492065,0.7029150724411011
2024-12-07 20:24:16.165841700,9.290841552734374,0.4621822535991668,-0.8373366594314575,0.4577741920948028
2024-12-07 20:24:16.175854600,9.3008544921875,0.2731159329414367,-0.9909566044807434,0.3453720211982727
2024-12-07 20:24:16.185868800,9.310868896484376,0.1732967346906662,-1.0437934398651123,0.4097375571727752
2024-12-07 20:24:16.195882500,9.320882568359377,0.2223937064409256,-1.0034966468811035,0.58111172914505
2024-12-07 20:24:16.205895700,9.330895751953124,0.316713273525238,-0.8964552879333496,0.718878984451294
2024-12-07 20:24:16.215909600,9.34090966796875,0.4089270830154419,-0.7860605716705322,0.7223069667816162
2024-12-07 20:24:16.225923600,9.350923583984375,0.4920508861541748,-0.6331057548522949,0.6117022037506104
2024-12-07 20:24:16.235937500,9.3609375,0.5961275100708008,-0.4417182207107544,0.4536087214946747
2024-12-07 20:24:16.245950700,9.37095068359375,0.6862990856170654,-0.2717114984989166,0.3122052252292633
2024-12-07 20:24:16.255964700,9.380964599609374,0.7360607981681824,-0.1777399778366089,0.2187357246875763
2024-12-07 20:24:16.265978600,9.390978515625,0.7378954291343689,-0.1648115664720535,0.1715665757656097
2024-12-07 20:24:16.275992600,9.40099267578125,0.7110598683357239,-0.2304795235395431,0.1347001641988754
2024-12-07 20:24:16.286005800,9.411005859375,0.6804018020629883,-0.3082496225833893,0.0857461616396904
2024-12-07 20:24:16.296019500,9.42101953125,0.6672745943069458,-0.3897681832313537,0.0371538549661636
2024-12-07 20:24:16.306033700,9.43103369140625,0.6341274380683899,-0.4538401961326599,0.0303434077650308
2024-12-07 20:24:16.316046600,9.441046630859375,0.579882025718689,-0.50507652759552,0.0560841932892799
2024-12-07 20:24:16.326060800,9.451060791015625,0.5366259217262268,-0.5319547653198242,0.0856801643967628
2024-12-07 20:24:16.336074500,9.461074462890624,0.505983829498291,-0.5554872155189514,0.1037691533565521
2024-12-07 20:24:16.346088700,9.471088623046874,0.4932404458522796,-0.5693839192390442,0.0950706377625465
2024-12-07 20:24:16.356101600,9.4811015625,0.48260298371315,-0.5069347023963928,0.0789356157183647
2024-12-07 20:24:16.366115600,9.491115478515624,0.4481208920478821,-0.4311078488826751,0.0593248941004276
2024-12-07 20:24:16.376129500,9.501129638671877,0.388193130493164,-0.3825302124023437,0.0503788031637668
2024-12-07 20:24:16.386143700,9.511143798828124,0.3098372519016266,-0.3642792403697967,0.0310278479009866
2024-12-07 20:24:16.396156700,9.52115673828125,0.2284973710775375,-0.3908796906471252,0.0021860797423869
2024-12-07 20:24:16.406170600,9.531170654296876,0.1671349853277206,-0.4535964727401733,-0.001086997333914
2024-12-07 20:24:16.416184600,9.5411845703125,0.1426959484815597,-0.5370594263076782,0.0070297848433256
2024-12-07 20:24:16.426197800,9.55119775390625,0.1610404253005981,-0.5438162684440613,-0.0101380310952663
2024-12-07 20:24:16.436211700,9.561211669921876,0.2111997306346893,-0.4841087758541107,-0.0567428171634674
2024-12-07 20:24:16.446225700,9.5712255859375,0.278089165687561,-0.3868395090103149,-0.1187386512756347
2024-12-07 20:24:16.456239600,9.581239501953124,0.346007764339447,-0.2305851876735687,-0.1770008951425552
2024-12-07 20:24:16.466252500,9.59125244140625,0.3828440010547638,-0.1039624139666557,-0.2222553640604019
2024-12-07 20:24:16.476266500,9.6012666015625,0.3799217343330383,-0.0437693819403648,-0.2815037667751312
2024-12-07 20:24:16.486280700,9.61128076171875,0.3444509506225586,0.0177727360278368,-0.3547644019126892
2024-12-07 20:24:16.496294700,9.621294677734374,0.2965348362922668,0.1057571843266487,-0.3942479193210602
2024-12-07 20:24:16.506307600,9.6313076171875,0.2675724625587463,0.2094281166791916,-0.4119485318660736
2024-12-07 20:24:16.516321500,9.641321533203126,0.2683956325054168,0.3358768820762634,-0.4668168425559997
2024-12-07 20:24:16.526335700,9.651335693359377,0.3079124391078949,0.4015456736087799,-0.568851113319397
2024-12-07 20:24:16.536349400,9.661349365234376,0.3483828902244568,0.2924812436103821,-0.6537026166915894
2024-12-07 20:24:16.546362600,9.671362548828125,0.3267737030982971,0.0469400435686111,-0.6666771769523621
2024-12-07 20:24:16.556376600,9.68137646484375,0.2095959335565567,-0.2886597812175751,-0.6025147438049316
2024-12-07 20:24:16.566390800,9.691390869140625,-0.0454308092594146,-0.6403306722640991,-0.5035685896873474
2024-12-07 20:24:16.576403700,9.70140380859375,-0.4813274145126343,-0.8664087653160095,-0.3707076907157898
2024-12-07 20:24:16.586417700,9.711417724609374,-0.8156539797782898,-0.7101660370826721,-0.2399684637784958
2024-12-07 20:24:16.596431600,9.721431640625,-0.624203085899353,-0.1667719781398773,-0.2264270931482315
2024-12-07 20:24:16.606445600,9.731445556640624,0.049643151462078,0.1116412431001663,-0.4146895110607147
2024-12-07 20:24:16.616458800,9.741458740234377,0.5784475803375244,0.0460300147533416,-0.4390798211097717
2024-12-07 20:24:16.626472700,9.75147265625,0.3779124617576599,-0.6734935641288757,0.272618681192398
2024-12-07 20:24:16.636486700,9.761486572265625,-0.097092404961586,-1.2129639387130735,0.8052732348442078
2024-12-07 20:24:16.646499600,9.77149951171875,-0.5429854393005371,-0.9862889051437378,0.6843158602714539
2024-12-07 20:24:16.656514000,9.78151416015625,-0.7929862141609192,-0.2910214364528656,0.1296742409467697
2024-12-07 20:24:16.666528300,9.7915283203125,-0.8164694309234619,0.3083928227424621,-0.5182667970657349
2024-12-07 20:24:16.676542200,9.801542236328125,-0.7266561985015869,0.4668495655059814,-1.0097888708114624
2024-12-07 20:24:16.686555400,9.811555419921875,-0.7060801386833191,0.3873451054096222,-1.233486890792847
2024-12-07 20:24:16.696569000,9.821569091796874,-0.7226787805557251,0.1910932809114456,-1.1981185674667358
2024-12-07 20:24:16.706583300,9.831583251953123,-0.6394497752189636,-0.0457328185439109,-0.9301297664642334
2024-12-07 20:24:16.716597200,9.84159716796875,-0.456330806016922,-0.2257755547761917,-0.5587548613548279
2024-12-07 20:24:16.726610200,9.851610107421877,-0.3064342141151428,-0.3033699691295624,-0.3454180955886841
2024-12-07 20:24:16.736624000,9.8616240234375,-0.3245629072189331,-0.3515755832195282,-0.3724215030670166
2024-12-07 20:24:16.746638300,9.871638427734377,-0.4083341360092163,-0.3966146111488342,-0.4370571970939636
2024-12-07 20:24:16.756652300,9.88165234375,-0.452140748500824,-0.372719407081604,-0.4186281263828277
2024-12-07 20:24:16.766665200,9.891665283203125,-0.4672396183013916,-0.2685900926589966,-0.3295291662216186
2024-12-07 20:24:16.776679200,9.90167919921875,-0.4479135870933532,-0.0653248578310012,-0.2137450575828552
2024-12-07 20:24:16.786693400,9.911693359375,-0.3850097954273224,0.2281790077686309,-0.1455775648355484
2024-12-07 20:24:16.796706300,9.921706298828123,-0.3004035651683807,0.502501904964447,-0.1638540476560592
2024-12-07 20:24:16.806720300,9.93172021484375,-0.2341655790805816,0.7085234522819519,-0.244352251291275
2024-12-07 20:24:16.816734200,9.941734130859375,-0.1867384016513824,0.8259672522544861,-0.3039900064468384
2024-12-07 20:24:16.826748400,9.95174853515625,-0.1588968783617019,0.8276528716087341,-0.3125947415828705
2024-12-07 20:24:16.836761300,9.96176123046875,-0.1585581302642822,0.7773633599281311,-0.3129720985889435
2024-12-07 20:24:16.846775300,9.971775390625,-0.1971577852964401,0.7030813097953796,-0.3460850417613983
2024-12-07 20:24:16.856789200,9.981789306640623,-0.2704719603061676,0.5455049872398376,-0.3888495564460754
2024-12-07 20:24:16.866803200,9.99180322265625,-0.3612752854824066,0.303631067276001,-0.3983062505722046
2024-12-07 20:24:16.876816400,10.00181640625,-0.446688711643219,0.0584703087806701,-0.3924406468868255
2024-12-07 20:24:16.886830300,10.011830322265626,-0.4960931837558746,-0.0990741699934005,-0.3788639008998871
2024-12-07 20:24:16.896844300,10.02184423828125,-0.4864448308944702,-0.1476587504148483,-0.3473262190818786
2024-12-07 20:24:16.906857200,10.031857177734375,-0.4182228744029999,-0.1139154955744743,-0.2938328683376312
2024-12-07 20:24:16.916871400,10.041871337890624,-0.3214582502841949,-0.0619423054158687,-0.2327599227428436
2024-12-07 20:24:16.926885400,10.051885498046875,-0.2567961812019348,-0.0080830659717321,-0.1797712743282318
2024-12-07 20:24:16.936899000,10.061899169921874,-0.2609379291534424,0.0360058322548866,-0.1629771143198013
2024-12-07 20:24:16.946912300,10.071912353515623,-0.3017989993095398,0.0745566114783287,-0.1640400886535644
2024-12-07 20:24:16.956926500,10.081926513671876,-0.3443240821361542,0.1154696941375732,-0.1693102121353149
2024-12-07 20:24:16.966940200,10.091940185546877,-0.3752598464488983,0.13408263027668,-0.1788925975561142
2024-12-07 20:24:16.976954000,10.1019541015625,-0.3941949307918548,0.1330463886260986,-0.1792939305305481
2024-12-07 20:24:16.986967300,10.11196728515625,-0.3945308923721313,0.1420955657958984,-0.164445623755455
2024-12-07 20:24:16.996981500,10.1219814453125,-0.3682337701320648,0.1391274780035019,-0.1422657519578933
2024-12-07 20:24:17.006995200,10.1319951171875,-0.3183265030384063,0.1012554913759231,-0.1242357864975929
2024-12-07 20:24:17.017008400,10.14200830078125,-0.2583569288253784,0.0569157227873802,-0.1108376830816268
2024-12-07 20:24:17.027022300,10.152022216796874,-0.1996965408325195,0.0434353351593017,-0.0894626230001449
2024-12-07 20:24:17.037036300,10.162036376953123,-0.1600822806358337,0.0334154590964317,-0.0675120502710342
2024-12-07 20:24:17.047050200,10.17205029296875,-0.1391321271657943,0.0012051848461851,-0.0497964546084404
2024-12-07 20:24:17.057063400,10.1820634765625,-0.1203653812408447,-0.041016835719347,-0.0472997389733791
2024-12-07 20:24:17.067077400,10.192077392578126,-0.1085835546255111,-0.0633993744850158,-0.055206399410963
2024-12-07 20:24:17.077091300,10.20209130859375,-0.116658791899681,-0.0572757013142108,-0.064370073378086
2024-12-07 20:24:17.087105300,10.212105224609376,-0.1419268548488617,-0.0294639337807893,-0.0721609741449356
2024-12-07 20:24:17.097118500,10.222118408203125,-0.1774606257677078,0.0196189247071743,-0.0649209022521972
2024-12-07 20:24:17.107132200,10.232132080078124,-0.2111114710569381,0.0626773312687873,-0.055602066218853
2024-12-07 20:24:17.117146400,10.242146484375,-0.2325861454010009,0.0782003700733184,-0.0495945066213607
2024-12-07 20:24:17.127159300,10.2521591796875,-0.2323788255453109,0.0737053453922271,-0.0540305562317371
2024-12-07 20:24:17.137173200,10.26217333984375,-0.2187343835830688,0.0477658882737159,-0.0559328533709049
2024-12-07 20:24:17.147187200,10.272187255859375,-0.1975092589855194,0.0302462838590145,-0.0704843699932098
2024-12-07 20:24:17.157201400,10.282201416015624,-0.1671894341707229,0.0353086851537227,-0.1040292754769325
2024-12-07 20:24:17.167214300,10.29221435546875,-0.1496011167764663,0.0660161525011062,-0.1493495255708694
2024-12-07 20:24:17.177228300,10.302228271484376,-0.162011444568634,0.1327587068080902,-0.189128890633583
2024-12-07 20:24:17.187242200,10.3122421875,-0.19592946767807,0.2088494896888733,-0.2001639306545257
2024-12-07 20:24:17.197256400,10.32225634765625,-0.2198315858840942,0.2692321240901947,-0.169748768210411
2024-12-07 20:24:17.207269000,10.33226904296875,-0.1994075030088424,0.2768782079219818,-0.1319511979818344
2024-12-07 20:24:17.217283300,10.342283447265626,-0.1376277506351471,0.2789592146873474,-0.1095188558101654
2024-12-07 20:24:17.227297300,10.35229736328125,-0.0731777474284172,0.2640508711338043,-0.1122124567627906
2024-12-07 20:24:17.237310200,10.362310302734375,-0.0435884296894073,0.2691588103771209,-0.1239175722002983
2024-12-07 20:24:17.247324200,10.37232421875,-0.0463340654969215,0.2738345861434936,-0.1473661959171295
2024-12-07 20:24:17.257338400,10.38233837890625,-0.0787242352962493,0.2908828258514404,-0.1618849486112594
2024-12-07 20:24:17.267352300,10.392352294921874,-0.1291076838970184,0.3165072500705719,-0.1542772799730301
2024-12-07 20:24:17.277365200,10.402365234375,-0.1874868273735046,0.366519570350647,-0.1150063201785087
2024-12-07 20:24:17.287379200,10.412379150390626,-0.2417823523283004,0.3747424483299255,-0.0609299726784229
2024-12-07 20:24:17.297393400,10.422393310546877,-0.2918532192707062,0.3832035660743713,-0.0060526099987328
2024-12-07 20:24:17.307407400,10.432407470703126,-0.3414452075958252,0.4011188149452209,0.0283050760626792
2024-12-07 20:24:17.317420300,10.442420166015625,-0.3874574303627014,0.3969195187091827,0.0303149633109569
2024-12-07 20:24:17.327434200,10.452434326171876,-0.4323892295360565,0.3945138454437256,0.0153845287859439
2024-12-07 20:24:17.337448400,10.462448486328125,-0.4763385653495788,0.453810453414917,0.0053324270993471
2024-12-07 20:24:17.347461000,10.472461181640623,-0.5050501823425293,0.5717228651046753,0.0047596786171197
2024-12-07 20:24:17.357475300,10.482475341796874,-0.5083855390548706,0.689510703086853,0.0344123803079128
2024-12-07 20:24:17.367489300,10.4924892578125,-0.4530074298381805,0.7261107563972473,0.0942026004195213
2024-12-07 20:24:17.377503500,10.50250341796875,-0.3311752676963806,0.6783051490783691,0.1833793520927429
2024-12-07 20:24:17.387516200,10.51251611328125,-0.1673485487699508,0.6012459397315979,0.2942875325679779
2024-12-07 20:24:17.397530400,10.5225302734375,0.003419199027121,0.5586207509040833,0.4260876476764679
2024-12-07 20:24:17.407544300,10.53254443359375,0.1713534593582153,0.5453830361366272,0.5447551608085632
2024-12-07 20:24:17.417558300,10.542558349609376,0.3646425008773803,0.4728571772575378,0.6095716953277588
2024-12-07 20:24:17.427571200,10.5525712890625,0.5755898356437683,0.3751551508903503,0.6429263949394226
2024-12-07 20:24:17.437585400,10.56258544921875,0.8032163381576538,0.3867252767086029,0.6968367695808411
2024-12-07 20:24:17.447599000,10.57259912109375,1.0389037132263184,0.5838788151741028,0.7694113850593567
2024-12-07 20:24:17.457612300,10.5826123046875,1.245809555053711,0.9303478002548218,0.8321467041969299
2024-12-07 20:24:17.467626200,10.592626220703124,1.3885258436203003,1.3362140655517578,0.8840154409408569
2024-12-07 20:24:17.477640400,10.602640380859375,1.4726403951644895,1.6539195775985718,0.9313661456108092
2024-12-07 20:24:17.487654100,10.612654052734374,1.5214232206344604,1.7716537714004517,0.953997015953064
2024-12-07 20:24:17.497667300,10.622667236328123,1.5348691940307615,1.635054588317871,0.940090835094452
2024-12-07 20:24:17.507681300,10.632681396484376,1.5178945064544678,1.1834989786148071,0.9804471731185912
2024-12-07 20:24:17.517695200,10.6426953125,1.4365421533584597,0.2916861474514007,1.0324331521987915
2024-12-07 20:24:17.527709200,10.652709228515626,1.2075332403182983,-0.6735896468162537,0.9212059378623962
2024-12-07 20:24:17.537722400,10.662722412109376,0.8454985618591309,-1.2250213623046875,0.624438464641571
2024-12-07 20:24:17.547736000,10.672736083984375,0.5222283601760864,-1.3624440431594849,0.2391470819711685
2024-12-07 20:24:17.557750300,10.682750244140625,0.3933979570865631,-1.179430603981018,-0.0104406373575329
2024-12-07 20:24:17.567763500,10.692763427734375,0.4109886884689331,-0.8113924264907837,0.0829455405473709
2024-12-07 20:24:17.577777400,10.70277734375,0.454967051744461,-0.6223061084747314,0.4849518239498138
2024-12-07 20:24:17.587791000,10.712791015625,0.4416514039039612,-0.8021056652069092,0.7304695844650269
2024-12-07 20:24:17.597805300,10.722805419921874,0.4174291491508484,-1.0422158241271973,0.5918768048286438
2024-12-07 20:24:17.607818200,10.732818359375,0.4321177303791046,-1.0386924743652344,0.3101093173027038
2024-12-07 20:24:17.617832200,10.742832275390626,0.434330016374588,-0.7712706327438354,0.1057194173336029
2024-12-07 20:24:17.627846100,10.75284619140625,0.423381894826889,-0.552006721496582,0.0532795786857605
2024-12-07 20:24:17.637860400,10.7628603515625,0.4114735722541809,-0.5199007391929626,0.1010747924447059
2024-12-07 20:24:17.647873300,10.772873291015625,0.3973911106586456,-0.5713831782341003,0.1565738767385482
2024-12-07 20:24:17.657888000,10.782887939453126,0.3729622066020965,-0.5612615942955017,0.1702792942523956
2024-12-07 20:24:17.667901700,10.792901611328125,0.3467251658439636,-0.5127040147781372,0.1406793296337127
2024-12-07 20:24:17.677915000,10.802914794921875,0.319427490234375,-0.4933883547782898,0.0887154787778854
2024-12-07 20:24:17.687928800,10.8129287109375,0.2885198593139648,-0.4643970429897308,0.0927339717745781
2024-12-07 20:24:17.697943000,10.822943115234375,0.2457183450460434,-0.4801357686519623,0.1366036981344223
2024-12-07 20:24:17.707956700,10.832956787109374,0.1958787143230438,-0.5088809132575989,0.1811526864767074
2024-12-07 20:24:17.717970000,10.842969970703123,0.1534103453159332,-0.5560615062713623,0.1746212840080261
2024-12-07 20:24:17.727983900,10.85298388671875,0.1339989900588989,-0.645258367061615,0.1105875372886657
2024-12-07 20:24:17.737997800,10.862997802734377,0.1318138688802719,-0.7503552436828613,0.0105030126869678
2024-12-07 20:24:17.748011800,10.87301171875,0.1352793127298355,-0.7817891836166382,-0.0933896303176879
2024-12-07 20:24:17.758025000,10.88302490234375,0.12180957198143,-0.8475967049598694,-0.194962590932846
2024-12-07 20:24:17.768038700,10.89303857421875,0.0795053541660308,-0.9485552310943604,-0.3054847121238708
2024-12-07 20:24:17.778052900,10.903052978515625,0.00959631241858,-0.9973017573356628,-0.4296295642852783
2024-12-07 20:24:17.788065800,10.913065673828124,-0.0533543825149536,-0.9325291514396667,-0.5359993577003479
2024-12-07 20:24:17.798080000,10.923080078125,-0.0783974230289459,-0.8146243691444397,-0.6030465960502625
2024-12-07 20:24:17.808093700,10.93309375,-0.0597312748432159,-0.7291953563690186,-0.6494783759117126
2024-12-07 20:24:17.818108000,10.94310791015625,0.0037193354219198,-0.5843340158462524,-0.6607067584991455
2024-12-07 20:24:17.828120800,10.953120849609377,0.1162394881248474,-0.3527493178844452,-0.5987038612365723
2024-12-07 20:24:17.838134800,10.963134765625,0.268921434879303,-0.179155170917511,-0.5081555843353271
2024-12-07 20:24:17.848148700,10.973148681640623,0.4386489689350128,-0.0859200358390808,-0.4663378000259399
2024-12-07 20:24:17.858163000,10.983162841796876,0.6072954535484314,-0.0067208167165517,-0.4847559630870819
2024-12-07 20:24:17.868176000,10.99317578125,0.7119587659835815,-0.0003845685860142,-0.5019887685775757
2024-12-07 20:24:17.878189800,11.00318994140625,0.5566354990005493,-0.2348370254039764,-0.4586354494094848
2024-12-07 20:24:17.888203800,11.013203857421876,0.147704467177391,-0.7610011696815491,-0.2802439332008362
2024-12-07 20:24:17.898217000,11.023217041015624,-0.3544100522994995,-1.3870357275009155,-0.008667005226016
2024-12-07 20:24:17.908230700,11.033230712890624,-0.5567037463188171,-1.6223607063293457,0.1561826169490814
2024-12-07 20:24:17.918244900,11.043244873046875,-0.3984973430633545,-1.3112053871154783,0.1923057436943054
2024-12-07 20:24:17.928258800,11.0532587890625,-0.2527028024196625,-0.8136616349220276,0.0331811010837554
2024-12-07 20:24:17.938271700,11.063271728515623,-0.2572720050811767,-0.172917366027832,-0.2694498598575592
2024-12-07 20:24:17.948285700,11.07328564453125,-0.4779193997383117,0.456958919763565,-0.5754846930503845
2024-12-07 20:24:17.958300000,11.0832998046875,-0.7316344380378723,0.5732094049453735,-0.7800711393356323
2024-12-07 20:24:17.968313900,11.09331396484375,-0.8067988753318787,0.3086398243904114,-0.7531061768531799
2024-12-07 20:24:17.978326800,11.103326904296877,-0.6783871054649353,0.2172435671091079,-0.5501477718353271
2024-12-07 20:24:17.988340700,11.1133408203125,-0.4872502982616424,0.2063955515623092,-0.4035178124904632
2024-12-07 20:24:17.998355000,11.12335498046875,-0.34075728058815,0.1618219465017318,-0.3852099180221557
2024-12-07 20:24:18.008367900,11.133367919921875,-0.2589613795280456,0.1625101417303085,-0.4281091392040252
2024-12-07 20:24:18.018381800,11.1433818359375,-0.2792589366436004,0.1725928783416748,-0.4824173748493194
2024-12-07 20:24:18.028395800,11.153395751953123,-0.3700107634067535,0.0916784480214119,-0.5326527953147888
2024-12-07 20:24:18.038410000,11.163409912109374,-0.4406695067882538,0.0037291464395821,-0.566490113735199
2024-12-07 20:24:18.048423000,11.1734228515625,-0.4804697632789612,-0.0630584880709648,-0.5550593733787537
2024-12-07 20:24:18.058436900,11.183436767578126,-0.4984639286994934,-0.0942464992403984,-0.4992120862007141
2024-12-07 20:24:18.068450800,11.193450927734377,-0.4907302260398865,-0.0475654788315296,-0.4219105243682861
2024-12-07 20:24:18.078464800,11.20346484375,-0.4514054358005523,0.0619314536452293,-0.3487772047519684
2024-12-07 20:24:18.088478000,11.21347802734375,-0.3904485702514648,0.1609252989292144,-0.2878186106681824
2024-12-07 20:24:18.098492000,11.223491943359376,-0.3179520070552826,0.2267487794160843,-0.2517697811126709
2024-12-07 20:24:18.108505900,11.233505859375,-0.2403443753719329,0.330963134765625,-0.2615187168121338
2024-12-07 20:24:18.118518800,11.243518798828124,-0.190261498093605,0.4357577264308929,-0.2993435859680176
2024-12-07 20:24:18.128533000,11.253532958984374,-0.1732380837202072,0.4890664517879486,-0.3112391233444214
2024-12-07 20:24:18.138547000,11.263546875,-0.1674182713031768,0.521868884563446,-0.2865433692932129
2024-12-07 20:24:18.148560600,11.273560546875,-0.1686649918556213,0.5288932919502258,-0.2557305097579956
2024-12-07 20:24:18.158573800,11.28357373046875,-0.1763303577899933,0.4874427914619446,-0.2523102164268493
2024-12-07 20:24:18.168588000,11.293588134765624,-0.2035361528396606,0.4270478785037994,-0.2762874364852905
2024-12-07 20:24:18.178602000,11.30360205078125,-0.2628040015697479,0.3425601720809936,-0.2997219264507293
2024-12-07 20:24:18.188615000,11.313614990234376,-0.3495104312896728,0.2264114171266555,-0.3227822184562683
2024-12-07 20:24:18.198628900,11.32362890625,-0.4389447271823883,0.069957360625267,-0.3309224247932434
2024-12-07 20:24:18.208643000,11.33364306640625,-0.5192199945449829,-0.1162049248814582,-0.3254562318325043
2024-12-07 20:24:18.218656800,11.34365673828125,-0.5708887577056885,-0.2883204817771911,-0.2997537851333618
2024-12-07 20:24:18.228670000,11.353669921875,-0.5717390179634094,-0.3917663693428039,-0.2550021111965179
2024-12-07 20:24:18.238684000,11.363683837890624,-0.5148227214813232,-0.3991401195526123,-0.2106519490480423
2024-12-07 20:24:18.248697900,11.37369775390625,-0.4272529482841491,-0.3435557782649994,-0.1821150183677673
2024-12-07 20:24:18.258711800,11.3837119140625,-0.343574047088623,-0.2749477028846741,-0.1766968220472335
2024-12-07 20:24:18.268725000,11.39372509765625,-0.2919959723949432,-0.231913223862648,-0.19480562210083
