time,seconds_elapsed,z,y,x
2024-12-07 20:18:19.508819500,0.0158193359375,-0.1020854786038398,-0.0068499641492962,-0.0597618073225021
2024-12-07 20:18:19.518833400,0.02583349609375,-0.1182580590248107,-0.0112361907958984,-0.0826737806200981
2024-12-07 20:18:19.528847400,0.035847412109375,-0.1169489845633506,-0.0413551703095436,-0.091586448252201
2024-12-07 20:18:19.538861600,0.045861572265625,-0.1520878076553344,-0.0767014473676681,-0.0951787903904914
2024-12-07 20:18:19.548875500,0.05587548828125,-0.2000113427639007,-0.0953400060534477,-0.1219622492790222
2024-12-07 20:18:19.558889500,0.065889404296875,-0.2513003647327423,-0.1119802370667457,-0.1781283169984817
2024-12-07 20:18:19.568903400,0.0759033203125,-0.2876183986663818,-0.1800170540809631,-0.2501196563243866
2024-12-07 20:18:19.578917400,0.08591748046875,-0.342042475938797,-0.1775115430355072,-0.3057304620742798
2024-12-07 20:18:19.588931600,0.095931640625,-0.3841013312339782,-0.1599374711513519,-0.3469692170619964
2024-12-07 20:18:19.598945300,0.1059453125,-0.4012227952480316,-0.1680539846420288,-0.3937526941299438
2024-12-07 20:18:19.608959500,0.11595947265625,-0.4345356822013855,-0.1662066131830215,-0.4798391461372375
2024-12-07 20:18:19.618973400,0.125973388671875,-0.4836297035217285,-0.1582549512386322,-0.5987812280654907
2024-12-07 20:18:19.628987600,0.135987548828125,-0.4993727207183838,-0.2049788534641266,-0.7065761685371399
2024-12-07 20:18:19.639001600,0.146001708984375,-0.5046303272247314,-0.2949284613132477,-0.7508618831634521
2024-12-07 20:18:19.649015600,0.156015625,-0.5175835490226746,-0.3920764029026031,-0.7385318279266357
2024-12-07 20:18:19.659029500,0.166029541015625,-0.5703127980232239,-0.4842055141925812,-0.7239699363708496
2024-12-07 20:18:19.669043500,0.17604345703125,-0.7819164991378784,-0.4009241461753845,-0.8101897239685059
2024-12-07 20:18:19.679057700,0.1860576171875,-1.0341750383377075,-0.3834404945373535,-0.8877745270729065
2024-12-07 20:18:19.689071400,0.1960712890625,-1.3316267728805542,-0.4322104156017303,-0.9497931003570556
2024-12-07 20:18:19.699085600,0.20608544921875,-1.6843392848968506,-0.6168643832206726,-1.0251563787460327
2024-12-07 20:18:19.709099500,0.216099609375,-2.0296525955200195,-0.7998868227005005,-1.096800684928894
2024-12-07 20:18:19.719113500,0.226113525390625,-2.228168249130249,-0.9141204357147216,-1.122547268867493
2024-12-07 20:18:19.729127400,0.23612744140625,-2.307249069213867,-0.9786027669906616,-1.0595808029174805
2024-12-07 20:18:19.739141400,0.246141357421875,-2.283515691757202,-0.9794736504554749,-0.9012205004692078
2024-12-07 20:18:19.749155600,0.256155517578125,-2.1784989833831787,-0.969653069972992,-0.7204441428184509
2024-12-07 20:18:19.759169500,0.26616943359375,-2.0110292434692383,-0.9537465572357178,-0.5598059892654419
2024-12-07 20:18:19.769183500,0.27618359375,-1.7468161582946775,-0.7857662439346313,-0.361585259437561
2024-12-07 20:18:19.779197400,0.286197509765625,-1.4295614957809448,-0.6877081394195557,-0.2108178585767746
2024-12-07 20:18:19.789211400,0.29621142578125,-1.067350149154663,-0.5151318907737732,-0.0900978296995163
2024-12-07 20:18:19.799225600,0.3062255859375,-0.6482908129692078,-0.0533913932740688,0.0599297471344471
2024-12-07 20:18:19.809239300,0.3162392578125,-0.2540726959705353,0.508155882358551,0.2455313503742218
2024-12-07 20:18:19.819253500,0.32625341796875,-0.0141117693856358,0.6442564725875854,0.2738404870033264
2024-12-07 20:18:19.829267500,0.336267333984375,0.119326926767826,0.3458322286605835,0.1788809895515442
2024-12-07 20:18:19.839281700,0.34628173828125,0.1645758897066116,-0.0359731875360012,0.0179791916161775
2024-12-07 20:18:19.849295400,0.35629541015625,0.1503818929195404,-0.2130533754825592,-0.1225303411483764
2024-12-07 20:18:19.859309300,0.366309326171875,0.0860865265130996,-0.1735919862985611,-0.177592784166336
2024-12-07 20:18:19.869323500,0.376323486328125,0.0003949461970478,-0.0247746631503105,-0.1357538551092147
2024-12-07 20:18:19.879337500,0.38633740234375,-0.0739562436938285,0.125131219625473,-0.0236124023795127
2024-12-07 20:18:19.889351700,0.3963515625,-0.11860853433609,0.1928859949111938,0.0941412597894668
2024-12-07 20:18:19.899365400,0.406365478515625,-0.1283594369888305,0.1390640288591385,0.1344207823276519
2024-12-07 20:18:19.909379600,0.416379638671875,-0.0965369120240211,0.0673339515924453,0.0930481106042862
2024-12-07 20:18:19.919393500,0.4263935546875,-0.0027630166150629,0.0435284823179245,0.0043462081812322
2024-12-07 20:18:19.929407500,0.436407470703125,0.0525623634457588,0.1008436530828476,-0.1806793510913849
2024-12-07 20:18:19.939421400,0.44642138671875,-0.0977818742394447,0.1661717891693115,-0.4070477485656738
2024-12-07 20:18:19.949435400,0.456435302734375,-0.3648979961872101,0.0889616161584854,-0.5370723605155945
2024-12-07 20:18:19.959449600,0.46644970703125,-0.4312956631183624,0.0029998349491506,-0.53293377161026
2024-12-07 20:18:19.969467000,0.476466796875,-0.3213449120521545,-0.0663224458694458,-0.3494732081890106
2024-12-07 20:18:19.979481000,0.486481201171875,-0.1902851462364196,-0.0962004512548446,-0.1401045322418213
2024-12-07 20:18:19.989494800,0.496494873046875,-0.1243843734264373,-0.0575355887413024,0.0103656193241477
2024-12-07 20:18:19.999508700,0.5065087890625,-0.1627568006515503,-0.0471455343067646,0.0863932743668556
2024-12-07 20:18:20.009523000,0.51652294921875,-0.305052250623703,-0.0524670742452144,0.1169392988085746
2024-12-07 20:18:20.019537000,0.526536865234375,-0.5344550609588623,-0.0438096709549427,0.1395460665225982
2024-12-07 20:18:20.029550800,0.53655078125,-0.8208388686180115,-0.0046555097214877,0.1640279293060302
2024-12-07 20:18:20.039564800,0.546564697265625,-1.160552144050598,-0.0563226975500583,0.1523129492998123
2024-12-07 20:18:20.049579000,0.5565791015625,-1.3736953735351562,-0.2269936800003051,0.0928856283426284
2024-12-07 20:18:20.059593000,0.566593017578125,-1.3827613592147827,-0.4518270790576935,-0.0027775135822594
2024-12-07 20:18:20.069606700,0.576606689453125,-1.3338013887405396,-0.6984496712684631,-0.1361219137907028
2024-12-07 20:18:20.079620900,0.586620849609375,-1.325783610343933,-1.0296642780303955,-0.2815488576889038
2024-12-07 20:18:20.089634800,0.596634765625,-1.3227490186691284,-1.5308732986450195,-0.4330377578735351
2024-12-07 20:18:20.099649000,0.60664892578125,-1.2957240343093872,-1.854909420013428,-0.5023747682571411
2024-12-07 20:18:20.109662700,0.616662841796875,-1.271036982536316,-2.103285551071167,-0.5107572674751282
2024-12-07 20:18:20.119677000,0.626677001953125,-1.2669777870178225,-1.8288779258728027,-0.422035664319992
2024-12-07 20:18:20.129691000,0.63669091796875,-1.245093584060669,-1.3591924905776978,-0.2674243450164795
2024-12-07 20:18:20.139704800,0.646704833984375,-1.4064280986785889,-0.7955321073532104,-0.0745782107114791
2024-12-07 20:18:20.149718800,0.65671875,-1.514883518218994,-0.4618097841739654,0.1102007925510406
2024-12-07 20:18:20.159732700,0.666732666015625,-1.5583053827285769,-0.351371169090271,0.2180521488189697
2024-12-07 20:18:20.169747000,0.676746826171875,-1.5443460941314695,-0.4689030349254608,0.2116573601961136
2024-12-07 20:18:20.179761000,0.686760986328125,-1.5863404273986816,-0.7131420373916626,0.1089475005865097
2024-12-07 20:18:20.189775000,0.696775146484375,-1.5996381044387815,-0.9516749382019044,-0.0077499966137111
2024-12-07 20:18:20.199788800,0.706788818359375,-1.5500247478485107,-1.0117965936660769,-0.0622105784714221
2024-12-07 20:18:20.209802800,0.716802734375,-1.3965450525283811,-0.9387014508247375,-0.0185311697423458
2024-12-07 20:18:20.219817000,0.72681689453125,-1.1280536651611328,-0.7943050861358643,0.1127333790063858
2024-12-07 20:18:20.229831000,0.736830810546875,-0.7982232570648193,-0.6245090365409851,0.2885927557945251
2024-12-07 20:18:20.239843800,0.74684375,-0.4444540143013,-0.4452566802501678,0.4551660418510437
2024-12-07 20:18:20.249857800,0.75685791015625,-0.072217009961605,-0.2681681513786316,0.5419666767120361
2024-12-07 20:18:20.259872000,0.7668720703125,0.2791572511196136,-0.0782560110092163,0.4653651118278503
2024-12-07 20:18:20.269885700,0.7768857421875,0.4369012117385864,0.0854922831058502,0.3121625781059265
2024-12-07 20:18:20.279900000,0.78689990234375,0.4528168141841888,0.1345125585794448,0.212263137102127
2024-12-07 20:18:20.289913900,0.796913818359375,0.4219706654548645,0.1074870452284812,0.162366509437561
2024-12-07 20:18:20.299928000,0.806927978515625,0.1855567991733551,0.067876785993576,0.0352788716554641
2024-12-07 20:18:20.309941800,0.816941650390625,-0.1336311250925064,-0.0322654657065868,-0.1052033156156539
2024-12-07 20:18:20.319955700,0.826955810546875,-0.1862304210662841,-0.1286628395318985,-0.1168730184435844
2024-12-07 20:18:20.329970000,0.836969970703125,-0.0489652603864669,-0.1609775573015213,-0.0445847138762474
2024-12-07 20:18:20.339984000,0.84698388671875,0.0773652493953704,-0.0858652293682098,0.0313073880970478
2024-12-07 20:18:20.349997800,0.856997802734375,0.0886369124054908,-0.0032402672804892,0.0602574609220027
2024-12-07 20:18:20.360011800,0.86701171875,0.0363326929509639,0.0012394359800964,0.025570586323738
2024-12-07 20:18:20.370026000,0.87702587890625,0.0383107922971248,-0.1129810735583305,-0.0295870639383792
2024-12-07 20:18:20.380040000,0.8870400390625,0.0468238517642021,-0.2062582820653915,-0.0496590435504913
2024-12-07 20:18:20.390054000,0.897053955078125,0.0411907210946083,-0.1767692863941192,-0.0249933805316686
2024-12-07 20:18:20.400067800,0.90706787109375,0.0465996004641056,-0.1633336395025253,-0.0029325536452233
2024-12-07 20:18:20.410081800,0.917081787109375,0.0397826358675956,-0.2206305116415023,0.0020553758367896
2024-12-07 20:18:20.420096000,0.927095947265625,0.0209647398442029,-0.2524978816509247,0.0045731281861662
2024-12-07 20:18:20.430110000,0.93710986328125,0.0001684655435383,-0.2595542669296264,-0.0057957135140895
2024-12-07 20:18:20.440124000,0.9471240234375,-0.0096828332170844,-0.2519820928573608,-0.017447043210268
2024-12-07 20:18:20.450137900,0.957137939453125,-0.03641839325428,-0.1870850026607513,-0.0159002486616373
2024-12-07 20:18:20.460151800,0.96715185546875,-0.053546242415905,-0.1168712899088859,0.0045853187330067
2024-12-07 20:18:20.470166000,0.977166015625,-0.0242951493710279,-0.1047365963459014,0.0059872064739465
2024-12-07 20:18:20.480179700,0.9871796875,-0.0383063033223152,-0.0993594080209732,-0.0230092909187078
2024-12-07 20:18:20.490194000,0.99719384765625,-0.0557118318974971,-0.0912310406565666,-0.0418733470141887
2024-12-07 20:18:20.500207900,1.007207763671875,-0.0439987182617187,-0.0764315947890281,-0.0441889651119709
2024-12-07 20:18:20.510222000,1.01722216796875,-0.0225430279970169,-0.0475152730941772,-0.0523309521377086
2024-12-07 20:18:20.520235800,1.02723583984375,-0.0052974624559283,-0.0575958676636219,-0.062864288687706
2024-12-07 20:18:20.530249700,1.037249755859375,-0.0103361075744032,-0.1038128063082695,-0.0867950245738029
2024-12-07 20:18:20.540264000,1.047263916015625,-0.02708818949759,-0.121029607951641,-0.1205242276191711
2024-12-07 20:18:20.550278000,1.05727783203125,-0.0394001379609108,-0.1125756204128265,-0.1330776512622833
2024-12-07 20:18:20.560291800,1.067291748046875,-0.0566688738763332,-0.1185184642672538,-0.1141590774059295
2024-12-07 20:18:20.570305800,1.077305908203125,-0.0779195725917816,-0.123883731663227,-0.0728933438658714
2024-12-07 20:18:20.580320000,1.087320068359375,-0.0845945179462432,-0.131050556898117,-0.0288923233747482
2024-12-07 20:18:20.590334000,1.097333984375,-0.0810101926326751,-0.1334389448165893,-0.0040485635399818
2024-12-07 20:18:20.600347600,1.10734765625,-0.0619579367339611,-0.1202443093061447,-0.0055396677926182
2024-12-07 20:18:20.610361900,1.11736181640625,-0.032586719840765,-0.0871515423059463,-0.0219243708997964
2024-12-07 20:18:20.620375800,1.127375732421875,0.0064845164306461,-0.0294261910021305,-0.0379267707467079
2024-12-07 20:18:20.630390000,1.13739013671875,0.0458450987935066,0.0297725163400173,-0.0467995628714561
2024-12-07 20:18:20.640404000,1.147404052734375,0.0821272060275077,0.071581482887268,-0.0431379824876785
2024-12-07 20:18:20.650418000,1.15741796875,0.1100841462612152,0.0931256785988807,-0.0157661996781826
2024-12-07 20:18:20.660432000,1.167431884765625,0.1188051998615264,0.0957393050193786,0.002728919731453
2024-12-07 20:18:20.670445800,1.17744580078125,0.1095887273550033,0.0929767340421676,0.0074780252762138
2024-12-07 20:18:20.680460000,1.1874599609375,0.0991605892777443,0.0763663351535797,0.0013269220944494
2024-12-07 20:18:20.690473700,1.1974736328125,0.091028943657875,0.080330803990364,0.0112132728099823
2024-12-07 20:18:20.700488000,1.207488037109375,0.0780886486172676,0.0911333858966827,0.0466618128120899
2024-12-07 20:18:20.710502000,1.217501953125,0.0651258379220962,0.0886939689517021,0.091843269765377
2024-12-07 20:18:20.720515800,1.227515869140625,0.0500440895557403,0.0610311776399612,0.1339262723922729
2024-12-07 20:18:20.730529800,1.23752978515625,0.0368694439530372,0.0052173729054629,0.1589605212211609
2024-12-07 20:18:20.740543700,1.247543701171875,0.0273371934890747,-0.0499462783336639,0.149907112121582
2024-12-07 20:18:20.750557000,1.257556884765625,0.0185174774378538,-0.0957582220435142,0.1087757274508476
2024-12-07 20:18:20.760571000,1.26757080078125,0.0021427643951028,-0.1267622113227844,0.0632183626294136
2024-12-07 20:18:20.770584800,1.277584716796875,-0.0067697423510253,-0.1264112889766693,0.0261985100805759
2024-12-07 20:18:20.780598800,1.287598876953125,-0.0069500389508903,-0.0965077131986618,0.006491650827229
2024-12-07 20:18:20.790613000,1.297613037109375,-0.0135479206219315,-0.0536123849451541,0.0045746811665594
2024-12-07 20:18:20.800626700,1.307626708984375,-0.0338582545518875,-0.0483148284256458,0.0151184014976024
2024-12-07 20:18:20.810641000,1.317640869140625,-0.0514557920396328,-0.0871180221438407,0.0286924485117197
2024-12-07 20:18:20.820654800,1.32765478515625,-0.0725435018539428,-0.118248775601387,0.0324064940214157
2024-12-07 20:18:20.830668800,1.337668701171875,-0.088378332555294,-0.1329866200685501,0.0274403952062129
2024-12-07 20:18:20.840683000,1.34768310546875,-0.1048217490315437,-0.1114144846796989,0.0106523614376783
2024-12-07 20:18:20.850696700,1.35769677734375,-0.1198730394244194,-0.0509550087153911,-0.0082899909466505
2024-12-07 20:18:20.860711000,1.3677109375,-0.1298428624868393,0.0208776351064443,-0.0265086758881807
2024-12-07 20:18:20.870724900,1.377724853515625,-0.1375098079442978,0.0812058672308921,-0.0429329723119735
2024-12-07 20:18:20.880739000,1.387739013671875,-0.1443554610013961,0.12111546844244,-0.0527397990226745
2024-12-07 20:18:20.890752800,1.397752685546875,-0.1477030366659164,0.1407492905855178,-0.0630313158035278
2024-12-07 20:18:20.900767000,1.40776708984375,-0.1434867233037948,0.1563900262117386,-0.0727041810750961
2024-12-07 20:18:20.910781000,1.417781005859375,-0.1360993087291717,0.1800359785556793,-0.0818034932017326
2024-12-07 20:18:20.920795000,1.427794921875,-0.1234359741210937,0.1935296803712844,-0.0841617211699485
2024-12-07 20:18:20.930808800,1.437808837890625,-0.1146838963031768,0.1959403455257415,-0.0828089118003845
2024-12-07 20:18:20.940822800,1.44782275390625,-0.106765791773796,0.1894648671150207,-0.0724603980779647
2024-12-07 20:18:20.950837000,1.4578369140625,-0.1051818430423736,0.1853749305009842,-0.0503475591540336
2024-12-07 20:18:20.960851000,1.467850830078125,-0.0998874828219413,0.1911896765232086,-0.0199856590479612
2024-12-07 20:18:20.970862300,1.4778623046875,-0.0936737284064292,0.2153187394142151,0.0254219956696033
2024-12-07 20:18:20.980876500,1.48787646484375,-0.085856556892395,0.2341089397668838,0.0781789496541023
2024-12-07 20:18:20.990890200,1.49789013671875,-0.083526611328125,0.2307431399822235,0.1293738037347793
2024-12-07 20:18:21.000904400,1.507904541015625,-0.0835780128836631,0.2056140899658203,0.1559135317802429
2024-12-07 20:18:21.010918400,1.51791845703125,-0.0843935459852218,0.1743792444467544,0.1495043933391571
2024-12-07 20:18:21.020932400,1.527932373046875,-0.0747084245085716,0.1525277495384216,0.1231952980160713
2024-12-07 20:18:21.030946300,1.5379462890625,-0.0730047449469566,0.1641706526279449,0.0854238495230674
2024-12-07 20:18:21.040960300,1.547960205078125,-0.0756434053182601,0.2066629976034164,0.0661809146404266
2024-12-07 20:18:21.050974500,1.557974365234375,-0.0786041393876075,0.2666747272014618,0.0753785520792007
2024-12-07 20:18:21.060988400,1.567988525390625,-0.0755209997296333,0.301245242357254,0.09943088889122
2024-12-07 20:18:21.071002400,1.57800244140625,-0.0773109793663024,0.291558563709259,0.1319561153650283
2024-12-07 20:18:21.081016300,1.588016357421875,-0.083582192659378,0.2583287060260772,0.1514120995998382
2024-12-07 20:18:21.091030300,1.5980302734375,-0.0945462435483932,0.2183748930692672,0.1593455523252487
2024-12-07 20:18:21.101044500,1.60804443359375,-0.1058955714106559,0.1665468513965606,0.1590648591518402
2024-12-07 20:18:21.111058200,1.61805810546875,-0.1170322299003601,0.0988791435956955,0.1525132805109024
2024-12-07 20:18:21.121072400,1.628072265625,-0.129516065120697,0.0298827718943357,0.1422955244779586
2024-12-07 20:18:21.131086300,1.63808642578125,-0.1337642073631286,-0.032570257782936,0.1404194682836532
2024-12-07 20:18:21.141100300,1.648100341796875,-0.1285217702388763,-0.0841415673494339,0.1430203169584274
2024-12-07 20:18:21.151113200,1.65811328125,-0.1124028265476226,-0.1286360025405883,0.1414982080459594
2024-12-07 20:18:21.161127400,1.66812744140625,-0.0896024331450462,-0.1624464243650436,0.1252702325582504
2024-12-07 20:18:21.171141400,1.678141357421875,-0.0576755329966545,-0.1584771424531936,0.0888787284493446
2024-12-07 20:18:21.181155300,1.6881552734375,-0.0208272375166416,-0.099957637488842,0.0487845726311206
2024-12-07 20:18:21.191169300,1.698169189453125,0.0195903796702623,-0.0143741462379693,0.0256935097277164
2024-12-07 20:18:21.201183200,1.708183349609375,0.0710892602801323,0.0497252121567726,0.0152608416974544
2024-12-07 20:18:21.211197400,1.718197509765625,0.1512658894062042,0.076546274125576,-0.008921505883336
2024-12-07 20:18:21.221211400,1.72821142578125,0.2475476861000061,0.0412050634622573,-0.0156212206929922
2024-12-07 20:18:21.231225300,1.738225341796875,0.3187400996685028,0.0151021014899015,0.0412048362195491
2024-12-07 20:18:21.241239300,1.7482392578125,0.3689553141593933,0.0591289475560188,0.1008782833814621
2024-12-07 20:18:21.251253200,1.758253173828125,0.405688464641571,0.1181011497974395,0.23611880838871
2024-12-07 20:18:21.261267500,1.768267333984375,0.3801058530807495,0.1759058684110641,0.4596911668777466
2024-12-07 20:18:21.271281200,1.77828125,0.3060693144798279,0.2322556525468826,0.6364466547966003
2024-12-07 20:18:21.281295400,1.78829541015625,0.2277939617633819,0.2742278575897217,0.7264583110809326
2024-12-07 20:18:21.291309300,1.798309326171875,0.1766978800296783,0.342651218175888,0.7345601916313171
2024-12-07 20:18:21.301323500,1.808323486328125,0.1530647277832031,0.4260209500789642,0.6352764964103699
2024-12-07 20:18:21.311337200,1.818337158203125,0.1512716561555862,0.404405266046524,0.4273927807807922
2024-12-07 20:18:21.321351200,1.82835107421875,0.1498979926109314,0.2507730722427368,0.1784665882587433
2024-12-07 20:18:21.331365400,1.838365478515625,0.1130166202783584,0.0088863847777247,0.003394407685846
2024-12-07 20:18:21.341379300,1.84837939453125,0.0470381379127502,-0.2462092936038971,-0.0538670197129249
2024-12-07 20:18:21.351393300,1.858393310546875,-0.0126440860331058,-0.4774614870548248,-0.0558918118476867
2024-12-07 20:18:21.361407200,1.8684072265625,-0.0571891851723194,-0.6085896492004395,-0.0758498087525367
2024-12-07 20:18:21.371421400,1.87842138671875,-0.078234389424324,-0.6053367853164673,-0.1303829550743103
2024-12-07 20:18:21.381435400,1.888435302734375,-0.0534139983355999,-0.4837807714939117,-0.2034904509782791
2024-12-07 20:18:21.391449000,1.898448974609375,0.0099356928840279,-0.2986988723278045,-0.2770200669765472
2024-12-07 20:18:21.401463300,1.90846337890625,0.0694256499409675,-0.1129532381892204,-0.3475203216075897
2024-12-07 20:18:21.411477200,1.918477294921875,0.1178761571645736,0.0203198157250881,-0.4129186868667602
2024-12-07 20:18:21.421491500,1.928491455078125,0.145733892917633,0.1016759276390075,-0.4461389482021332
2024-12-07 20:18:21.431505400,1.93850537109375,0.162619799375534,0.125222161412239,-0.4191808998584747
2024-12-07 20:18:21.441519400,1.948519287109375,0.1773715764284134,0.1137093156576156,-0.3121905326843261
2024-12-07 20:18:21.451533300,1.958533203125,0.1925690770149231,0.0741525962948799,-0.1390344649553299
2024-12-07 20:18:21.461547300,1.96854736328125,0.2126759439706802,0.0364054851233959,0.0231650993227958
2024-12-07 20:18:21.471561500,1.9785615234375,0.2410184442996978,0.0820229798555374,0.1034920662641525
2024-12-07 20:18:21.481575200,1.9885751953125,0.2823975682258606,0.1735204011201858,0.0820506885647773
2024-12-07 20:18:21.491588400,1.99858837890625,0.3178606629371643,0.2161295413970947,0.0057568638585507
2024-12-07 20:18:21.501602300,2.008602294921875,0.3107023537158966,0.1946740448474884,-0.0508547499775886
2024-12-07 20:18:21.511616300,2.0186162109375,0.2793696820735931,0.1226420179009437,-0.0609390214085578
2024-12-07 20:18:21.521630200,2.028630126953125,0.2183667868375778,-0.0307518020272254,-0.0378811098635196
2024-12-07 20:18:21.531644400,2.03864453125,0.1123815402388572,-0.2448786348104477,0.0022601394448429
2024-12-07 20:18:21.541658400,2.048658447265625,-0.0265161562711,-0.3632111251354217,0.0205368809401989
2024-12-07 20:18:21.551672300,2.05867236328125,-0.172136127948761,-0.4486408531665802,0.0442040972411632
2024-12-07 20:18:21.561686300,2.068686279296875,-0.2656815350055694,-0.5050042867660522,0.0637700706720352
2024-12-07 20:18:21.571700200,2.0787001953125,-0.2966852188110351,-0.6243621110916138,0.0934488177299499
2024-12-07 20:18:21.581714400,2.08871435546875,-0.3049972355365753,-0.7381640672683716,0.1092147231101989
2024-12-07 20:18:21.591728000,2.09872802734375,-0.3174549043178558,-0.6459827423095703,0.1078421026468277
2024-12-07 20:18:21.601742300,2.108742431640625,-0.3133581578731537,-0.359239399433136,0.1024318933486938
2024-12-07 20:18:21.611756300,2.11875634765625,-0.2774152159690857,-0.1313256919384002,0.0639262273907661
2024-12-07 20:18:21.621770500,2.1287705078125,-0.2198925614356994,-0.1118345484137535,-0.0214081145823001
2024-12-07 20:18:21.631784400,2.138784423828125,-0.1369740813970565,-0.236903041601181,-0.1244603917002677
2024-12-07 20:18:21.641798100,2.148798095703125,-0.0599298998713493,-0.3174327611923218,-0.1731847673654556
2024-12-07 20:18:21.651812400,2.158812255859375,-0.0061703063547611,-0.2298116832971573,-0.1386848092079162
2024-12-07 20:18:21.661826300,2.168826416015625,0.0314436480402946,-0.0614788569509983,-0.0486854203045368
2024-12-07 20:18:21.671840500,2.178840576171875,0.0424702540040016,0.033703077584505,0.0225562341511249
2024-12-07 20:18:21.681854200,2.188854248046875,0.0150660630315542,0.0066482909023761,0.0316349491477012
2024-12-07 20:18:21.691868400,2.198868408203125,-0.0463908910751342,-0.0682954788208007,-0.0087849702686071
2024-12-07 20:18:21.701882400,2.20888232421875,-0.103181205689907,-0.1210542917251586,-0.0497185550630092
2024-12-07 20:18:21.711896300,2.218896240234375,-0.1401098817586898,-0.1387578248977661,-0.0687045976519584
2024-12-07 20:18:21.721910300,2.22891015625,-0.1633869707584381,-0.1133733764290809,-0.0586389154195785
2024-12-07 20:18:21.731924200,2.23892431640625,-0.1818412095308303,-0.0512531027197837,-0.0401765592396259
2024-12-07 20:18:21.741938400,2.2489384765625,-0.1918946504592895,0.0382517464458942,-0.0308493711054325
2024-12-07 20:18:21.751952400,2.258952392578125,-0.1835985630750656,0.1120453625917434,-0.0222479961812496
2024-12-07 20:18:21.761966300,2.26896630859375,-0.1621425449848175,0.1141290143132209,-0.0197560768574476
2024-12-07 20:18:21.771980300,2.278980224609375,-0.1348712891340255,0.0627384930849075,-0.0263721868395805
2024-12-07 20:18:21.781994200,2.288994140625,-0.1125758439302444,0.0065396707504987,-0.0574211813509464
2024-12-07 20:18:21.792008400,2.299008544921875,-0.0845272094011306,-0.0343813560903072,-0.1138070523738861
2024-12-07 20:18:21.802021400,2.309021484375,-0.0479422993957996,-0.0589777790009975,-0.1664838343858719
2024-12-07 20:18:21.812035300,2.319035400390625,-0.0259765442460775,-0.0603612326085567,-0.1905431747436523
2024-12-07 20:18:21.822049300,2.32904931640625,-0.028668200597167,-0.0583473481237888,-0.1743396967649459
2024-12-07 20:18:21.832063500,2.3390634765625,-0.0557906180620193,-0.0544082783162593,-0.1219660341739654
2024-12-07 20:18:21.842077200,2.3490771484375,-0.100308820605278,-0.029610788449645,-0.0550972558557987
2024-12-07 20:18:21.852091400,2.35909130859375,-0.1530351936817169,-0.0111511750146746,-0.0088548231869935
2024-12-07 20:18:21.862105300,2.369105224609375,-0.187356412410736,-0.0066467043943703,0.0092725148424506
2024-12-07 20:18:21.872119600,2.37911962890625,-0.2139562368392944,0.0078665111213922,0.0067538870498538
2024-12-07 20:18:21.882133200,2.38913330078125,-0.2315592020750045,0.0426798872649669,-0.0111534744501113
2024-12-07 20:18:21.892147200,2.399147216796875,-0.2475001513957977,0.1122694760560989,-0.0533957108855247
2024-12-07 20:18:21.902161400,2.409161376953125,-0.2641228139400482,0.2379895895719528,-0.1059515923261642
2024-12-07 20:18:21.912175400,2.41917529296875,-0.2777613997459411,0.4079841673374176,-0.1536309123039245
2024-12-07 20:18:21.922189300,2.429189208984375,-0.2832062244415283,0.5734072327613831,-0.186096966266632
2024-12-07 20:18:21.932203300,2.439203369140625,-0.2923199832439422,0.6848505139350891,-0.2000430226325988
2024-12-07 20:18:21.942217500,2.449217529296875,-0.3055841326713562,0.7187381386756897,-0.2032161802053451
2024-12-07 20:18:21.952231400,2.4592314453125,-0.3107419908046722,0.6889423727989197,-0.1904294043779373
2024-12-07 20:18:21.962245000,2.4692451171875,-0.3145511150360107,0.6580057740211487,-0.1822854578495025
2024-12-07 20:18:21.972258800,2.4792587890625,-0.3194811642169952,0.64296555519104,-0.2011994868516922
2024-12-07 20:18:21.982272800,2.489272705078125,-0.3225752115249634,0.5727127194404602,-0.2209138125181198
2024-12-07 20:18:21.992287000,2.499286865234375,-0.3112716972827911,0.3950863480567932,-0.2996110320091247
2024-12-07 20:18:22.002300700,2.50930078125,-0.2328171133995056,0.1281766146421432,-0.5093107223510742
2024-12-07 20:18:22.012315000,2.51931494140625,-0.1220429018139839,-0.2173771411180496,-0.6414477825164795
2024-12-07 20:18:22.022328800,2.529328857421875,-0.0643465816974639,-0.5977247357368469,-0.3889515995979309
2024-12-07 20:18:22.032342800,2.5393427734375,-0.0328338891267776,-0.940007507801056,0.0830146148800849
2024-12-07 20:18:22.042356700,2.549356689453125,0.0438917800784111,-1.2494033575057983,0.4913437664508819
2024-12-07 20:18:22.052370700,2.55937060546875,0.1694207042455673,-1.4517104625701904,0.6811466813087463
2024-12-07 20:18:22.062385000,2.569385009765625,0.2652718722820282,-1.4133074283599854,0.6956928968429565
2024-12-07 20:18:22.072398800,2.57939892578125,0.3191573619842529,-1.1260480880737305,0.6862609386444092
2024-12-07 20:18:22.082412800,2.589412841796875,0.3488300442695617,-0.7043489813804626,0.7388274669647217
2024-12-07 20:18:22.092425700,2.59942578125,0.3752403557300567,-0.2190282195806503,0.8392400145530701
2024-12-07 20:18:22.102440000,2.60943994140625,0.3996831178665161,0.286281555891037,0.938617706298828
2024-12-07 20:18:22.112454000,2.619453857421875,0.4340657889842987,0.7850019931793213,1.004561424255371
2024-12-07 20:18:22.122467800,2.6294677734375,0.4837697148323059,1.2112311124801636,1.035665512084961
2024-12-07 20:18:22.132481800,2.639481689453125,0.5232197642326355,1.5025683641433716,1.0272185802459717
2024-12-07 20:18:22.142495700,2.649495849609375,0.5285247564315796,1.5776513814926147,0.9375675916671752
2024-12-07 20:18:22.152510000,2.659510009765625,0.511417031288147,1.3448185920715332,0.7612352967262268
2024-12-07 20:18:22.162523600,2.669523681640625,0.4695862829685211,0.8618589639663696,0.5962964296340942
2024-12-07 20:18:22.172537900,2.679537841796875,0.3829982280731201,0.3982891738414764,0.5229842066764832
2024-12-07 20:18:22.182551800,2.6895517578125,0.2958718538284302,0.1349278688430786,0.4927117824554443
2024-12-07 20:18:22.192566000,2.69956591796875,0.2663031220436096,0.0500483289361,0.4319559335708618
2024-12-07 20:18:22.202579700,2.709579833984375,0.2955944538116455,0.030432816594839,0.3037185966968536
2024-12-07 20:18:22.212594000,2.719593994140625,0.3994591534137726,0.0270724799484014,0.1212117820978164
2024-12-07 20:18:22.222608000,2.72960791015625,0.5633969902992249,0.0543285980820655,-0.0582320094108581
2024-12-07 20:18:22.232621800,2.739621826171875,0.7092375159263611,0.0330216288566589,-0.1973658204078674
2024-12-07 20:18:22.242635800,2.7496357421875,0.7941902279853821,-0.0158907882869243,-0.242357537150383
2024-12-07 20:18:22.252649700,2.759649658203125,0.8241071701049805,-0.1123274713754654,-0.2083408534526825
2024-12-07 20:18:22.262664000,2.769663818359375,0.8446044921875,-0.281756728887558,-0.1195966005325317
2024-12-07 20:18:22.272678000,2.779677978515625,0.8790310025215149,-0.5326457619667053,-0.019500445574522
2024-12-07 20:18:22.282691800,2.78969189453125,0.9143168330192566,-0.807331383228302,0.0680544376373291
2024-12-07 20:18:22.292705800,2.799705810546875,0.9463940858840942,-0.9843367338180542,0.1473109275102615
2024-12-07 20:18:22.302719700,2.8097197265625,0.9750537276268004,-0.9917073249816896,0.1933378130197525
2024-12-07 20:18:22.312734000,2.81973388671875,0.9891629219055176,-0.8519035577774048,0.1987635791301727
2024-12-07 20:18:22.322748000,2.829747802734375,0.9722044467926024,-0.685417890548706,0.1909029930830001
2024-12-07 20:18:22.332761900,2.839761962890625,0.9246758222579956,-0.582840085029602,0.1928615272045135
2024-12-07 20:18:22.342775800,2.84977587890625,0.8551439046859741,-0.5068209171295166,0.1654176563024521
2024-12-07 20:18:22.352789800,2.859789794921875,0.7806692123413086,-0.3762383460998535,0.0593864768743515
2024-12-07 20:18:22.362804000,2.869803955078125,0.697478711605072,-0.2271450012922287,-0.069994680583477
2024-12-07 20:18:22.372817000,2.87981689453125,0.6258978843688965,-0.1812968850135803,-0.1457026749849319
2024-12-07 20:18:22.382830800,2.889830810546875,0.5936006903648376,-0.2946442365646362,-0.1746816039085388
2024-12-07 20:18:22.392844800,2.8998447265625,0.5488297939300537,-0.5249345898628235,-0.1404884606599807
2024-12-07 20:18:22.402858800,2.909858642578125,0.446573942899704,-0.6365742683410645,0.0068149720318615
2024-12-07 20:18:22.412872700,2.919872802734375,0.3680665194988251,-0.4556425511837005,0.1251904219388961
2024-12-07 20:18:22.422887000,2.929886962890625,0.3466754555702209,-0.171365812420845,0.0737669169902801
2024-12-07 20:18:22.432900900,2.93990087890625,0.272172212600708,-0.0691859349608421,-0.1682772040367126
2024-12-07 20:18:22.442914800,2.949914794921875,-0.0059789787046611,-0.2481133341789245,-0.4448960125446319
2024-12-07 20:18:22.452928800,2.9599287109375,-0.3879342377185821,-0.4913237392902374,-0.583376944065094
2024-12-07 20:18:22.462942700,2.969942626953125,-0.6016489267349243,-0.4144688844680786,-0.57829749584198
2024-12-07 20:18:22.472957000,2.97995703125,-0.6356713175773621,-0.0427398942410945,-0.4904968738555908
2024-12-07 20:18:22.482970600,2.989970703125,-0.611169695854187,0.3287639021873474,-0.3945642113685608
2024-12-07 20:18:22.492984800,2.99998486328125,-0.5032604336738586,0.5290433168411255,-0.3466867804527282
2024-12-07 20:18:22.502998800,3.009998779296875,-0.2932251989841461,0.542234480381012,-0.2991411089897156
2024-12-07 20:18:22.513013000,3.020012939453125,0.0434016920626163,0.2950585484504699,-0.1705302596092224
2024-12-07 20:18:22.523027000,3.03002685546875,0.2852081954479217,-0.2905876040458679,0.1152644604444503
2024-12-07 20:18:22.533040600,3.04004052734375,0.1765057742595672,-0.8782560229301453,0.4045800566673279
2024-12-07 20:18:22.543054800,3.050054931640625,-0.1033410504460334,-1.0513099431991575,0.4285240173339844
2024-12-07 20:18:22.553068800,3.06006884765625,-0.3966068625450134,-0.8083153963088989,0.1965649574995041
2024-12-07 20:18:22.563083000,3.0700830078125,-0.6084887385368347,-0.3734518587589264,-0.1735124289989471
2024-12-07 20:18:22.573096700,3.0800966796875,-0.6731600165367126,-0.0103665543720126,-0.555696427822113
2024-12-07 20:18:22.583111000,3.09011083984375,-0.6181694865226746,0.1733449548482895,-0.8261191248893738
2024-12-07 20:18:22.593124900,3.100124755859375,-0.514664351940155,0.2504133880138397,-0.9368892908096312
2024-12-07 20:18:22.603138800,3.110138916015625,-0.4012605547904968,0.2266601324081421,-0.8228325247764587
2024-12-07 20:18:22.613152800,3.12015283203125,-0.2770126163959503,0.107901893556118,-0.5226823687553406
2024-12-07 20:18:22.623166700,3.130166748046875,-0.1631238460540771,0.0020942375995218,-0.1925784647464752
2024-12-07 20:18:22.633180000,3.140179931640625,-0.1005472093820571,-0.0482222437858581,-0.0160836316645145
2024-12-07 20:18:22.643193600,3.150193603515625,-0.0911949872970581,-0.0713241025805473,-0.0504517257213592
2024-12-07 20:18:22.653207800,3.160207763671875,-0.155591070652008,-0.1473496705293655,-0.2208232134580612
2024-12-07 20:18:22.663221800,3.1702216796875,-0.2283241301774978,-0.2560127675533294,-0.3488365709781647
2024-12-07 20:18:22.673236000,3.180236083984375,-0.2752625644207001,-0.3320350646972656,-0.385225772857666
2024-12-07 20:18:22.683249700,3.190249755859375,-0.3115321397781372,-0.3443769514560699,-0.3646166324615478
2024-12-07 20:18:22.693264000,3.200263916015625,-0.3371846973896026,-0.2974302470684051,-0.317185491323471
2024-12-07 20:18:22.703277800,3.21027783203125,-0.3493990302085876,-0.2314158380031585,-0.2809462547302246
2024-12-07 20:18:22.713291800,3.220291748046875,-0.3620781600475311,-0.1364364027976989,-0.2812354862689972
2024-12-07 20:18:22.723306000,3.230305908203125,-0.375759094953537,-0.029392497614026,-0.3078697621822357
2024-12-07 20:18:22.733319700,3.240319580078125,-0.3658007979393005,0.0273959562182426,-0.3284518420696258
2024-12-07 20:18:22.743334000,3.250333984375,-0.3306620121002197,0.0175957903265953,-0.3035438358783722
2024-12-07 20:18:22.753347800,3.260347900390625,-0.2963205277919769,-0.0275707133114337,-0.246987372636795
2024-12-07 20:18:22.763362000,3.270362060546875,-0.2120479792356491,-0.0433576665818691,-0.197711706161499
2024-12-07 20:18:22.773375700,3.280375732421875,-0.2984451353549957,-0.0441187694668769,-0.1730815172195434
2024-12-07 20:18:22.783389700,3.2903896484375,-0.2847215831279754,0.0225761029869318,-0.1621002256870269
2024-12-07 20:18:22.793404000,3.30040380859375,-0.2724261283874511,0.100779078900814,-0.1758980453014373
2024-12-07 20:18:22.803417900,3.31041796875,-0.2809559404850006,0.159257560968399,-0.2183970361948013
2024-12-07 20:18:22.813431800,3.320431884765625,-0.3156523704528808,0.1529382020235061,-0.2714429199695587
2024-12-07 20:18:22.823445800,3.33044580078125,-0.2576066255569458,0.0748761519789695,-0.3004998862743377
2024-12-07 20:18:22.833460000,3.3404599609375,-0.327771931886673,-0.060618657618761,-0.3044591248035431
2024-12-07 20:18:22.843474000,3.350473876953125,-0.2344209402799606,-0.1428826302289962,-0.2815463542938232
2024-12-07 20:18:22.853487600,3.360487548828125,-0.2719992101192474,-0.167516827583313,-0.2332358956336975
2024-12-07 20:18:22.863501800,3.370501708984375,-0.1551210582256317,-0.0578904636204242,-0.1979484856128692
2024-12-07 20:18:22.873515800,3.380515869140625,-0.1951651871204376,0.0632166117429733,-0.1795182824134826
2024-12-07 20:18:22.883530000,3.390530029296875,-0.0537252239882946,0.1656633615493774,-0.1634711325168609
2024-12-07 20:18:22.893542700,3.400542724609375,-0.1076963320374488,0.1438694596290588,-0.1479731500148773
2024-12-07 20:18:22.903556900,3.410556884765625,-0.0349539443850517,0.0705718025565147,-0.1357316672801971
2024-12-07 20:18:22.913570800,3.42057080078125,-0.1439323723316192,-0.0615886114537715,-0.1335837692022323
2024-12-07 20:18:22.923585000,3.4305849609375,-0.1689799427986145,-0.1574499011039734,-0.1216229796409607
2024-12-07 20:18:22.933598700,3.4405986328125,-0.215730220079422,-0.2007186561822891,-0.0934245437383651
2024-12-07 20:18:22.943613000,3.450613037109375,-0.267803281545639,-0.2021703571081161,-0.0611528940498828
2024-12-07 20:18:22.953627000,3.460626953125,-0.2711410522460937,-0.2001291364431381,-0.020914614200592
2024-12-07 20:18:22.963640800,3.470640869140625,-0.2350381910800933,-0.1850372701883316,0.0139727955684065
2024-12-07 20:18:22.973655600,3.480655517578125,-0.1790608614683151,-0.1623496562242508,0.0411149114370346
2024-12-07 20:18:22.983669500,3.49066943359375,-0.1245054677128791,-0.1259551644325256,0.0645840242505073
2024-12-07 20:18:22.993683500,3.500683349609375,-0.0808932930231094,-0.0946711525321006,0.0817983523011207
2024-12-07 20:18:23.003697700,3.51069775390625,-0.0466253347694873,-0.0896247327327728,0.0856617987155914
2024-12-07 20:18:23.013711600,3.520711669921875,-0.0385894440114498,-0.102997250854969,0.0703304186463356
2024-12-07 20:18:23.023725600,3.5307255859375,-0.0584979057312011,-0.1087443530559539,0.038415890187025
2024-12-07 20:18:23.033739500,3.540739501953125,-0.0864107757806778,-0.1000658944249153,0.0084119783714413
2024-12-07 20:18:23.043753700,3.550753662109375,-0.1029319614171981,-0.1093275696039199,-0.0133883915841579
2024-12-07 20:18:23.053767700,3.560767578125,-0.1297168135643005,-0.1464779824018478,-0.0402811132371425
2024-12-07 20:18:23.063781400,3.570781494140625,-0.1091699972748756,-0.1741772443056106,-0.0804972425103187
2024-12-07 20:18:23.073795600,3.580795654296875,-0.0746195614337921,-0.1938377022743225,-0.1046301797032356
2024-12-07 20:18:23.083809500,3.5908095703125,-0.066758707165718,-0.2008932083845138,-0.1163483560085296
2024-12-07 20:18:23.093823700,3.60082373046875,-0.0646689757704734,-0.1912837624549865,-0.1196027025580406
2024-12-07 20:18:23.103837400,3.61083740234375,-0.0512865968048572,-0.1376165300607681,-0.1324191689491272
2024-12-07 20:18:23.113851600,3.6208515625,-0.0311240274459123,-0.0453080162405967,-0.1724468618631363
2024-12-07 20:18:23.123865600,3.630865478515625,-0.0349629744887352,0.0519530214369297,-0.2144134789705276
2024-12-07 20:18:23.133879600,3.640879638671875,-0.080688327550888,0.1957451105117797,-0.2539276480674743
2024-12-07 20:18:23.143892500,3.650892578125,-0.1426411718130111,0.3954004347324371,-0.3087354898452759
2024-12-07 20:18:23.153906700,3.66090673828125,-0.205985888838768,0.5921325087547302,-0.4035481512546539
2024-12-07 20:18:23.163920600,3.670920654296875,-0.2418181896209716,0.6642226576805115,-0.4596710503101349
2024-12-07 20:18:23.173934600,3.6809345703125,-0.2770311832427978,0.578332245349884,-0.3926120102405548
2024-12-07 20:18:23.183948500,3.690948486328125,-0.324430912733078,0.3592726290225982,-0.2397660017013549
2024-12-07 20:18:23.193962500,3.70096240234375,-0.3771706521511078,0.1303179115056991,-0.0904232412576675
2024-12-07 20:18:23.203976700,3.710976806640625,-0.4419398009777069,0.1109591126441955,-0.0511341542005538
2024-12-07 20:18:23.213990700,3.72099072265625,-0.4837985336780548,0.3012279570102691,-0.146938294172287
2024-12-07 20:18:23.224004600,3.731004638671875,-0.5029343962669373,0.5561566352844238,-0.25804004073143
2024-12-07 20:18:23.234018600,3.7410185546875,-0.5037469267845154,0.6815381050109863,-0.2400954067707061
2024-12-07 20:18:23.244032500,3.751032470703125,-0.4963593482971191,0.6192853450775146,-0.1421347558498382
2024-12-07 20:18:23.254046700,3.761046630859375,-0.4731241464614868,0.500959575176239,-0.103198118507862
2024-12-07 20:18:23.264060400,3.771060302734375,-0.4208223521709442,0.4233002364635467,-0.1428885459899902
2024-12-07 20:18:23.274074600,3.78107470703125,-0.3294562995433807,0.3341191411018371,-0.1498228162527084
2024-12-07 20:18:23.284088600,3.791088623046875,-0.232313260436058,0.2224112600088119,-0.0513068810105323
2024-12-07 20:18:23.294102800,3.801102783203125,-0.1231704950332641,0.1753543764352798,0.0973470509052276
2024-12-07 20:18:23.304116500,3.811116455078125,-0.0054353438317775,0.2451094985008239,0.2558704018592834
2024-12-07 20:18:23.314130400,3.82113037109375,0.1133485659956932,0.4698808491230011,0.387779951095581
2024-12-07 20:18:23.324144600,3.83114453125,0.2539461553096771,0.7330741286277771,0.467167466878891
2024-12-07 20:18:23.334158600,3.84115869140625,0.3764728605747223,0.8686215877532959,0.5500498414039612
2024-12-07 20:18:23.344172500,3.851172607421875,0.4237775206565857,0.773798942565918,0.7465988397598267
2024-12-07 20:18:23.354186500,3.8611865234375,0.420335590839386,0.5765038132667542,0.97662752866745
2024-12-07 20:18:23.364200700,3.87120068359375,0.4078181982040405,0.4290879964828491,1.127474308013916
2024-12-07 20:18:23.374213600,3.881213623046875,0.3989041447639465,0.442999929189682,1.1796796321868896
2024-12-07 20:18:23.384227600,3.8912275390625,0.4032922387123108,0.632667601108551,1.1434723138809204
2024-12-07 20:18:23.394241500,3.901241455078125,0.4208367764949798,0.834662139415741,1.0357975959777832
2024-12-07 20:18:23.404255700,3.911255859375,0.4503690898418426,1.0121434926986694,0.8931543231010437
2024-12-07 20:18:23.414269700,3.921269775390625,0.4679878652095794,1.127832531929016,0.761225163936615
2024-12-07 20:18:23.424283400,3.931283447265625,0.4434074163436889,1.1227495670318604,0.6477246880531311
2024-12-07 20:18:23.434297600,3.941297607421875,0.4049581289291382,0.9510854482650756,0.5421026349067688
2024-12-07 20:18:23.444311600,3.9513115234375,0.385171890258789,0.6937540769577026,0.4635428786277771
2024-12-07 20:18:23.454325800,3.96132568359375,0.3916384279727936,0.4696291387081146,0.4224300980567932
2024-12-07 20:18:23.464339500,3.97133935546875,0.4192668795585632,0.2957241833209991,0.4127724170684814
2024-12-07 20:18:23.474353700,3.981353759765625,0.4645619988441467,0.1818817257881164,0.4085566103458404
2024-12-07 20:18:23.484367600,3.99136767578125,0.5173115134239197,0.1594741493463516,0.3641931414604187
2024-12-07 20:18:23.494381600,4.001381591796875,0.5741659998893738,0.2018966972827911,0.2699190378189087
2024-12-07 20:18:23.504395500,4.0113955078125,0.6581048965454102,0.2724757790565491,0.1327212452888488
2024-12-07 20:18:23.514409500,4.021409423828125,0.7637407183647156,0.3509989976882934,-0.0045421319082379
2024-12-07 20:18:23.524423700,4.031423583984375,0.857405960559845,0.3658131062984466,-0.1112209036946296
2024-12-07 20:18:23.534437600,4.041437744140625,0.9151780605316162,0.2650157213211059,-0.1318273991346359
2024-12-07 20:18:23.544451600,4.05145166015625,0.9304448962211608,0.094001367688179,-0.0323018692433834
2024-12-07 20:18:23.554465500,4.061465576171875,0.9262453317642212,-0.1020566970109939,0.1154912337660789
2024-12-07 20:18:23.564479500,4.0714794921875,0.928941249847412,-0.2285903990268707,0.2073396742343902
2024-12-07 20:18:23.574493700,4.08149365234375,0.935032069683075,-0.2938943803310394,0.2105174660682678
2024-12-07 20:18:23.584507400,4.09150732421875,0.9271352887153624,-0.3333797454833984,0.1686775982379913
2024-12-07 20:18:23.594520600,4.1015205078125,0.9109452962875366,-0.4096653461456299,0.1282801926136016
2024-12-07 20:18:23.604534500,4.111534423828125,0.8829813003540039,-0.5016661286354065,0.1041825860738754
2024-12-07 20:18:23.614548700,4.121548828125,0.8370454907417297,-0.5821540355682373,0.0962429046630859
2024-12-07 20:18:23.624562400,4.1315625,0.7680059671401978,-0.6345983147621155,0.0808040276169776
2024-12-07 20:18:23.634576600,4.14157666015625,0.6501402258872986,-0.5903529524803162,0.0262953266501426
2024-12-07 20:18:23.644590600,4.151590576171875,0.498346745967865,-0.5139055848121643,-0.0469759590923786
2024-12-07 20:18:23.654604800,4.161604736328125,0.3785733878612518,-0.542880117893219,-0.1366598755121231
2024-12-07 20:18:23.664618500,4.171618408203125,0.3365095555782318,-0.5923576951026917,-0.1975346803665161
2024-12-07 20:18:23.674632400,4.181632568359375,0.3837703764438629,-0.4895560443401336,-0.1738915592432022
2024-12-07 20:18:23.684646700,4.191646728515625,0.5128268599510193,-0.3377952575683594,-0.1294194310903549
2024-12-07 20:18:23.694660600,4.20166064453125,0.6459946036338806,-0.217074379324913,-0.1443286836147308
2024-12-07 20:18:23.704674600,4.211674560546875,0.614567756652832,-0.1083207353949546,-0.1359842121601104
2024-12-07 20:18:23.714688500,4.2216884765625,0.4477801024913788,-0.0568843930959701,-0.0138164572417736
2024-12-07 20:18:23.724702700,4.23170263671875,0.2802643477916717,-0.0308266952633857,0.1452277898788452
2024-12-07 20:18:23.734716700,4.241716552734375,0.1370996981859207,0.0244786124676466,0.1861419677734375
2024-12-07 20:18:23.744730400,4.25173046875,0.018446272239089,0.0407489277422428,0.049868818372488
2024-12-07 20:18:23.754744600,4.26174462890625,-0.1126388013362884,-0.0915887281298637,-0.1763523519039154
2024-12-07 20:18:23.764758500,4.271758544921875,-0.271321952342987,-0.2913646996021271,-0.3639563322067261
2024-12-07 20:18:23.774772700,4.281772705078125,-0.4245678186416626,-0.3545893728733063,-0.4789928495883941
2024-12-07 20:18:23.784786400,4.291786376953125,-0.5052762627601624,-0.1528988629579544,-0.4579821228981018
2024-12-07 20:18:23.794800600,4.301800537109375,-0.5269056558609009,0.1145197302103042,-0.1725366115570068
2024-12-07 20:18:23.804813600,4.3118134765625,-0.4701947569847107,-0.0822532549500465,0.2882017195224762
2024-12-07 20:18:23.814827800,4.321827880859375,-0.303047776222229,-0.6039193868637085,0.5090360045433044
2024-12-07 20:18:23.824841500,4.331841552734375,-0.337007075548172,-0.6237167716026306,0.4108321964740753
2024-12-07 20:18:23.834855700,4.341855712890625,-0.5440446734428406,-0.3437214195728302,0.0668899342417717
2024-12-07 20:18:23.844869600,4.35186962890625,-0.7149341106414795,-0.0808170959353447,-0.4134343266487121
2024-12-07 20:18:23.854883600,4.361883544921875,-0.765052080154419,0.1012587249279022,-0.7971562147140503
2024-12-07 20:18:23.864897500,4.3718974609375,-0.724926233291626,0.2086685448884964,-0.9510512351989746
2024-12-07 20:18:23.874911500,4.381911376953125,-0.5997759103775024,0.1788599044084549,-0.9317468404769896
2024-12-07 20:18:23.884925700,4.39192578125,-0.4281498491764068,0.0835637524724006,-0.8391783237457275
2024-12-07 20:18:23.894939600,4.401939697265625,-0.3050812780857086,0.0096493959426879,-0.7027744650840759
2024-12-07 20:18:23.904953600,4.41195361328125,-0.2799485027790069,-0.0780138745903968,-0.5387160181999207
2024-12-07 20:18:23.914967600,4.421967529296875,-0.339319497346878,-0.1755749434232711,-0.3927915692329407
2024-12-07 20:18:23.924981500,4.4319814453125,-0.4370804131031036,-0.2510659396648407,-0.2980248630046844
2024-12-07 20:18:23.934995700,4.44199560546875,-0.4995095133781433,-0.2931066751480102,-0.2458963394165039
2024-12-07 20:18:23.945009400,4.452009521484375,-0.4817236065864563,-0.3145211637020111,-0.211273655295372
2024-12-07 20:18:23.955023600,4.462023681640625,-0.414319783449173,-0.283859521150589,-0.2019309401512146
2024-12-07 20:18:23.965037600,4.47203759765625,-0.3364196717739105,-0.2074427604675293,-0.2319833785295486
2024-12-07 20:18:23.975051300,4.48205126953125,-0.2847971320152282,-0.0892309173941612,-0.2832896113395691
2024-12-07 20:18:23.985065000,4.49206494140625,-0.2717353999614715,0.0562799423933029,-0.3020222783088684
2024-12-07 20:18:23.995079200,4.5020791015625,-0.2885262370109558,0.1296587139368057,-0.2796220183372497
2024-12-07 20:18:24.005093000,4.512093017578125,-0.3132286071777344,0.1357770562171936,-0.2627466320991516
2024-12-07 20:18:24.015107000,4.522107177734375,-0.3377673923969269,0.1156685575842857,-0.2677481770515442
2024-12-07 20:18:24.025120000,4.5321201171875,-0.3745722770690918,0.1063482910394668,-0.2940580546855926
2024-12-07 20:18:24.035134000,4.542134033203125,-0.4165757298469543,0.1343805193901062,-0.3407812714576721
2024-12-07 20:18:24.045148200,4.552148193359375,-0.4677779376506805,0.1697030812501907,-0.3935214579105377
2024-12-07 20:18:24.055162000,4.562162109375,-0.5224542021751404,0.1299077421426773,-0.4201342463493347
2024-12-07 20:18:24.065176000,4.572176025390625,-0.5586692094802856,-0.0212612636387348,-0.3925329744815826
2024-12-07 20:18:24.075190000,4.58218994140625,-0.5742995142936707,-0.2483757138252258,-0.3189732730388641
2024-12-07 20:18:24.085204200,4.592204345703125,-0.5944511294364929,-0.4884186685085296,-0.2184802144765854
2024-12-07 20:18:24.095218200,4.60221826171875,-0.6003577709197998,-0.698397159576416,-0.1315056085586547
2024-12-07 20:18:24.105232100,4.612232177734375,-0.5742489695549011,-0.8366461396217346,-0.081028863787651
2024-12-07 20:18:24.115246000,4.62224609375,-0.5180040001869202,-0.9144417643547058,-0.0591701790690422
2024-12-07 20:18:24.125260000,4.632260009765625,-0.4532122015953064,-0.9489230513572692,-0.0510512664914131
2024-12-07 20:18:24.135274200,4.642274169921875,-0.3769164085388183,-0.9309674501419068,-0.0503439679741859
2024-12-07 20:18:24.145288000,4.652287841796875,-0.2896821796894073,-0.8805537819862366,-0.0509847216308116
2024-12-07 20:18:24.155302100,4.66230224609375,-0.1967653185129165,-0.8289344906806946,-0.053237896412611
2024-12-07 20:18:24.165316000,4.672316162109375,-0.1169154867529869,-0.7726454138755798,-0.0553180910646915
2024-12-07 20:18:24.175330000,4.682330078125,-0.0607609748840332,-0.6780005097389221,-0.0601268820464611
2024-12-07 20:18:24.185344000,4.692343994140625,-0.0434520244598388,-0.5639538168907166,-0.0537600629031658
2024-12-07 20:18:24.195358000,4.70235791015625,-0.0464881807565689,-0.4354887306690216,-0.0291158463805913
2024-12-07 20:18:24.205372200,4.7123720703125,-0.063132144510746,-0.2974703907966614,0.004496440757066
2024-12-07 20:18:24.215386000,4.72238623046875,-0.0807723477482795,-0.1525754630565643,0.0337105467915535
2024-12-07 20:18:24.225400000,4.732400146484375,-0.098035492002964,-0.0027423002757132,0.0556533932685852
2024-12-07 20:18:24.235413000,4.7424130859375,-0.1062881425023078,0.098833292722702,0.0716925859451294
2024-12-07 20:18:24.245427200,4.75242724609375,-0.1088820621371269,0.1134905368089675,0.0901104733347892
2024-12-07 20:18:24.255441200,4.762441162109375,-0.1240976080298423,0.0623724348843097,0.1144568994641304
2024-12-07 20:18:24.265455000,4.772455078125,-0.1528563052415847,-0.0183807332068681,0.149010881781578
2024-12-07 20:18:24.275469000,4.782468994140625,-0.1823455691337585,-0.1013207510113716,0.1751909106969833
2024-12-07 20:18:24.285483000,4.79248291015625,-0.218431144952774,-0.1628152728080749,0.1931251734495163
2024-12-07 20:18:24.295497200,4.802497314453125,-0.2308440208435058,-0.2121672630310058,0.1866399496793747
2024-12-07 20:18:24.305511000,4.812510986328125,-0.2075573354959488,-0.2364502400159835,0.1504159122705459
2024-12-07 20:18:24.315525000,4.822525146484375,-0.1599213182926178,-0.2254921048879623,0.0864781588315963
2024-12-07 20:18:24.325539000,4.8325390625,-0.1097233965992927,-0.1766145825386047,-0.0164879001677036
2024-12-07 20:18:24.335553300,4.84255322265625,-0.0703561305999755,-0.0884701684117317,-0.1266084015369415
2024-12-07 20:18:24.345567000,4.85256689453125,-0.0567780025303363,0.0228430349379777,-0.2239357531070709
2024-12-07 20:18:24.355581000,4.862580810546875,-0.0676637813448906,0.1392211765050888,-0.2841574847698211
2024-12-07 20:18:24.365595100,4.87259521484375,-0.0949561223387718,0.2607308328151703,-0.3245885074138641
2024-12-07 20:18:24.375609000,4.882609130859375,-0.1596114635467529,0.3946222364902496,-0.3490132689476013
2024-12-07 20:18:24.385623000,4.892623046875,-0.2346835732460022,0.5061953663825989,-0.3258501589298248
2024-12-07 20:18:24.395637000,4.902636962890625,-0.2672460973262787,0.5512254238128662,-0.2434215396642685
2024-12-07 20:18:24.405651200,4.912651123046875,-0.2618539929389953,0.542205274105072,-0.1696842014789581
2024-12-07 20:18:24.415664000,4.9226640625,-0.2264735251665115,0.5091845393180847,-0.152151346206665
2024-12-07 20:18:24.425678000,4.932677978515625,-0.2100096046924591,0.4712965488433838,-0.2176304906606674
2024-12-07 20:18:24.435692000,4.942692138671875,-0.2245345413684845,0.4653420150279999,-0.3659676611423492
2024-12-07 20:18:24.445706200,4.952706298828125,-0.2607916295528412,0.4792985618114471,-0.5362184643745422
2024-12-07 20:18:24.455720200,4.96272021484375,-0.3135202825069427,0.4885079860687256,-0.670857846736908
2024-12-07 20:18:24.465734000,4.97273388671875,-0.3807262182235718,0.5129214525222778,-0.7654290795326233
2024-12-07 20:18:24.475748000,4.982748046875,-0.4138102233409881,0.602462112903595,-0.8334275484085083
2024-12-07 20:18:24.485762000,4.992761962890625,-0.422341376543045,0.771465539932251,-0.8563240766525269
2024-12-07 20:18:24.495776300,5.0027763671875,-0.4077808558940887,0.9455785751342772,-0.7861824631690979
2024-12-07 20:18:24.505790000,5.0127900390625,-0.3713514804840088,0.9843561053276062,-0.5424484014511108
2024-12-07 20:18:24.515804200,5.02280419921875,-0.3225855231285095,0.8087244629859924,-0.0790836736559867
2024-12-07 20:18:24.525818000,5.032818115234375,-0.2205558568239212,0.1110326871275901,0.602307140827179
2024-12-07 20:18:24.535832000,5.04283203125,-0.2061365246772766,-0.631721019744873,1.0823497772216797
2024-12-07 20:18:24.545846000,5.052845947265625,-0.1076645478606224,-0.255453884601593,0.9316311478614808
2024-12-07 20:18:24.555860000,5.06285986328125,0.0621257834136486,-0.1620678603649139,0.6647053360939026
2024-12-07 20:18:24.565874200,5.072874267578125,0.2895325720310211,-0.1635946482419967,0.3027956485748291
2024-12-07 20:18:24.575888100,5.08288818359375,0.4114367067813873,-0.2177552580833435,0.2276494652032852
2024-12-07 20:18:24.585902000,5.092902099609375,0.4177678227424621,-0.1928946524858474,0.5198456645011902
2024-12-07 20:18:24.595916000,5.102916015625,0.483376145362854,0.1736254841089248,0.9011141657829284
2024-12-07 20:18:24.605930000,5.112929931640625,0.6546139121055603,0.7711512446403503,1.1517112255096436
2024-12-07 20:18:24.615943200,5.122943115234375,0.8159456849098206,1.3098270893096924,1.2082582712173462
2024-12-07 20:18:24.625957000,5.13295703125,0.8930833339691162,1.58954119682312,1.1819310188293457
2024-12-07 20:18:24.635971000,5.14297119140625,0.8813459277153015,1.6578329801559448,1.1697015762329102
2024-12-07 20:18:24.645985000,5.152985107421875,0.8061904311180115,1.5795128345489502,1.2084375619888306
2024-12-07 20:18:24.655999200,5.162999267578125,0.6881489157676697,1.352177977561951,1.2255357503890991
2024-12-07 20:18:24.666013000,5.173012939453125,0.5806930065155029,1.0249439477920532,1.1449648141860962
2024-12-07 20:18:24.676027100,5.183027099609375,0.5067234635353088,0.7020295262336731,1.0034846067428589
2024-12-07 20:18:24.686041000,5.193041015625,0.4199324548244476,0.4219818413257599,0.8313524127006531
2024-12-07 20:18:24.696055300,5.20305517578125,0.2994803786277771,0.2309873849153518,0.6583043932914734
2024-12-07 20:18:24.706069000,5.213069091796875,0.1966392397880554,0.0765639990568161,0.5199611186981201
2024-12-07 20:18:24.716083000,5.2230830078125,0.1573117226362228,0.0085855443030595,0.4165306687355041
2024-12-07 20:18:24.726097200,5.23309716796875,0.2131432890892028,0.0631633028388023,0.3115826845169067
2024-12-07 20:18:24.736111000,5.243111083984375,0.3561834990978241,0.2042227834463119,0.2259131222963333
2024-12-07 20:18:24.746125000,5.253125,0.5150362849235535,0.2523745894432068,0.1734123677015304
2024-12-07 20:18:24.756139000,5.263138916015625,0.6225552558898926,0.1984100639820099,0.1924106031656265
2024-12-07 20:18:24.766153200,5.2731533203125,0.6815751791000366,0.0388600826263427,0.2462623864412307
2024-12-07 20:18:24.776167200,5.283167236328125,0.6879605650901794,-0.1599450707435608,0.2836617231369018
2024-12-07 20:18:24.786180900,5.293180908203125,0.6635454893112183,-0.3509522974491119,0.3046706020832062
2024-12-07 20:18:24.796195000,5.303195068359375,0.6263310313224792,-0.4993495941162109,0.3081510961055755
2024-12-07 20:18:24.806208300,5.313208251953125,0.598259449005127,-0.5618516206741333,0.3077819645404815
2024-12-07 20:18:24.816222200,5.32322216796875,0.5879907608032227,-0.5368633270263672,0.3120639026165008
2024-12-07 20:18:24.826236000,5.33323583984375,0.5853374600410461,-0.4923148155212402,0.3273967802524566
2024-12-07 20:18:24.836250000,5.34325,0.6113231778144836,-0.4826444387435913,0.3525165319442749
2024-12-07 20:18:24.846264000,5.35326416015625,0.6646489500999451,-0.5312868356704712,0.3761667609214782
2024-12-07 20:18:24.856278300,5.3632783203125,0.723714292049408,-0.5764681100845337,0.3745386898517608
2024-12-07 20:18:24.866292000,5.3732919921875,0.7461621165275574,-0.5707362294197083,0.3396510183811188
2024-12-07 20:18:24.876306200,5.38330615234375,0.7375381588935852,-0.5107232332229614,0.2775234878063202
2024-12-07 20:18:24.886320000,5.393320068359375,0.7128000855445862,-0.404164046049118,0.1937942653894424
2024-12-07 20:18:24.896334000,5.403333984375,0.6933332085609436,-0.2966068983078003,0.1242028176784515
2024-12-07 20:18:24.906348000,5.41334814453125,0.6732417941093445,-0.2361565977334976,0.0841273069381713
2024-12-07 20:18:24.916362000,5.423362060546875,0.6300167441368103,-0.2377754747867584,0.0491803362965583
2024-12-07 20:18:24.926376200,5.433376220703125,0.5334476232528687,-0.2703581750392914,0.0063100988045334
2024-12-07 20:18:24.936390100,5.44339013671875,0.3892457485198974,-0.300744354724884,-0.046268917620182
2024-12-07 20:18:24.946404000,5.453404052734375,0.2396197468042373,-0.3377881050109863,-0.0852453485131263
2024-12-07 20:18:24.956418000,5.46341796875,0.1022368222475051,-0.3941617310047149,-0.0851994901895523
2024-12-07 20:18:24.966432000,5.473431884765625,-0.0001939502544701,-0.4293657839298248,-0.0643746331334114
2024-12-07 20:18:24.976446500,5.483446533203125,-0.0299484394490718,-0.4186494648456573,-0.0296771526336669
2024-12-07 20:18:24.986459100,5.493459228515625,0.003396202577278,-0.4311162531375885,-0.0096232816576957
2024-12-07 20:18:24.996473300,5.503473388671875,0.0444668158888816,-0.4553636014461517,-0.0198595356196165
2024-12-07 20:18:25.006487300,5.5134873046875,0.0641137510538101,-0.4486383199691772,-0.0556465610861778
2024-12-07 20:18:25.016501500,5.52350146484375,0.0836399346590042,-0.3759138286113739,-0.1359304040670395
2024-12-07 20:18:25.026515200,5.53351513671875,0.1233972012996673,-0.2536877691745758,-0.2610984444618225
2024-12-07 20:18:25.036529400,5.543529296875,0.1584286987781524,-0.1145137250423431,-0.3720861971378326
2024-12-07 20:18:25.046543400,5.55354345703125,0.1892933994531631,-0.0155474608764052,-0.4376969039440155
2024-12-07 20:18:25.056557300,5.563557373046875,0.225207895040512,0.0583194643259048,-0.4415165185928345
2024-12-07 20:18:25.066571300,5.5735712890625,0.2775405943393707,0.1823319494724273,-0.359242171049118
2024-12-07 20:18:25.076585200,5.583585205078125,0.3085824847221374,0.2973407804965973,-0.2464964836835861
2024-12-07 20:18:25.086599400,5.593599365234375,0.2759326696395874,0.2547826766967773,-0.164911076426506
2024-12-07 20:18:25.096613400,5.60361328125,0.1950870156288147,0.1415365934371948,-0.1568483263254165
2024-12-07 20:18:25.106627300,5.61362744140625,0.1485434770584106,0.069403275847435,-0.3125529587268829
2024-12-07 20:18:25.116641300,5.623641357421875,0.1483330428600311,-0.0836426243185997,-0.5146830677986145
2024-12-07 20:18:25.126655200,5.6336552734375,0.0521053038537502,-0.564215362071991,-0.4129303097724914
2024-12-07 20:18:25.136669400,5.64366943359375,-0.1798550933599472,-1.1208714246749878,0.2179765999317169
2024-12-07 20:18:25.146683100,5.65368310546875,-0.3960678279399872,-1.080382227897644,0.6597830057144165
2024-12-07 20:18:25.156697300,5.663697265625,-0.5402208566665649,-0.6875684261322021,0.5399741530418396
2024-12-07 20:18:25.166710300,5.673710205078125,-0.6500253677368164,-0.3719854354858398,0.0349008589982986
2024-12-07 20:18:25.176724500,5.683724365234375,-0.7001571655273438,-0.2594307661056518,-0.4857160151004791
2024-12-07 20:18:25.186738200,5.69373828125,-0.6749343872070312,-0.1374159306287765,-0.7602985501289368
2024-12-07 20:18:25.196752400,5.70375244140625,-0.5421724915504456,-0.0787002816796302,-0.8314335346221924
2024-12-07 20:18:25.206766300,5.713766357421875,-0.3714990019798279,-0.0845746845006942,-0.823177695274353
2024-12-07 20:18:25.216780500,5.723780517578125,-0.2189555764198303,-0.0712332427501678,-0.7628976106643677
2024-12-07 20:18:25.226794200,5.733794189453125,-0.1523256748914718,-0.1009349450469017,-0.6382017731666565
2024-12-07 20:18:25.236808200,5.74380810546875,-0.2337317466735839,-0.213625967502594,-0.4889658391475677
2024-12-07 20:18:25.246822400,5.753822509765625,-0.4250590801239013,-0.3623539209365845,-0.3937940299510956
2024-12-07 20:18:25.256836400,5.76383642578125,-0.5557446479797363,-0.4325230419635772,-0.3496846556663513
2024-12-07 20:18:25.266850300,5.773850341796875,-0.5845198035240173,-0.4475288987159729,-0.3412115573883056
2024-12-07 20:18:25.276864300,5.7838642578125,-0.5597038865089417,-0.3753711581230163,-0.3322777152061462
2024-12-07 20:18:25.286878500,5.79387841796875,-0.4879804849624634,-0.1813369691371917,-0.3058599531650543
2024-12-07 20:18:25.296892400,5.803892333984375,-0.3779802918434143,0.0747737064957618,-0.2870246469974518
2024-12-07 20:18:25.306906000,5.813906005859375,-0.2645144760608673,0.2707821130752563,-0.3278237581253052
2024-12-07 20:18:25.316920300,5.82392041015625,-0.1948376148939132,0.3914817869663238,-0.404519110918045
2024-12-07 20:18:25.326934300,5.833934326171875,-0.1648331135511398,0.46674245595932,-0.4471486210823059
2024-12-07 20:18:25.336948500,5.843948486328125,-0.147517129778862,0.5316706895828247,-0.4625542461872101
2024-12-07 20:18:25.346961200,5.853961181640625,-0.1532205492258072,0.5708037614822388,-0.4743571281433105
2024-12-07 20:18:25.356975400,5.863975341796875,-0.1963105499744415,0.5675462484359741,-0.4685174822807312
2024-12-07 20:18:25.366989300,5.8739892578125,-0.2439142763614654,0.53251713514328,-0.4447322487831116
2024-12-07 20:18:25.377003500,5.88400341796875,-0.2802651822566986,0.49019855260849,-0.4304304718971252
2024-12-07 20:18:25.387017200,5.894017333984375,-0.3171031177043915,0.4144539833068847,-0.4072740077972412
2024-12-07 20:18:25.397031400,5.904031494140625,-0.317211776971817,0.3274695575237274,-0.3649421036243438
2024-12-07 20:18:25.407045400,5.91404541015625,-0.2837057709693908,0.2851926982402801,-0.3361333608627319
2024-12-07 20:18:25.417059300,5.924059326171875,-0.2545006573200226,0.2421636134386062,-0.3372015058994293
2024-12-07 20:18:25.427073300,5.9340732421875,-0.277852326631546,0.1649300754070282,-0.3589789867401123
2024-12-07 20:18:25.437087200,5.944087158203125,-0.3497578203678131,0.0627967342734336,-0.3700217306613922
2024-12-07 20:18:25.447101400,5.954101318359375,-0.4367534220218658,-0.0331223383545875,-0.3483198881149292
2024-12-07 20:18:25.457115400,5.964115478515625,-0.4935942590236664,-0.0945729836821556,-0.3022693991661072
2024-12-07 20:18:25.467129300,5.97412939453125,-0.503591775894165,-0.1351164132356643,-0.253644049167633
2024-12-07 20:18:25.477143300,5.984143310546875,-0.4952874779701233,-0.1500966995954513,-0.225173532962799
2024-12-07 20:18:25.487157200,5.9941572265625,-0.4951964020729065,-0.1414675265550613,-0.2145672291517257
2024-12-07 20:18:25.497171500,6.00417138671875,-0.5179927349090576,-0.1172578632831573,-0.2121639847755432
2024-12-07 20:18:25.507185200,6.01418505859375,-0.5294278264045715,-0.0909740626811981,-0.1953178942203521
2024-12-07 20:18:25.517199400,6.024199462890625,-0.4925418496131897,-0.0597030818462371,-0.1689434498548507
2024-12-07 20:18:25.527212300,6.03421240234375,-0.4106190204620361,9.42038604989e-05,-0.1263667047023773
2024-12-07 20:18:25.537226500,6.0442265625,-0.3152778744697571,0.0834609940648078,-0.0803944170475006
2024-12-07 20:18:25.547240200,6.054240234375,-0.2506903409957886,0.1638194769620895,-0.0386011637747287
2024-12-07 20:18:25.557254400,6.06425439453125,-0.2078296244144439,0.2210907638072967,-0.0073586581274867
2024-12-07 20:18:25.567268400,6.074268310546875,-0.1844329535961151,0.2387685626745224,0.0043304888531565
2024-12-07 20:18:25.577282300,6.0842822265625,-0.1946884095668792,0.2205329686403274,0.0064252484589815
2024-12-07 20:18:25.587296300,6.094296142578125,-0.2317697256803512,0.1668545603752136,0.0023271760437637
2024-12-07 20:18:25.597310200,6.104310302734375,-0.2966786324977875,0.0886816680431366,-0.0065502962097525
2024-12-07 20:18:25.607324400,6.114324462890625,-0.3599579930305481,0.0118521330878138,-0.0079047800973057
2024-12-07 20:18:25.617338400,6.12433837890625,-0.3918545842170715,-0.042742732912302,0.0061728633008897
2024-12-07 20:18:25.627352300,6.134352294921875,-0.3863261342048645,-0.0585837475955486,0.0272967908531427
2024-12-07 20:18:25.637366300,6.1443662109375,-0.3525227010250091,-0.028876194730401,0.0540246441960334
2024-12-07 20:18:25.647380500,6.15438037109375,-0.3023000061511993,0.0179751999676227,0.0843090415000915
2024-12-07 20:18:25.657394400,6.16439453125,-0.2463424801826477,0.0562361814081668,0.1085946559906005
2024-12-07 20:18:25.667408100,6.174408203125,-0.1892949193716049,0.0555195249617099,0.1156523004174232
2024-12-07 20:18:25.677422300,6.18442236328125,-0.1480948328971862,0.0269390773028135,0.0963276997208595
2024-12-07 20:18:25.687436300,6.194436279296875,-0.137915164232254,0.0098160179331898,0.0656403601169586
2024-12-07 20:18:25.697449500,6.204449462890625,-0.1533440202474594,0.0115874232724308,0.0253204517066478
2024-12-07 20:18:25.707463200,6.214463134765625,-0.1727083921432495,-0.0289376322180032,0.0056548700667917
2024-12-07 20:18:25.717477400,6.224477294921875,-0.1855244487524032,-0.1246447563171386,0.0083866119384765
2024-12-07 20:18:25.727491300,6.2344912109375,-0.1947064995765686,-0.210471510887146,0.0032829295378178
2024-12-07 20:18:25.737505500,6.244505615234375,-0.2052291333675384,-0.2479274868965149,-0.0203936100006103
2024-12-07 20:18:25.747519200,6.254519287109375,-0.2079335749149322,-0.2010385394096374,-0.0555907450616359
2024-12-07 20:18:25.757533200,6.264533203125,-0.1893464475870132,-0.0933451354503631,-0.0979031771421432
2024-12-07 20:18:25.767547400,6.27454736328125,-0.121772713959217,0.0180322472006082,-0.1454688310623169
2024-12-07 20:18:25.777561300,6.284561279296875,-0.0486283712089061,0.1497866809368133,-0.1955115795135498
2024-12-07 20:18:25.787575300,6.2945751953125,-0.0096985483542084,0.2702441215515136,-0.2561104595661163
2024-12-07 20:18:25.797589200,6.30458935546875,0.0077628465369343,0.357465922832489,-0.3287464678287506
2024-12-07 20:18:25.807603500,6.314603515625,0.0118590546771883,0.4059421122074127,-0.3974855840206146
2024-12-07 20:18:25.817617400,6.324617431640625,-0.0146436588838696,0.398258626461029,-0.4455066621303558
2024-12-07 20:18:25.827631400,6.33463134765625,-0.0779371410608291,0.3284928798675537,-0.4613662958145141
2024-12-07 20:18:25.837645300,6.344645263671875,-0.145101711153984,0.2261243015527725,-0.4552424550056457
2024-12-07 20:18:25.847659300,6.3546591796875,-0.2282605022192001,0.1293793767690658,-0.4396592378616333
2024-12-07 20:18:25.857673500,6.364673583984375,-0.295864999294281,0.0812031701207161,-0.4236380755901336
2024-12-07 20:18:25.867686100,6.37468603515625,-0.3428828418254852,0.0995805785059928,-0.3899104595184326
2024-12-07 20:18:25.877700400,6.384700439453125,-0.3689192235469818,0.1734166443347931,-0.3311030566692352
2024-12-07 20:18:25.887714300,6.39471435546875,-0.3792709112167358,0.2689974904060364,-0.245212122797966
2024-12-07 20:18:25.897728500,6.404728515625,-0.3709017038345337,0.3500586152076721,-0.1635811179876327
2024-12-07 20:18:25.907742200,6.4147421875,-0.3453723788261413,0.3854467272758484,-0.1158013418316841
2024-12-07 20:18:25.917756400,6.42475634765625,-0.311201810836792,0.3938814699649811,-0.09950502961874
2024-12-07 20:18:25.927770400,6.434770263671875,-0.2932257652282715,0.4183633625507355,-0.1203906089067459
2024-12-07 20:18:25.937784300,6.444784423828125,-0.2862632870674133,0.4394530951976776,-0.1468234658241272
2024-12-07 20:18:25.947798300,6.45479833984375,-0.2901850640773773,0.4140992760658264,-0.1352658718824386
2024-12-07 20:18:25.957812200,6.464812255859375,-0.2657780647277832,0.3389788269996643,-0.0467617586255073
2024-12-07 20:18:25.967826400,6.474826416015625,-0.1780631393194198,0.1947502791881561,0.1116843372583389
2024-12-07 20:18:25.977839400,6.48483935546875,-0.0219041220843791,0.0027037062682211,0.3050723969936371
2024-12-07 20:18:25.987853600,6.494853515625,0.1747016161680221,-0.1591445803642273,0.4992794096469879
2024-12-07 20:18:25.997867500,6.504867431640625,0.3500522077083587,-0.155798465013504,0.6683453321456909
2024-12-07 20:18:26.007881700,6.5148818359375,0.44657102227211,0.0977142304182052,0.7554216384887695
2024-12-07 20:18:26.017895400,6.5248955078125,0.5617626309394836,0.4827486574649811,0.8163297772407532
2024-12-07 20:18:26.027909600,6.53490966796875,0.7318451404571533,0.8910626173019409,0.9139154553413392
2024-12-07 20:18:26.037922600,6.544922607421875,0.9139237403869628,1.3101495504379272,0.9967637062072754
2024-12-07 20:18:26.047936800,6.554936767578125,1.0968602895736694,1.670682072639465,0.9824109077453612
2024-12-07 20:18:26.057950500,6.564950439453125,1.23771333694458,1.8622941970825195,0.8995497822761536
2024-12-07 20:18:26.067964700,6.574964599609375,1.288293480873108,1.927929162979126,0.8865679502487183
2024-12-07 20:18:26.077978600,6.584978515625,1.2311440706253052,1.92646324634552,1.0026443004608154
2024-12-07 20:18:26.087992600,6.59499267578125,1.110836386680603,1.7267290353775024,1.1222742795944214
2024-12-07 20:18:26.098006500,6.605006591796875,0.9259642958641052,1.142838954925537,1.0952080488204956
2024-12-07 20:18:26.108020500,6.6150205078125,0.6716185212135315,0.3325203955173492,0.956962823867798
2024-12-07 20:18:26.118034700,6.62503466796875,0.3975876569747925,-0.3742528557777405,0.7904871702194214
2024-12-07 20:18:26.128048600,6.635048583984375,0.204329252243042,-0.8406535983085632,0.6361026167869568
2024-12-07 20:18:26.138062600,6.6450625,0.1596616804599762,-0.960111916065216,0.5865870118141174
2024-12-07 20:18:26.148076500,6.65507666015625,0.2318660914897918,-0.8746960759162903,0.6516621112823486
2024-12-07 20:18:26.158090500,6.665090576171875,0.387208342552185,-0.7359068989753723,0.7182018756866455
2024-12-07 20:18:26.168104700,6.675104736328125,0.6107476353645325,-0.5822883248329163,0.6823554635047913
2024-12-07 20:18:26.178118400,6.685118408203125,0.802706778049469,-0.4047440588474273,0.5505585670471191
2024-12-07 20:18:26.188132600,6.695132568359375,0.883912980556488,-0.2723977565765381,0.3745390474796295
2024-12-07 20:18:26.198145500,6.7051455078125,0.8664132952690125,-0.2268588542938232,0.2120957821607589
2024-12-07 20:18:26.208159700,6.71515966796875,0.8147298693656921,-0.2582346200942993,0.0917541831731796
2024-12-07 20:18:26.218173400,6.72517333984375,0.7524585127830505,-0.3202792108058929,0.0122423395514488
2024-12-07 20:18:26.228187600,6.735187744140625,0.692560076713562,-0.3507923781871795,-0.0350202471017837
2024-12-07 20:18:26.238201600,6.74520166015625,0.6455896496772766,-0.3553275763988495,-0.0600215271115303
2024-12-07 20:18:26.248215600,6.755215576171875,0.6000410914421082,-0.3886967301368713,-0.0517646670341491
2024-12-07 20:18:26.258229500,6.7652294921875,0.5626874566078186,-0.4872512221336365,-0.0045072743669152
2024-12-07 20:18:26.268243500,6.775243408203125,0.5209229588508606,-0.6595215201377869,0.0743023231625557
2024-12-07 20:18:26.278257700,6.785257568359375,0.479552686214447,-0.8289464712142944,0.1362803727388382
2024-12-07 20:18:26.288271600,6.795271728515625,0.4338749349117279,-0.9346617460250854,0.1437713056802749
2024-12-07 20:18:26.298285600,6.80528564453125,0.3992144763469696,-0.9290833473205566,0.0766928195953369
2024-12-07 20:18:26.308299500,6.815299560546875,0.3814381659030914,-0.7727720737457275,-0.0135459974408149
2024-12-07 20:18:26.318313500,6.8253134765625,0.3482871949672699,-0.5709646940231323,-0.0815479084849357
2024-12-07 20:18:26.328327700,6.83532763671875,0.2946000099182129,-0.3870518505573272,-0.1415894031524658
2024-12-07 20:18:26.338341400,6.84534130859375,0.2492531090974807,-0.2615959346294403,-0.1882119327783584
2024-12-07 20:18:26.348355600,6.85535546875,0.2340405881404876,-0.1622674912214279,-0.2070551216602325
2024-12-07 20:18:26.358369500,6.86536962890625,0.2651791274547577,-0.0435886122286319,-0.2278162986040115
2024-12-07 20:18:26.368382700,6.8753828125,0.3304585516452789,0.1129469349980354,-0.2308011651039123
2024-12-07 20:18:26.378396400,6.885396484375,0.3972172439098358,0.2029709368944168,-0.2091317921876907
2024-12-07 20:18:26.388410600,6.89541064453125,0.4873207807540893,0.1853107213973999,-0.1853742748498916
2024-12-07 20:18:26.398424600,6.905424560546875,0.6008462905883789,0.1664578765630722,-0.1662176102399826
2024-12-07 20:18:26.408438800,6.915438720703125,0.6614665389060974,0.1925691068172454,-0.1368392258882522
2024-12-07 20:18:26.418452500,6.925452392578125,0.5945274233818054,0.1455486267805099,-0.1004909947514534
2024-12-07 20:18:26.428466400,6.935466552734375,0.3760344684123993,-0.1819104701280594,-0.0754354447126388
2024-12-07 20:18:26.438480600,6.945480712890625,-0.0086634196341037,-0.7083313465118408,-0.0412913337349891
2024-12-07 20:18:26.448494600,6.95549462890625,-0.4390281140804291,-1.0532232522964478,0.0493972934782505
2024-12-07 20:18:26.458508500,6.965508544921875,-0.7553355097770691,-1.0004175901412964,0.1448142826557159
2024-12-07 20:18:26.468522500,6.9755224609375,-0.8309221267700195,-0.3302283883094787,0.0238801278173923
2024-12-07 20:18:26.478536700,6.98553662109375,-0.5428374409675598,0.6733222603797913,-0.3106683790683746
2024-12-07 20:18:26.488550700,6.995550537109375,-0.0438627563416957,1.1673630475997925,-0.6885879635810852
2024-12-07 20:18:26.498564600,7.005564697265625,0.152657151222229,0.344409167766571,-0.5605352520942688
2024-12-07 20:18:26.508578600,7.01557861328125,-0.0538563355803489,-0.8336473703384399,0.2533286511898041
2024-12-07 20:18:26.518592500,7.025592529296875,-0.3978267014026642,-0.9952784180641174,0.6042755246162415
2024-12-07 20:18:26.528605400,7.03560546875,-0.6637561321258545,-0.4959266781806946,0.324599415063858
2024-12-07 20:18:26.538619400,7.045619384765625,-0.8426697850227356,0.0748830512166023,-0.218472346663475
2024-12-07 20:18:26.548633600,7.055633544921875,-0.9377135038375854,0.1971841901540756,-0.7353431582450867
2024-12-07 20:18:26.558647600,7.0656474609375,-0.9371995329856871,0.1520098447799682,-1.059099555015564
2024-12-07 20:18:26.568661800,7.075661865234375,-0.8170536756515503,0.2864046394824981,-1.151439905166626
2024-12-07 20:18:26.578675500,7.085675537109375,-0.6096166372299194,0.3977361917495727,-1.0183273553848269
2024-12-07 20:18:26.588689700,7.095689697265625,-0.392775684595108,0.3508744239807129,-0.7616947889328003
2024-12-07 20:18:26.598703600,7.10570361328125,-0.2495696693658828,0.2306777536869049,-0.5237504243850708
2024-12-07 20:18:26.608717600,7.115717529296875,-0.216554194688797,0.1574126034975052,-0.3576458990573883
2024-12-07 20:18:26.618731500,7.1257314453125,-0.2722547054290771,0.1470112651586532,-0.2764842808246612
2024-12-07 20:18:26.628745500,7.135745361328125,-0.3459696769714355,0.1092116832733154,-0.2581785023212433
2024-12-07 20:18:26.638759700,7.145759765625,-0.3807308673858642,0.0381917133927345,-0.2774747014045715
2024-12-07 20:18:26.648773600,7.155773681640625,-0.3527623414993286,-0.034824438393116,-0.3146314024925232
2024-12-07 20:18:26.658787600,7.16578759765625,-0.2805395424365997,-0.08201415091753,-0.3584601581096649
2024-12-07 20:18:26.668801500,7.175801513671875,-0.2192761749029159,-0.0540634728968143,-0.3969588279724121
2024-12-07 20:18:26.678815500,7.1858154296875,-0.2079228013753891,-0.0101292757317423,-0.3994745016098022
2024-12-07 20:18:26.688829700,7.19582958984375,-0.2436754703521728,0.0181894470006227,-0.3739486336708069
2024-12-07 20:18:26.698842600,7.205842529296875,-0.2914938032627105,0.0402811728417873,-0.3492417931556701
2024-12-07 20:18:26.708856600,7.215856689453125,-0.3239076733589172,0.058155246078968,-0.3264323472976684
2024-12-07 20:18:26.718870500,7.22587060546875,-0.3281427025794983,0.0768296867609024,-0.2916907072067261
2024-12-07 20:18:26.728884700,7.235884765625,-0.3049907982349396,0.07846699655056,-0.2352713644504547
2024-12-07 20:18:26.738898400,7.2458984375,-0.262529194355011,0.0795117169618606,-0.1787709444761276
2024-12-07 20:18:26.748912600,7.25591259765625,-0.2301166802644729,0.071726493537426,-0.1429780572652816
2024-12-07 20:18:26.758926600,7.265926513671875,-0.2094655781984329,0.0726418420672416,-0.1451455503702163
2024-12-07 20:18:26.768940800,7.27594091796875,-0.2025701254606247,0.0972089692950248,-0.1800321638584137
2024-12-07 20:18:26.778954500,7.28595458984375,-0.2212534695863723,0.122521735727787,-0.2382795214653015
2024-12-07 20:18:26.788968400,7.295968505859375,-0.2695251107215881,0.1110440492630004,-0.3068457841873169
2024-12-07 20:18:26.798982700,7.305982666015625,-0.3351352214813232,0.0674697756767273,-0.3500809073448181
2024-12-07 20:18:26.808996600,7.31599658203125,-0.3931204974651336,0.018178392201662,-0.354200541973114
2024-12-07 20:18:26.819010600,7.326010498046875,-0.4387946724891662,-0.0380169339478015,-0.3113962411880493
2024-12-07 20:18:26.829024500,7.3360244140625,-0.4649932384490967,-0.1016614288091659,-0.2261873483657837
2024-12-07 20:18:26.839038700,7.346038818359375,-0.4740986227989197,-0.1792026460170745,-0.1271302253007888
2024-12-07 20:18:26.849052700,7.356052734375,-0.457711398601532,-0.2487226128578186,-0.0425937660038471
2024-12-07 20:18:26.859065600,7.366065673828125,-0.4237822592258453,-0.2859116494655609,0.0092985061928629
2024-12-07 20:18:26.869079600,7.37607958984375,-0.3833602666854858,-0.2964305877685547,0.029694590717554
2024-12-07 20:18:26.879093800,7.38609375,-0.3433132767677307,-0.2869591414928436,0.0317668430507183
2024-12-07 20:18:26.889107500,7.396107421875,-0.3049770593643188,-0.2684970498085022,0.0219829231500625
2024-12-07 20:18:26.899121400,7.406121337890625,-0.2672938406467438,-0.2281485199928283,0.0081853149458765
2024-12-07 20:18:26.909135600,7.416135498046875,-0.2314732521772384,-0.1513397693634033,-0.0192170143127441
2024-12-07 20:18:26.919149600,7.426149658203125,-0.2103255838155746,-0.0827060118317604,-0.0444459840655326
2024-12-07 20:18:26.929163800,7.436163818359375,-0.2110126763582229,-0.0615424066781997,-0.050108928233385
2024-12-07 20:18:26.939177500,7.446177490234375,-0.2265277206897735,-0.0868647322058677,-0.0342420935630798
2024-12-07 20:18:26.949191700,7.456191650390625,-0.2549662888050079,-0.1296036690473556,-0.0090216919779777
2024-12-07 20:18:26.959205600,7.46620556640625,-0.2935231924057007,-0.1784586310386657,0.0197858959436416
2024-12-07 20:18:26.969219600,7.476219482421875,-0.3292580246925354,-0.2186297476291656,0.0521062836050987
2024-12-07 20:18:26.979234000,7.486234130859375,-0.3502762615680694,-0.2262720465660095,0.0784021839499473
2024-12-07 20:18:26.989248000,7.496248046875,-0.3436772227287292,-0.2080291211605072,0.0901366099715232
2024-12-07 20:18:26.999262200,7.50626220703125,-0.3116248846054077,-0.1806009858846664,0.0810071602463722
2024-12-07 20:18:27.009276200,7.516276123046875,-0.2696710526943207,-0.1570972651243209,0.0640635937452316
2024-12-07 20:18:27.019289000,7.5262890625,-0.2032508552074432,-0.123167298734188,0.0454463772475719
2024-12-07 20:18:27.029303000,7.536302978515625,-0.134019061923027,-0.0695408210158348,0.0302141606807708
2024-12-07 20:18:27.039317200,7.546317138671875,-0.1026731207966804,-0.0020085996948182,0.0197880733758211
2024-12-07 20:18:27.049331200,7.556331298828125,-0.0889128297567367,0.0551223307847976,0.0119013879448175
2024-12-07 20:18:27.059345000,7.566344970703125,-0.0959771573543548,0.1007202714681625,0.0047452636063098
2024-12-07 20:18:27.069359000,7.576359130859375,-0.1215727999806404,0.1413720995187759,-0.0012820027768611
2024-12-07 20:18:27.079373000,7.586373046875,-0.1831853687763214,0.1499682813882827,-0.0313517265021801
2024-12-07 20:18:27.089387300,7.59638720703125,-0.2244182825088501,0.1293053478002548,-0.0768486410379409
2024-12-07 20:18:27.099401000,7.60640087890625,-0.2428105622529983,0.0868233814835548,-0.124339148402214
2024-12-07 20:18:27.109415200,7.616415283203125,-0.2502298653125763,0.0444471649825573,-0.1666453331708908
2024-12-07 20:18:27.119429000,7.62642919921875,-0.2687235176563263,0.0311950948089361,-0.2093578577041626
2024-12-07 20:18:27.129443000,7.636443115234375,-0.2931796014308929,0.0523142293095588,-0.2436598986387252
2024-12-07 20:18:27.139457000,7.64645703125,-0.3235225975513458,0.0937365964055061,-0.2714903950691223
2024-12-07 20:18:27.149471000,7.656470947265625,-0.349470853805542,0.1425310224294662,-0.2919988632202148
2024-12-07 20:18:27.159485200,7.666485107421875,-0.3632310330867767,0.1831805557012558,-0.2991096675395965
2024-12-07 20:18:27.169497900,7.676497802734375,-0.368143767118454,0.1929722130298614,-0.292911946773529
2024-12-07 20:18:27.179512000,7.686511962890625,-0.3711806237697601,0.185115784406662,-0.2752147018909454
2024-12-07 20:18:27.189526000,7.696526123046875,-0.3749953508377075,0.1601659506559372,-0.252648115158081
2024-12-07 20:18:27.199540200,7.706540283203125,-0.3844341337680816,0.140512928366661,-0.2341089844703674
2024-12-07 20:18:27.209554200,7.71655419921875,-0.4000860452651977,0.1434240192174911,-0.2264034003019333
2024-12-07 20:18:27.219568000,7.726568115234375,-0.4171003103256225,0.1642389893531799,-0.2237981557846069
2024-12-07 20:18:27.229582000,7.73658203125,-0.4428706467151642,0.2006915360689163,-0.2263854146003723
2024-12-07 20:18:27.239596000,7.746595947265625,-0.4690654873847961,0.2526061534881592,-0.234604462981224
2024-12-07 20:18:27.249610200,7.7566103515625,-0.474205732345581,0.2943135797977447,-0.2493041455745697
2024-12-07 20:18:27.259624000,7.7666240234375,-0.4489388465881347,0.3191238939762115,-0.2532549500465393
2024-12-07 20:18:27.269638100,7.77663818359375,-0.4075520038604736,0.3482069671154022,-0.2176881581544876
2024-12-07 20:18:27.279652000,7.786652099609375,-0.3583997189998626,0.3738900125026703,-0.1174429655075073
2024-12-07 20:18:27.289666000,7.796666015625,-0.2985094785690307,0.3564047515392303,0.0475196242332458
2024-12-07 20:18:27.299680000,7.806679931640625,-0.2028927952051162,0.2975029647350311,0.2856816947460174
2024-12-07 20:18:27.309694000,7.81669384765625,-0.0488803163170814,0.1954812705516815,0.5755305290222168
2024-12-07 20:18:27.319708200,7.826708251953125,0.18348428606987,0.1010881513357162,0.8313474059104919
2024-12-07 20:18:27.329721000,7.83672119140625,0.4704912900924682,0.0713893771171569,0.9570499062538148
2024-12-07 20:18:27.339735000,7.846735107421875,0.7052988409996033,0.1661181151866912,0.8851191401481628
2024-12-07 20:18:27.349749000,7.8567490234375,0.7984561920166016,0.3717873990535736,0.7249496579170227
2024-12-07 20:18:27.359763200,7.86676318359375,0.8462861776351929,0.6832235455513,0.5752940773963928
2024-12-07 20:18:27.369777000,7.87677685546875,0.9066834449768066,1.0468177795410156,0.4978187680244446
2024-12-07 20:18:27.379791000,7.886791015625,0.9596697092056274,1.4360344409942627,0.5317937731742859
2024-12-07 20:18:27.389805000,7.89680517578125,0.982558250427246,1.8403995037078853,0.6883053183555603
2024-12-07 20:18:27.399819000,7.906819091796875,0.9648192524909972,2.094576835632324,0.9213920831680298
2024-12-07 20:18:27.409833200,7.916833251953125,0.9276537895202636,2.058224678039551,1.077566623687744
2024-12-07 20:18:27.419847000,7.926846923828125,0.8516377210617065,1.6386315822601318,1.0263686180114746
2024-12-07 20:18:27.429861000,7.936861083984375,0.7180551886558533,0.9870814681053162,0.8153471946716309
2024-12-07 20:18:27.439875000,7.946875,0.5013453364372253,0.400927871465683,0.5923953056335449
2024-12-07 20:18:27.449889300,7.95688916015625,0.2463881224393844,0.0304108038544654,0.4339191317558288
2024-12-07 20:18:27.459903000,7.966903076171875,0.0917726829648017,-0.1932316571474075,0.346655011177063
2024-12-07 20:18:27.469917200,7.976917236328125,0.0936214476823806,-0.2728692293167114,0.3412432074546814
2024-12-07 20:18:27.479930000,7.98693017578125,0.164850577712059,-0.2522562444210052,0.4193698465824127
2024-12-07 20:18:27.489944000,7.996944091796875,0.2780112028121948,-0.2642180919647217,0.5382989048957825
2024-12-07 20:18:27.499958000,8.0069580078125,0.4320389330387115,-0.2974186241626739,0.6127114295959473
2024-12-07 20:18:27.509972000,8.016971923828125,0.586714506149292,-0.2942401468753814,0.5881485939025879
2024-12-07 20:18:27.519986200,8.026986083984376,0.6769956350326538,-0.2531537115573883,0.4798484742641449
2024-12-07 20:18:27.530000000,8.036999755859375,0.6850684881210327,-0.2281069457530975,0.3499866127967834
2024-12-07 20:18:27.540014000,8.04701416015625,0.6464216709136963,-0.2271122634410858,0.2321937829256057
2024-12-07 20:18:27.550028000,8.057028076171875,0.5942628383636475,-0.2553998231887817,0.1429222226142883
2024-12-07 20:18:27.560042200,8.067042236328126,0.5581093430519104,-0.3137981295585632,0.091697983443737
2024-12-07 20:18:27.570056000,8.077055908203125,0.5500117540359497,-0.394621878862381,0.0758242085576057
2024-12-07 20:18:27.580070100,8.087070068359376,0.5633071064949036,-0.4945208728313446,0.1066867262125015
2024-12-07 20:18:27.590084000,8.097083984375,0.5752497911453247,-0.5927449464797974,0.175256997346878
2024-12-07 20:18:27.600098000,8.10709814453125,0.5899836421012878,-0.6622393131256104,0.2628367245197296
2024-12-07 20:18:27.610112300,8.1171123046875,0.5994831323623657,-0.6814045310020447,0.3342411518096924
2024-12-07 20:18:27.620126000,8.1271259765625,0.5946463346481323,-0.6689589023590088,0.375385046005249
2024-12-07 20:18:27.630140200,8.13714013671875,0.5833185911178589,-0.6224452257156372,0.3692302107810974
2024-12-07 20:18:27.640153000,8.147153076171875,0.5642610788345337,-0.5428786277770996,0.3165818452835083
2024-12-07 20:18:27.650167000,8.1571669921875,0.530162513256073,-0.4427371025085449,0.2263467460870742
2024-12-07 20:18:27.660181000,8.167180908203125,0.4794358313083648,-0.3462253212928772,0.1190820336341857
2024-12-07 20:18:27.670195200,8.1771953125,0.4194065630435943,-0.294242262840271,-0.0025085746310651
2024-12-07 20:18:27.680209200,8.187209228515625,0.3664336204528808,-0.3004082441329956,-0.1142897829413414
2024-12-07 20:18:27.690223000,8.19722314453125,0.3269703686237335,-0.3511979281902313,-0.1811476349830627
2024-12-07 20:18:27.700237000,8.207237060546875,0.3063109517097473,-0.4550751149654388,-0.1733272820711136
2024-12-07 20:18:27.710251000,8.2172509765625,0.2878192961215973,-0.5721295475959778,-0.1399890333414077
2024-12-07 20:18:27.720265200,8.22726513671875,0.2905624210834503,-0.606174647808075,-0.1288486719131469
2024-12-07 20:18:27.730279000,8.23727880859375,0.2991639077663421,-0.4810891151428222,-0.1486575305461883
2024-12-07 20:18:27.740293000,8.247293212890625,0.2983859181404114,-0.2970463335514068,-0.1712361723184585
2024-12-07 20:18:27.750307000,8.25730712890625,0.2521862089633941,-0.1987903118133545,-0.1902431547641754
2024-12-07 20:18:27.760321000,8.267321044921875,0.2146196216344833,-0.1919500827789306,-0.2074631154537201
2024-12-07 20:18:27.770335200,8.277335205078124,0.1952347457408905,-0.2023622542619705,-0.2138531059026718
2024-12-07 20:18:27.780349000,8.287348876953125,0.1736629903316497,-0.2431013882160186,-0.2459033131599426
2024-12-07 20:18:27.790363100,8.297363037109376,0.143383115530014,-0.2992706596851349,-0.2992501556873321
2024-12-07 20:18:27.800376000,8.3073759765625,0.1127600669860839,-0.3261485397815704,-0.3639810383319855
2024-12-07 20:18:27.810390000,8.31739013671875,0.089367926120758,-0.3402630388736725,-0.447511076927185
2024-12-07 20:18:27.820404000,8.327404052734375,0.0761629715561866,-0.257574200630188,-0.5104312896728516
2024-12-07 20:18:27.830418200,8.337418212890626,0.0305347666144371,-0.157338410615921,-0.5535995364189148
2024-12-07 20:18:27.840432000,8.34743212890625,-0.1103561371564865,-0.2221231311559677,-0.5171029567718506
2024-12-07 20:18:27.850446000,8.357446044921875,-0.4267458021640777,-0.3711493611335754,-0.4385064244270324
2024-12-07 20:18:27.860460000,8.3674599609375,-0.8762865662574768,-0.3847858011722564,-0.4277587234973907
2024-12-07 20:18:27.870474000,8.377473876953125,-1.1206125020980835,-0.0087690409272909,-0.5595611929893494
2024-12-07 20:18:27.880488200,8.38748828125,-0.9808779358863832,0.4031901359558105,-0.6938824653625488
2024-12-07 20:18:27.890502000,8.397501953125,-0.3470847904682159,0.465021014213562,-0.6385782361030579
2024-12-07 20:18:27.900516000,8.40751611328125,0.2367769032716751,-0.0132241351529955,0.0637861117720604
2024-12-07 20:18:27.910530000,8.417530029296875,0.2485097199678421,-0.6808663606643677,1.06816303730011
2024-12-07 20:18:27.920544300,8.427544189453124,-0.0201477818191051,-0.9092922806739808,1.5840457677841189
2024-12-07 20:18:27.930558000,8.437557861328125,-0.2803402245044708,-0.7926740646362305,1.5070165395736694
2024-12-07 20:18:27.940571100,8.447571044921874,-0.4361104071140289,-0.5776739716529846,0.9598769545555116
2024-12-07 20:18:27.950585000,8.457585205078125,-0.4901677668094635,-0.33356574177742,0.0861098021268844
2024-12-07 20:18:27.960599300,8.467599365234374,-0.5513338446617126,-0.1113800108432769,-0.8633481860160828
2024-12-07 20:18:27.970613000,8.477613037109375,-0.6526830792427063,0.1244634091854095,-1.5536656379699707
2024-12-07 20:18:27.980627500,8.48762744140625,-0.6385082602500916,0.298306405544281,-1.8046356439590447
2024-12-07 20:18:27.990641700,8.4976416015625,-0.4881437718868255,0.341153472661972,-1.6505742073059082
2024-12-07 20:18:28.000655400,8.5076552734375,-0.2690538167953491,0.3001955151557922,-1.170248031616211
2024-12-07 20:18:28.010669600,8.517669677734375,-0.1008147224783897,0.0998477786779403,-0.5904433131217957
2024-12-07 20:18:28.020683500,8.52768359375,-0.0787631645798683,-0.2191130965948104,-0.1214492991566658
2024-12-07 20:18:28.030697500,8.537697509765625,-0.1680506914854049,-0.5035573244094849,0.101515345275402
2024-12-07 20:18:28.040711400,8.54771142578125,-0.2678080201148987,-0.6580318808555603,0.0925137251615524
2024-12-07 20:18:28.050725400,8.557725341796875,-0.3413256704807281,-0.6927472949028015,-0.0340833589434623
2024-12-07 20:18:28.060739600,8.567739501953126,-0.3744037747383117,-0.5877335667610168,-0.1642708778381347
2024-12-07 20:18:28.070753500,8.57775341796875,-0.360006719827652,-0.3701048791408539,-0.2476267367601394
2024-12-07 20:18:28.080767500,8.587767578125,-0.2952624857425689,-0.1274850070476532,-0.3063224256038666
2024-12-07 20:18:28.090781400,8.597781494140625,-0.1861027032136917,0.0673811584711074,-0.3507367670536041
2024-12-07 20:18:28.100794600,8.607794677734375,-0.0747695937752723,0.158813863992691,-0.3643068075180053
2024-12-07 20:18:28.110808600,8.61780859375,-0.0170343928039073,0.259195327758789,-0.36217200756073
2024-12-07 20:18:28.120822500,8.627822509765625,-0.0160081945359706,0.3484516143798828,-0.3598066866397857
2024-12-07 20:18:28.130836500,8.63783642578125,-0.0774478539824485,0.3233720958232879,-0.3633449673652649
2024-12-07 20:18:28.140850400,8.647850341796875,-0.1883023977279663,0.2122993022203445,-0.3808178901672363
2024-12-07 20:18:28.150864600,8.65786474609375,-0.2938498854637146,0.1161317527294159,-0.4082157015800476
2024-12-07 20:18:28.160878300,8.66787841796875,-0.3652078807353973,0.0340085886418819,-0.4234446585178375
2024-12-07 20:18:28.170892500,8.677892578125,-0.4126523733139038,-0.0584414489567279,-0.4047191739082336
2024-12-07 20:18:28.180906500,8.687906494140625,-0.4289640486240387,-0.1404533982276916,-0.3419949412345886
2024-12-07 20:18:28.190920700,8.697920654296874,-0.413732647895813,-0.1825297474861145,-0.271583616733551
2024-12-07 20:18:28.200934400,8.707934326171875,-0.4012269973754883,-0.2233721762895584,-0.2119748145341873
2024-12-07 20:18:28.210948400,8.7179482421875,-0.416421115398407,-0.2884092032909393,-0.1551757156848907
2024-12-07 20:18:28.220962600,8.727962646484375,-0.4630515277385711,-0.3594600856304168,-0.1110971495509147
2024-12-07 20:18:28.230976500,8.7379765625,-0.5072751641273499,-0.3918595612049103,-0.085577942430973
2024-12-07 20:18:28.240990500,8.747990478515625,-0.5288493037223816,-0.3756113946437835,-0.0782885327935218
2024-12-07 20:18:28.251003400,8.75800341796875,-0.5156999230384827,-0.3180551528930664,-0.085885465145111
2024-12-07 20:18:28.261017600,8.768017578125,-0.476320743560791,-0.2325792014598846,-0.1056584641337394
2024-12-07 20:18:28.271031300,8.77803125,-0.425547331571579,-0.1473902761936187,-0.1277845501899719
2024-12-07 20:18:28.281045500,8.78804541015625,-0.3761977553367615,-0.0897089019417762,-0.1469783335924148
2024-12-07 20:18:28.291059500,8.7980595703125,-0.323220282793045,-0.0490893088281154,-0.148442268371582
2024-12-07 20:18:28.301073700,8.80807373046875,-0.2780674993991852,-0.0175722278654575,-0.1243685856461525
2024-12-07 20:18:28.311087600,8.818087646484376,-0.2337823212146759,0.0045764842070639,-0.0799457281827926
2024-12-07 20:18:28.321101300,8.828101318359375,-0.2023790180683136,0.0197437778115272,-0.0244918577373027
2024-12-07 20:18:28.331115500,8.838115478515626,-0.179972767829895,0.0596571043133735,0.0259651895612478
2024-12-07 20:18:28.341129500,8.84812939453125,-0.1650314778089523,0.1175040304660797,0.0639438107609748
2024-12-07 20:18:28.351143700,8.858143798828126,-0.1490309387445449,0.1734884679317474,0.081535056233406
2024-12-07 20:18:28.361157400,8.868157470703125,-0.1453658938407898,0.2147920429706573,0.0798090472817421
2024-12-07 20:18:28.371171600,8.878171630859375,-0.1384640485048294,0.2422822564840316,0.0626665502786636
2024-12-07 20:18:28.381185500,8.888185546875,-0.1338464170694351,0.2617486417293548,0.045792032033205
2024-12-07 20:18:28.391199500,8.898199462890625,-0.1279568374156952,0.2566710710525512,0.0324940681457519
2024-12-07 20:18:28.401212400,8.90821240234375,-0.1184273362159729,0.230181336402893,0.0250539984554052
2024-12-07 20:18:28.411226600,8.9182265625,-0.1086554005742073,0.1945463716983795,0.0178975500166416
2024-12-07 20:18:28.421240600,8.928240478515624,-0.1022807210683822,0.1472728252410888,0.0112477764487266
2024-12-07 20:18:28.431254300,8.938254150390625,-0.0984004959464073,0.091221272945404,-0.0025804210454225
2024-12-07 20:18:28.441268500,8.9482685546875,-0.1006103456020355,0.0432311594486236,-0.0177646670490503
2024-12-07 20:18:28.451282400,8.958282470703125,-0.1096528396010398,-0.0167791787534952,-0.0290447529405355
2024-12-07 20:18:28.461296600,8.968296630859374,-0.1230248436331749,-0.0881066247820854,-0.0350437872111797
2024-12-07 20:18:28.471310300,8.978310302734375,-0.1287756711244583,-0.1402803510427475,-0.0379319861531257
2024-12-07 20:18:28.481324500,8.988324462890626,-0.1128257066011428,-0.1617942601442337,-0.0618536211550235
2024-12-07 20:18:28.491338500,8.99833837890625,-0.0801074430346489,-0.1608272641897201,-0.1064112409949302
2024-12-07 20:18:28.501352400,9.0083525390625,-0.0443909876048564,-0.1145199537277221,-0.1695159077644348
2024-12-07 20:18:28.511366700,9.01836669921875,-0.0082534896209836,-0.0170517154037952,-0.2408992797136306
2024-12-07 20:18:28.521380400,9.02838037109375,0.0042733764275908,0.1032501384615898,-0.301996648311615
2024-12-07 20:18:28.531394600,9.03839453125,-0.0041781654581427,0.2131569236516952,-0.347613126039505
2024-12-07 20:18:28.541407500,9.048407470703124,-0.0296794474124908,0.274556815624237,-0.3665890395641327
2024-12-07 20:18:28.551421400,9.05842138671875,-0.0688223242759704,0.2862409055233001,-0.3745076954364776
2024-12-07 20:18:28.561435400,9.068435302734375,-0.1074317619204521,0.2553953528404236,-0.3816747069358825
2024-12-07 20:18:28.571449600,9.07844970703125,-0.153042659163475,0.2293144762516021,-0.3820672631263733
2024-12-07 20:18:28.581463600,9.088463623046875,-0.2479626536369323,0.2378390282392501,-0.3868775963783264
2024-12-07 20:18:28.591477500,9.0984775390625,-0.3468982875347137,0.3281140625476837,-0.3738478124141693
2024-12-07 20:18:28.601491500,9.108491455078124,-0.4105468392372131,0.4400890469551086,-0.3163820803165436
2024-12-07 20:18:28.611505400,9.11850537109375,-0.4146797955036163,0.5152647495269775,-0.2416628450155258
2024-12-07 20:18:28.621519600,9.12851953125,-0.3778177797794342,0.5553091168403625,-0.1795617938041687
2024-12-07 20:18:28.631533300,9.138533203125,-0.3296454548835754,0.593231737613678,-0.1545943915843963
2024-12-07 20:18:28.641547500,9.148547607421875,-0.276149570941925,0.642281711101532,-0.1614285260438919
2024-12-07 20:18:28.651561500,9.1585615234375,-0.2358383685350418,0.6498347520828247,-0.1990858912467956
2024-12-07 20:18:28.661575700,9.16857568359375,-0.2199976742267608,0.6015980243682861,-0.2551953792572021
2024-12-07 20:18:28.671589600,9.178589599609374,-0.2159741818904876,0.4925264418125152,-0.3005039989948272
2024-12-07 20:18:28.681602600,9.1886025390625,-0.246893361210823,0.3541572093963623,-0.3209015727043152
2024-12-07 20:18:28.691616500,9.198616455078126,-0.25637286901474,0.2422618269920349,-0.3138282001018524
2024-12-07 20:18:28.701630700,9.208630615234377,-0.2601906359195709,0.1772596389055252,-0.2923520505428314
2024-12-07 20:18:28.711644400,9.21864453125,-0.2644676864147186,0.2346731275320053,-0.2530286312103271
2024-12-07 20:18:28.721658400,9.228658447265625,-0.2694250047206878,0.3935114741325378,-0.160356342792511
2024-12-07 20:18:28.731672600,9.238672607421876,-0.2484462410211563,0.5663612484931946,0.011827141046524
2024-12-07 20:18:28.741686500,9.2486865234375,-0.1710814535617828,0.6654308438301086,0.274139940738678
2024-12-07 20:18:28.751700500,9.258700439453126,-0.0338218696415424,0.6043155789375305,0.5769496560096741
2024-12-07 20:18:28.761714400,9.26871435546875,0.180177554488182,0.3687267601490021,0.7914866805076599
2024-12-07 20:18:28.771728600,9.278728759765626,0.4453186988830566,0.0775332674384117,0.8218552470207214
2024-12-07 20:18:28.781742600,9.28874267578125,0.6488878130912781,-0.1518100053071975,0.7067382335662842
2024-12-07 20:18:28.791756300,9.29875634765625,0.7447900772094727,-0.2129828184843063,0.5736488699913025
2024-12-07 20:18:28.801770500,9.3087705078125,0.8121020197868347,-0.1420021206140518,0.5626372694969177
2024-12-07 20:18:28.811784400,9.318784423828124,0.8942216634750366,0.075786679983139,0.6884939670562744
2024-12-07 20:18:28.821798700,9.328798583984376,0.9838526248931884,0.4674811065196991,0.8869888186454773
2024-12-07 20:18:28.831811300,9.338811279296875,1.0385587215423584,0.8819819092750549,1.088142156600952
2024-12-07 20:18:28.841825500,9.348825439453124,1.0067545175552368,1.1912765502929688,1.2561867237091064
2024-12-07 20:18:28.851839500,9.358839599609375,0.9017348289489746,1.3734560012817385,1.334818959236145
2024-12-07 20:18:28.861853700,9.368853759765624,0.7681015729904175,1.426305651664734,1.2824898958206177
2024-12-07 20:18:28.871867400,9.378867431640623,0.6444259881973267,1.3122984170913696,1.1210541725158691
2024-12-07 20:18:28.881881600,9.388881591796874,0.5446341037750244,1.0624176263809204,0.9219634532928468
2024-12-07 20:18:28.891895600,9.3988955078125,0.4272052347660064,0.7649729251861572,0.7435769438743591
2024-12-07 20:18:28.901909500,9.408909423828124,0.2677306234836578,0.4934581816196441,0.6157861351966858
2024-12-07 20:18:28.911923500,9.41892333984375,0.1246355175971984,0.2157698571681976,0.5391241312026978
2024-12-07 20:18:28.921937400,9.4289375,0.0648148730397224,-0.0665730014443397,0.5123968720436096
2024-12-07 20:18:28.931951600,9.43895166015625,0.1320162862539291,-0.2218757718801498,0.5189738273620605
2024-12-07 20:18:28.941965600,9.448965576171876,0.2991571426391601,-0.2111992239952087,0.5088933706283569
2024-12-07 20:18:28.951979500,9.4589794921875,0.5052400231361389,-0.0705534294247627,0.4848985970020294
2024-12-07 20:18:28.961993500,9.468993408203126,0.6720629334449768,0.0570342279970645,0.4352062344551086
2024-12-07 20:18:28.972006700,9.479006591796876,0.7547978162765503,0.0512849949300289,0.345178872346878
2024-12-07 20:18:28.982020000,9.48902001953125,0.7551718950271606,-0.0926332250237464,0.2228144109249115
2024-12-07 20:18:28.992034300,9.499034423828125,0.704637885093689,-0.2968151271343231,0.1090710759162902
2024-12-07 20:18:29.002048000,9.509048095703124,0.638516902923584,-0.4811518490314483,0.0447531342506408
2024-12-07 20:18:29.012062000,9.51906201171875,0.6042577028274536,-0.6224703788757324,0.0319955274462699
2024-12-07 20:18:29.022076200,9.529076171875,0.6111161708831787,-0.7295705080032349,0.0668038055300712
2024-12-07 20:18:29.032090000,9.539090087890624,0.6466203331947327,-0.8276954889297485,0.1304815858602523
2024-12-07 20:18:29.042104000,9.54910400390625,0.6735101342201233,-0.9422316551208496,0.2094003111124038
2024-12-07 20:18:29.052118000,9.559117919921874,0.680407702922821,-1.0528732538223269,0.2870884239673614
2024-12-07 20:18:29.062132200,9.56913232421875,0.6605156660079956,-1.124958634376526,0.3239642381668091
2024-12-07 20:18:29.072146200,9.579146240234374,0.6128373146057129,-1.142553448677063,0.3099554777145386
2024-12-07 20:18:29.082159900,9.589159912109375,0.5525142550468445,-1.094184637069702,0.2650171816349029
2024-12-07 20:18:29.092174000,9.599174072265624,0.4939025938510895,-1.0180721282958984,0.2061133980751037
2024-12-07 20:18:29.102188000,9.60918798828125,0.4337374269962311,-0.9261424541473388,0.1468099355697631
2024-12-07 20:18:29.112201000,9.619200927734376,0.3854124844074249,-0.8664476871490479,0.1241261959075927
2024-12-07 20:18:29.122215000,9.62921484375,0.3667341768741607,-0.8598617911338806,0.1112082079052925
2024-12-07 20:18:29.132229000,9.63922900390625,0.3543928265571594,-0.8602929711341858,0.0700929909944534
2024-12-07 20:18:29.142243000,9.6492431640625,0.3452603816986084,-0.8411861658096313,0.0116456393152475
2024-12-07 20:18:29.152257000,9.659257080078126,0.323440819978714,-0.7837140560150146,-0.0465928986668586
2024-12-07 20:18:29.162271000,9.66927099609375,0.2841052412986755,-0.7021842002868652,-0.0870358124375343
2024-12-07 20:18:29.172285200,9.67928515625,0.21533764898777,-0.5802229046821594,-0.0941991806030273
2024-12-07 20:18:29.182299100,9.689299072265625,0.1455210000276565,-0.361868143081665,-0.1035974025726318
2024-12-07 20:18:29.192313000,9.69931298828125,0.0725695639848709,-0.153924822807312,-0.128293976187706
2024-12-07 20:18:29.202327000,9.7093271484375,-0.0302217807620763,-0.1440248638391494,-0.1932521760463714
2024-12-07 20:18:29.212341000,9.719341064453126,-0.1460860669612884,-0.35160893201828,-0.2708021104335785
2024-12-07 20:18:29.222355200,9.729355224609376,-0.2055469751358032,-0.5598671436309814,-0.318022072315216
2024-12-07 20:18:29.232369200,9.739369140625,-0.173078253865242,-0.571031391620636,-0.3832838833332062
2024-12-07 20:18:29.242383000,9.749383056640625,-0.0561600439250469,-0.3566678464412689,-0.4772187769412994
2024-12-07 20:18:29.252396000,9.75939599609375,0.1225833371281623,-0.0141437854617834,-0.5708292126655579
2024-12-07 20:18:29.262410200,9.76941015625,0.271764874458313,0.2345657050609588,-0.6628769040107727
2024-12-07 20:18:29.272424000,9.779423828125,0.2576932609081268,0.2017702162265777,-0.6982258558273315
2024-12-07 20:18:29.282438100,9.789438232421874,-0.0225869882851839,-0.1367106437683105,-0.5980990529060364
2024-12-07 20:18:29.292452000,9.7994521484375,-0.4492101967334747,-0.3902585208415985,-0.3400150239467621
2024-12-07 20:18:29.302466000,9.809466064453124,-0.7254056334495544,-0.2098873257637024,-0.0448941923677921
2024-12-07 20:18:29.312480000,9.81947998046875,-0.6446521878242493,0.3328827321529388,0.0264369752258062
2024-12-07 20:18:29.322494000,9.829493896484376,-0.2177314758300781,0.6305816173553467,-0.1721933186054229
2024-12-07 20:18:29.332508200,9.839508056640623,0.0991021320223808,-0.0770008414983749,-0.0311376489698886
2024-12-07 20:18:29.342522000,9.849522216796874,0.1069077551364898,-0.9541791677474976,0.7090415358543396
2024-12-07 20:18:29.352536000,9.8595361328125,-0.0784088373184204,-1.0930891036987305,1.2355300188064575
2024-12-07 20:18:29.362550000,9.869550048828126,-0.2921390831470489,-0.7840485572814941,1.1324260234832764
2024-12-07 20:18:29.372564000,9.87956396484375,-0.4464418292045593,-0.4223486483097076,0.5026755928993225
2024-12-07 20:18:29.382577200,9.8895771484375,-0.5340002775192261,-0.1808807700872421,-0.3309461772441864
2024-12-07 20:18:29.392591000,9.899591064453125,-0.5515108704566956,0.0445965453982353,-1.001988410949707
2024-12-07 20:18:29.402605000,9.90960498046875,-0.492560863494873,0.242238312959671,-1.2879067659378052
2024-12-07 20:18:29.412619000,9.919618896484376,-0.377565324306488,0.1950809210538864,-1.2814462184906006
2024-12-07 20:18:29.422633200,9.92963330078125,-0.2556520104408264,0.0232583824545145,-1.045149803161621
2024-12-07 20:18:29.432647000,9.93964697265625,-0.146118089556694,-0.1227150708436966,-0.6844348907470703
2024-12-07 20:18:29.442661000,9.9496611328125,-0.0845310762524604,-0.2389500737190246,-0.3431645333766937
2024-12-07 20:18:29.452675000,9.959675048828124,-0.1575490981340408,-0.3966342210769653,-0.147155076265335
2024-12-07 20:18:29.462689300,9.969689208984375,-0.2980679273605346,-0.4865941405296325,-0.1352485120296478
2024-12-07 20:18:29.472703000,9.979702880859374,-0.3986933529376983,-0.4972832798957824,-0.2378350645303726
2024-12-07 20:18:29.482717000,9.989717041015624,-0.4350239634513855,-0.4291179776191711,-0.3258610069751739
2024-12-07 20:18:29.492731100,9.999731201171874,-0.4009701311588287,-0.2538311183452606,-0.3474768400192261
2024-12-07 20:18:29.502745000,10.0097451171875,-0.3070014715194702,-0.0223526787012815,-0.3531888723373413
2024-12-07 20:18:29.512759000,10.019759033203124,-0.1838193535804748,0.1602685302495956,-0.3464915454387665
2024-12-07 20:18:29.522772000,10.02977197265625,-0.1061210855841636,0.2949997186660766,-0.3536959290504455
2024-12-07 20:18:29.532786200,10.0397861328125,-0.0881745740771293,0.4068444967269897,-0.4107949137687683
2024-12-07 20:18:29.542800100,10.049800048828123,-0.1232662424445152,0.4706489741802215,-0.4594093263149261
2024-12-07 20:18:29.552814000,10.05981396484375,-0.1845002919435501,0.4678036570549011,-0.4728848934173584
2024-12-07 20:18:29.562828000,10.069828125,-0.2455591857433319,0.42945596575737,-0.4730920493602752
2024-12-07 20:18:29.572842200,10.07984228515625,-0.2963778674602508,0.386638194322586,-0.4853753447532654
2024-12-07 20:18:29.582856200,10.089856201171877,-0.3410762846469879,0.3373844623565674,-0.4967724084854126
2024-12-07 20:18:29.592870000,10.099869873046876,-0.3828194737434387,0.25395268201828,-0.4907976388931274
2024-12-07 20:18:29.602884000,10.109884033203125,-0.411882072687149,0.1616491675376892,-0.4582330584526062
2024-12-07 20:18:29.612898000,10.11989794921875,-0.4250133335590362,0.1075393185019493,-0.4099909663200378
2024-12-07 20:18:29.622912300,10.129912353515625,-0.4129253625869751,0.0908601954579353,-0.3596034944057464
2024-12-07 20:18:29.632926000,10.139926025390626,-0.3865885734558105,0.0652267411351203,-0.3211767673492431
2024-12-07 20:18:29.642940200,10.149940185546876,-0.3477274179458618,0.0345254354178905,-0.2892594337463379
2024-12-07 20:18:29.652954000,10.1599541015625,-0.3129529356956482,0.0494402013719081,-0.2784986495971679
2024-12-07 20:18:29.662967000,10.169967041015624,-0.2921624183654785,0.090636059641838,-0.2937132120132446
2024-12-07 20:18:29.672981000,10.17998095703125,-0.2972165644168854,0.1118585243821144,-0.3125550746917724
2024-12-07 20:18:29.682995200,10.1899951171875,-0.3275816440582275,0.0920085161924362,-0.3204180300235748
2024-12-07 20:18:29.693009200,10.200009033203123,-0.3746320009231567,0.0521758757531642,-0.309349924325943
2024-12-07 20:18:29.703023000,10.210023193359374,-0.428139865398407,-0.0018978076986968,-0.2829511761665344
2024-12-07 20:18:29.713037000,10.220037109375,-0.4732394218444824,-0.0639100447297096,-0.2543704211711883
2024-12-07 20:18:29.723051000,10.230051025390624,-0.5038844347000122,-0.1141663640737533,-0.2246881127357483
2024-12-07 20:18:29.733065200,10.240065185546875,-0.4962344765663147,-0.1370863169431686,-0.1817805916070938
2024-12-07 20:18:29.743079200,10.2500791015625,-0.4420005083084106,-0.140012040734291,-0.1351998746395111
2024-12-07 20:18:29.753093000,10.260093017578123,-0.3569577932357788,-0.1325860768556594,-0.0934929028153419
2024-12-07 20:18:29.763107000,10.270107177734374,-0.2758162319660187,-0.1395538300275802,-0.0719466805458068
2024-12-07 20:18:29.773121000,10.28012109375,-0.2118282169103622,-0.1417959481477737,-0.0656331181526184
2024-12-07 20:18:29.783135200,10.29013525390625,-0.1805882751941681,-0.1370398104190826,-0.0685410276055336
2024-12-07 20:18:29.793148200,10.300148193359377,-0.1724110394716262,-0.1211529895663261,-0.0756854861974716
2024-12-07 20:18:29.803162000,10.310162109375,-0.1679183691740036,-0.1221583113074302,-0.0718743279576301
2024-12-07 20:18:29.813176000,10.320176025390625,-0.1640890091657638,-0.1386459320783615,-0.0543794892728328
2024-12-07 20:18:29.823190000,10.33018994140625,-0.1666343361139297,-0.1746757626533508,-0.0305196568369865
2024-12-07 20:18:29.833204000,10.340203857421876,-0.185291901230812,-0.2070078700780868,-0.0073395031504333
2024-12-07 20:18:29.843218200,10.35021826171875,-0.2147038578987121,-0.2229565382003784,0.0078235547989606
2024-12-07 20:18:29.853232000,10.360232177734376,-0.2472255825996399,-0.2331460565328598,0.0262536946684122
2024-12-07 20:18:29.863246000,10.37024609375,-0.2789870500564575,-0.2282557040452957,0.0412068478763103
2024-12-07 20:18:29.873260000,10.380260009765625,-0.3025778532028198,-0.197125494480133,0.0494421385228633
2024-12-07 20:18:29.883274000,10.39027392578125,-0.3024632930755615,-0.1468264609575271,0.0477112904191017
2024-12-07 20:18:29.893288200,10.4002880859375,-0.283293068408966,-0.1056068614125251,0.0415801592171192
2024-12-07 20:18:29.903302100,10.41030224609375,-0.2384863048791885,-0.0745845288038253,0.0268679354339838
2024-12-07 20:18:29.913316000,10.420316162109376,-0.1825591176748275,-0.0290245003998279,0.0065365638583898
2024-12-07 20:18:29.923330000,10.430330078125,-0.1334130018949508,0.0167659018188714,-0.0107113420963287
2024-12-07 20:18:29.933343200,10.44034326171875,-0.081976443529129,0.059695791453123,-0.016484010964632
2024-12-07 20:18:29.943357000,10.45035693359375,-0.0470904409885406,0.0816386342048645,-0.0270081870257854
2024-12-07 20:18:29.953371100,10.46037109375,-0.0566756874322891,0.0564022548496723,-0.063753418624401
2024-12-07 20:18:29.963385000,10.470385009765623,-0.0776523426175117,0.050344094634056,-0.1078447103500366
2024-12-07 20:18:29.973399000,10.48039892578125,-0.0836324691772461,0.0419796407222747,-0.146351620554924
2024-12-07 20:18:29.983413200,10.490413330078123,-0.0739068016409874,0.0608185790479183,-0.1868062168359756
2024-12-07 20:18:29.993427000,10.500427001953126,-0.049788948148489,0.1172277927398681,-0.2366816252470016
2024-12-07 20:18:30.003441200,10.510441162109377,-0.0164060872048139,0.2036182582378387,-0.2936589419841766
2024-12-07 20:18:30.013455000,10.520455078125,0.0218262523412704,0.2933239042758941,-0.3466017842292785
2024-12-07 20:18:30.023469300,10.53046923828125,0.0194414909929037,0.3655365109443664,-0.3949670791625976
2024-12-07 20:18:30.033483000,10.54048291015625,-0.0067775943316519,0.4109018445014953,-0.4378373324871063
2024-12-07 20:18:30.043497000,10.5504970703125,-0.0322024300694465,0.417993426322937,-0.4640061259269714
2024-12-07 20:18:30.053511200,10.56051123046875,-0.0475475639104843,0.3774707913398742,-0.477073460817337
2024-12-07 20:18:30.063524000,10.570524169921876,-0.0641195625066757,0.3198485374450683,-0.4827767014503479
2024-12-07 20:18:30.073538000,10.5805380859375,-0.1044195815920829,0.2588584125041961,-0.485830545425415
2024-12-07 20:18:30.083552000,10.590552001953125,-0.1984378099441528,0.2094522565603256,-0.5068619847297668
2024-12-07 20:18:30.093566200,10.600566162109375,-0.2820442914962768,0.1986704468727111,-0.5261566042900085
2024-12-07 20:18:30.103580200,10.610580078125,-0.3474771678447723,0.2296840548515319,-0.5190412402153015
2024-12-07 20:18:30.113594000,10.620593994140624,-0.3961318135261535,0.3054153025150299,-0.49064901471138
2024-12-07 20:18:30.123608000,10.630608154296874,-0.4280296564102173,0.405921071767807,-0.4414544999599457
2024-12-07 20:18:30.133622300,10.640622314453124,-0.4350255131721496,0.5293477177619934,-0.3727494478225708
2024-12-07 20:18:30.143636200,10.65063623046875,-0.4230790138244629,0.63722163438797,-0.2953874170780182
2024-12-07 20:18:30.153650000,10.66064990234375,-0.4014762639999389,0.7350376844406128,-0.2337605357170105
2024-12-07 20:18:30.163664100,10.6706640625,-0.3859778046607971,0.8305764198303223,-0.2080350816249847
2024-12-07 20:18:30.173678000,10.680677978515623,-0.3825780153274536,0.9373108148574828,-0.2235506474971771
2024-12-07 20:18:30.183692300,10.6906923828125,-0.3776598274707794,1.0573078393936155,-0.2646238505840301
2024-12-07 20:18:30.193705000,10.700705078125,-0.3565628230571747,1.1521254777908323,-0.3051100075244903
2024-12-07 20:18:30.203719200,10.71071923828125,-0.3065563440322876,1.157001495361328,-0.299424260854721
2024-12-07 20:18:30.213733000,10.720733154296877,-0.2179572284221649,1.0450972318649292,-0.1635196805000305
2024-12-07 20:18:30.223747000,10.7307470703125,-0.0897575765848159,0.8388103246688843,0.1533178091049194
2024-12-07 20:18:30.233761000,10.740760986328125,0.108382411301136,0.5597174167633057,0.5793594121932983
2024-12-07 20:18:30.243775200,10.750775146484376,0.3775103390216827,0.1922635436058044,0.9375723600387572
2024-12-07 20:18:30.253789200,10.7607890625,0.6614342331886292,-0.1658637076616287,1.064634919166565
2024-12-07 20:18:30.263803000,10.770802978515626,0.8006625771522522,-0.280418336391449,0.9629219174385072
2024-12-07 20:18:30.273817000,10.780817138671877,0.8837566375732422,-0.2326998114585876,0.8582937717437744
2024-12-07 20:18:30.283831000,10.7908310546875,0.9986566305160522,-0.0745806396007537,0.9115285873413086
2024-12-07 20:18:30.293845200,10.80084521484375,1.1001806259155271,0.2483856976032257,1.1394996643066406
2024-12-07 20:18:30.303859200,10.810859130859376,1.158681035041809,0.7265815138816833,1.4373600482940674
2024-12-07 20:18:30.313873200,10.820873046875,1.1452128887176514,1.2307460308074951,1.6865177154541016
2024-12-07 20:18:30.323886000,10.830885986328123,1.0787070989608765,1.6353089809417725,1.7663674354553225
2024-12-07 20:18:30.333900300,10.840900390625,0.963145911693573,1.8111450672149656,1.6133930683135986
2024-12-07 20:18:30.343914000,10.8509140625,0.8485558032989502,1.700710654258728,1.305614709854126
2024-12-07 20:18:30.353928200,10.86092822265625,0.7729400992393494,1.4434280395507812,0.950197696685791
2024-12-07 20:18:30.363942100,10.870942138671875,0.6615909337997437,1.1616841554641724,0.6612061262130737
2024-12-07 20:18:30.373956000,10.8809560546875,0.5005684494972229,0.85037761926651,0.4808664619922638
2024-12-07 20:18:30.383970000,10.890969970703123,0.3166555166244507,0.4956796169281006,0.4048618674278259
2024-12-07 20:18:30.393984000,10.90098388671875,0.1882099211215973,0.0605867356061935,0.3848926723003387
2024-12-07 20:18:30.403998200,10.910998291015623,0.2027126848697662,-0.308177649974823,0.4039638340473175
2024-12-07 20:18:30.414012200,10.92101220703125,0.3979822993278503,-0.3568730354309082,0.4269426465034485
2024-12-07 20:18:30.424026000,10.931026123046877,0.688439130783081,-0.1409136056900024,0.462033748626709
2024-12-07 20:18:30.434040000,10.9410400390625,0.9722319841384888,0.1230072528123855,0.4991401135921478
2024-12-07 20:18:30.444054000,10.951053955078123,1.1474212408065796,0.1451975852251052,0.4953982532024383
2024-12-07 20:18:30.454067200,10.961067138671876,1.1754759550094604,-0.0740825608372688,0.4341069459915161
2024-12-07 20:18:30.464081200,10.9710810546875,1.079323649406433,-0.3914526700973511,0.371996521949768
2024-12-07 20:18:30.474095000,10.98109521484375,0.9365267753601074,-0.7246151566505432,0.3454069793224334
2024-12-07 20:18:30.484109000,10.991109130859376,0.7985555529594421,-1.008120894432068,0.3700814545154571
2024-12-07 20:18:30.494123300,11.001123291015626,0.7108320593833923,-1.1667810678482056,0.4163064956665039
2024-12-07 20:18:30.504137000,11.011136962890625,0.6442062854766846,-1.2452729940414429,0.458522766828537
2024-12-07 20:18:30.514151200,11.021151123046875,0.5793700814247131,-1.303913950920105,0.487845242023468
2024-12-07 20:18:30.524165000,11.0311650390625,0.51236891746521,-1.3239065408706665,0.4970596134662628
2024-12-07 20:18:30.534179300,11.041179443359376,0.4491417109966278,-1.2968120574951172,0.4876706302165985
2024-12-07 20:18:30.544193000,11.051193115234376,0.393831193447113,-1.2288827896118164,0.4561959207057953
2024-12-07 20:18:30.554207000,11.06120703125,0.3390507698059082,-1.1372815370559692,0.4117709100246429
2024-12-07 20:18:30.564221200,11.07122119140625,0.2825990915298462,-1.0205293893814087,0.3483332395553589
2024-12-07 20:18:30.574235100,11.081235107421875,0.2156552076339721,-0.9156826734542848,0.2413354218006134
2024-12-07 20:18:30.584248000,11.091248046875,0.1506947576999664,-0.8456637859344482,0.137819766998291
2024-12-07 20:18:30.594262000,11.101261962890623,0.122654341161251,-0.7869983315467834,0.0713925510644912
2024-12-07 20:18:30.604276200,11.111276123046874,0.1085534244775772,-0.7220153212547302,-0.0019405321218073
2024-12-07 20:18:30.614290200,11.121290283203123,0.1410873979330063,-0.6231023073196411,-0.0899691954255104
2024-12-07 20:18:30.624304000,11.13130419921875,0.2018604725599289,-0.4392353296279907,-0.15434230864048
2024-12-07 20:18:30.634318000,11.141318115234377,0.2711045444011688,-0.197781428694725,-0.1927091479301452
2024-12-07 20:18:30.644332300,11.151332275390626,0.2255504429340362,-0.0946654975414276,-0.2430256605148315
2024-12-07 20:18:30.654346200,11.16134619140625,0.1012338250875473,-0.23592409491539,-0.3156002759933471
2024-12-07 20:18:30.664360000,11.17135986328125,0.0154350558295845,-0.5046965479850769,-0.3945211470127105
2024-12-07 20:18:30.674374100,11.1813740234375,-0.0090553732588887,-0.6397467851638794,-0.4308218955993652
2024-12-07 20:18:30.684388000,11.19138818359375,0.008124834857881,-0.541584312915802,-0.4231085181236267
2024-12-07 20:18:30.694402300,11.20140234375,0.0683703273534774,-0.3193254470825195,-0.4267695844173431
2024-12-07 20:18:30.704415000,11.2114150390625,0.1376000791788101,-0.1286983042955398,-0.4436394572257995
2024-12-07 20:18:30.714429200,11.22142919921875,0.1471536457538604,-0.0715157091617584,-0.4315159618854522
2024-12-07 20:18:30.724443100,11.231443115234375,-0.0315281637012958,-0.084290325641632,-0.3838645815849304
2024-12-07 20:18:30.734457000,11.24145703125,-0.4051986932754516,-0.0844029784202575,-0.346983790397644
2024-12-07 20:18:30.744471000,11.251470947265624,-0.5718827843666077,0.1603729873895645,-0.450141578912735
2024-12-07 20:18:30.754485200,11.2614853515625,-0.3693201243877411,0.6185757517814636,-0.6533585786819458
2024-12-07 20:18:30.764499200,11.271499267578124,0.072074718773365,0.6732355356216431,-0.672579824924469
2024-12-07 20:18:30.774513000,11.281512939453124,0.2900017201900482,0.0444221869111061,0.0996774733066558
2024-12-07 20:18:30.784527000,11.291527099609375,0.1663532853126526,-0.5812694430351257,1.0283249616622925
2024-12-07 20:18:30.794541000,11.301541015625,-0.1251619160175323,-0.616966187953949,1.2709418535232544
2024-12-07 20:18:30.804555300,11.31155517578125,-0.416859358549118,-0.393157035112381,0.8611341118812561
2024-12-07 20:18:30.814569200,11.3215693359375,-0.6657708883285522,-0.1561333090066909,0.0929700657725334
2024-12-07 20:18:30.824583200,11.331583251953123,-0.8396481871604919,0.0430326126515865,-0.7338377833366394
2024-12-07 20:18:30.834596000,11.34159619140625,-0.8637191653251648,0.1696874797344207,-1.3398534059524536
2024-12-07 20:18:30.844610300,11.3516103515625,-0.7302340865135193,0.255023330450058,-1.6420419216156006
2024-12-07 20:18:30.854624000,11.3616240234375,-0.5053370594978333,0.263170450925827,-1.6609998941421509
2024-12-07 20:18:30.864638200,11.37163818359375,-0.2800284624099731,0.2132255882024765,-1.3791931867599487
2024-12-07 20:18:30.874652200,11.381652099609376,-0.1043402627110481,0.090609386563301,-0.8680611848831177
2024-12-07 20:18:30.884666000,11.391666015625,-0.0278285257518291,-0.0284032188355922,-0.3617672920227051
