time,seconds_elapsed,z,y,x
2024-12-07 20:29:19.172297200,0.019297119140625,0.0027574261184781,-0.0162743628025054,-0.0698927119374275
2024-12-07 20:29:19.182311400,0.0293115234375,0.0106944441795349,-0.0160693004727363,-0.068910002708435
2024-12-07 20:29:19.192325400,0.039325439453125,0.0023783817887306,-0.0029533181805163,-0.0838572680950164
2024-12-07 20:29:19.202339300,0.04933935546875,-0.010766714811325,-0.0321956239640712,-0.0985243543982505
2024-12-07 20:29:19.212352300,0.059352294921875,-0.0195913519710302,-0.0659870058298111,-0.1120184287428855
2024-12-07 20:29:19.222366200,0.0693662109375,0.0002862170804291,-0.0798362419009208,-0.104004181921482
2024-12-07 20:29:19.232380400,0.07938037109375,0.0351565182209014,-0.1108439788222312,-0.0915925726294517
2024-12-07 20:29:19.242393300,0.089393310546875,0.0659953877329826,-0.0941318497061729,-0.104943536221981
2024-12-07 20:29:19.252407300,0.0994072265625,0.0333892405033111,-0.0522909276187419,-0.1813554912805557
2024-12-07 20:29:19.262421200,0.109421142578125,-0.0950510278344154,-0.0371322147548198,-0.3664787411689758
2024-12-07 20:29:19.272434200,0.11943408203125,-0.224728912115097,-0.0589926578104496,-0.6017358899116516
2024-12-07 20:29:19.282448400,0.129448486328125,-0.4757286608219147,-0.147718533873558,-0.7237448692321777
2024-12-07 20:29:19.292462300,0.13946240234375,-0.7492625117301941,-0.3575795292854309,-0.7058155536651611
2024-12-07 20:29:19.302475300,0.149475341796875,-1.0219957828521729,-0.5422831177711487,-0.6575955748558044
2024-12-07 20:29:19.312489200,0.1594892578125,-1.2375259399414062,-0.6704127192497253,-0.6148615479469299
2024-12-07 20:29:19.322503400,0.16950341796875,-1.366865873336792,-0.7598129510879517,-0.610835075378418
2024-12-07 20:29:19.332516400,0.179516357421875,-1.487649917602539,-1.0114561319351196,-0.704890787601471
2024-12-07 20:29:19.342530300,0.1895302734375,-1.6381566524505615,-1.404878854751587,-0.8608364462852478
2024-12-07 20:29:19.352544300,0.199544189453125,-1.781186819076538,-1.4845954179763794,-0.9554598331451416
2024-12-07 20:29:19.362557400,0.209557373046875,-1.997447609901428,-1.3302286863327026,-1.0215458869934082
2024-12-07 20:29:19.372571100,0.219571044921875,-2.306974172592163,-1.0474565029144287,-0.9923414587974548
2024-12-07 20:29:19.382585300,0.22958544921875,-2.5975561141967773,-0.5101442933082581,-0.8542442917823792
2024-12-07 20:29:19.392598300,0.239598388671875,-2.780510663986206,0.0307178851217031,-0.6139742136001587
2024-12-07 20:29:19.402612200,0.2496123046875,-2.7843587398529053,0.3423921465873718,-0.3079650402069092
2024-12-07 20:29:19.412626200,0.259626220703125,-2.587864637374878,0.3760908246040344,-0.0045157829299569
2024-12-07 20:29:19.422639400,0.269639404296875,-2.16943883895874,0.2185906916856765,0.185929000377655
2024-12-07 20:29:19.432653300,0.2796533203125,-1.6566691398620603,-0.0295223835855722,0.2222032696008682
2024-12-07 20:29:19.442667300,0.289667236328125,-1.1711522340774536,-0.214872807264328,0.1109635680913925
2024-12-07 20:29:19.452681200,0.29968115234375,-0.7651412487030029,-0.1613947600126266,-0.067881166934967
2024-12-07 20:29:19.462694400,0.3096943359375,-0.4971527457237243,0.0424411781132221,-0.1826820522546768
2024-12-07 20:29:19.472708400,0.319708251953125,-0.3889310359954834,0.2348264157772064,-0.2195039391517639
2024-12-07 20:29:19.482722300,0.329722412109375,-0.396542876958847,0.389822393655777,-0.244044691324234
2024-12-07 20:29:19.492735500,0.339735595703125,-0.4853903353214264,0.4669022858142853,-0.3200871348381042
2024-12-07 20:29:19.502749200,0.349749267578125,-0.6036509275436401,0.3433625102043152,-0.4332893490791321
2024-12-07 20:29:19.512763100,0.35976318359375,-0.7106868624687195,0.1124000400304794,-0.5203506946563721
2024-12-07 20:29:19.522776300,0.3697763671875,-0.8099309206008911,-0.0450835973024368,-0.5516265630722046
2024-12-07 20:29:19.532790500,0.37979052734375,-0.9004947543144226,-0.1367870867252349,-0.5714388489723206
2024-12-07 20:29:19.542804200,0.38980419921875,-1.000514268875122,-0.203003391623497,-0.5875837206840515
2024-12-07 20:29:19.552817400,0.3998173828125,-1.1257485151290894,-0.2600854337215423,-0.5892245173454285
2024-12-07 20:29:19.562831400,0.409831298828125,-1.2364563941955566,-0.3260599374771118,-0.539723813533783
2024-12-07 20:29:19.572845300,0.41984521484375,-1.2763142585754397,-0.3564976453781128,-0.4458993673324585
2024-12-07 20:29:19.582858200,0.429858154296875,-1.2435963153839111,-0.3348163068294525,-0.3749988377094269
2024-12-07 20:29:19.592872400,0.43987255859375,-1.1282334327697754,-0.3329038321971893,-0.3472244441509247
2024-12-07 20:29:19.602886400,0.449886474609375,-0.8410066962242126,-0.2945436537265777,-0.2973285317420959
2024-12-07 20:29:19.612899300,0.4598994140625,-0.3615158796310425,-0.2614303827285766,-0.2265730798244476
2024-12-07 20:29:19.622913300,0.469913330078125,0.1592985540628433,-0.2047921270132064,-0.1320135593414306
2024-12-07 20:29:19.632927500,0.479927490234375,0.4448565542697906,-0.0597061142325401,-0.0244718007743358
2024-12-07 20:29:19.642941200,0.489941162109375,0.1539629399776458,0.1780441254377365,0.0313099734485149
2024-12-07 20:29:19.652954400,0.499954345703125,-0.1196261867880821,0.135963037610054,0.0315405949950218
2024-12-07 20:29:19.662968300,0.50996826171875,-0.1687860041856765,-0.1009914577007293,0.0050085871480405
2024-12-07 20:29:19.672982300,0.519982177734375,-0.0928020700812339,-0.2525583505630493,0.0014628630597144
2024-12-07 20:29:19.682995200,0.5299951171875,-0.0104190483689308,-0.1727186441421508,0.0334354452788829
2024-12-07 20:29:19.693009400,0.540009521484375,0.0381359085440635,-0.0056399377062916,0.049220472574234
2024-12-07 20:29:19.703023400,0.5500234375,0.0676887333393096,0.1173746660351753,0.0170486867427825
2024-12-07 20:29:19.713036300,0.560036376953125,0.0831488221883773,0.154047206044197,-0.0218876302242279
2024-12-07 20:29:19.723050200,0.57005029296875,0.0894237607717514,0.162414863705635,-0.02812235429883
2024-12-07 20:29:19.733064400,0.580064453125,0.1088285818696022,0.2035350799560547,-0.0250725056976079
2024-12-07 20:29:19.743077400,0.590077392578125,0.1382530480623245,0.2256656885147094,-0.0255904905498027
2024-12-07 20:29:19.753091300,0.60009130859375,0.165926992893219,0.2139754444360733,-0.0404056571424007
2024-12-07 20:29:19.763105300,0.610105224609375,0.1809837073087692,0.1864793747663498,-0.0644939541816711
2024-12-07 20:29:19.773118200,0.6201181640625,0.173897698521614,0.2053745687007904,-0.0647215992212295
2024-12-07 20:29:19.783132400,0.63013232421875,0.1602718979120254,0.25078946352005,-0.0454954393208026
2024-12-07 20:29:19.793146400,0.640146484375,0.154376819729805,0.2880133986473083,-0.0275130309164524
2024-12-07 20:29:19.803159300,0.6501591796875,0.1415110975503921,0.3037028908729553,-0.0096528064459562
2024-12-07 20:29:19.813173200,0.66017333984375,0.1310047358274459,0.2786725163459778,0.0028501495253294
2024-12-07 20:29:19.823187500,0.6701875,0.1201960295438766,0.2525580823421478,0.009321098215878
2024-12-07 20:29:19.833200000,0.6802001953125,0.0897222608327865,0.2288076281547546,-0.009808543138206
2024-12-07 20:29:19.843214300,0.69021435546875,0.0843104496598243,0.1969234645366668,-0.065189242362976
2024-12-07 20:29:19.853228300,0.700228271484375,0.0909702330827713,0.170541763305664,-0.1225913912057876
2024-12-07 20:29:19.863241500,0.710241455078125,0.0947809517383575,0.1640646904706955,-0.1349394023418426
2024-12-07 20:29:19.873255200,0.720255126953125,0.09429332613945,0.1422563344240188,-0.1149965971708297
2024-12-07 20:29:19.883269400,0.730269287109375,0.0849498882889747,0.0749441459774971,-0.0971070751547813
2024-12-07 20:29:19.893283300,0.740283447265625,0.073432020843029,0.0154840601608157,-0.0795531123876571
2024-12-07 20:29:19.903296300,0.750296142578125,0.0598416402935981,-0.0037522185593843,-0.0741807222366333
2024-12-07 20:29:19.913310200,0.760310302734375,0.0581354387104511,0.0083804856985807,-0.0812136456370353
2024-12-07 20:29:19.923324400,0.770324462890625,0.0489981323480606,0.0116393957287073,-0.0913293957710266
2024-12-07 20:29:19.933337000,0.780337158203125,0.0251797940582036,-0.0103270858526229,-0.1024471893906593
2024-12-07 20:29:19.943351000,0.79035107421875,0.0031224286649376,-0.0329210795462131,-0.10495375841856
2024-12-07 20:29:19.953365000,0.800364990234375,-0.0049581015482544,-0.0613330602645874,-0.1003983691334724
2024-12-07 20:29:19.963378000,0.8103779296875,-0.00573973916471,-0.07228983938694,-0.093957781791687
2024-12-07 20:29:19.973392100,0.82039208984375,-0.0014859419316053,-0.0559310987591743,-0.0985563173890113
2024-12-07 20:29:19.983406000,0.830406005859375,0.0005950520280748,-0.0545763485133647,-0.1277293711900711
2024-12-07 20:29:19.993419300,0.840419189453125,0.0037192795425653,-0.0957689732313156,-0.1610359251499176
2024-12-07 20:29:20.003433000,0.850432861328125,0.0063800439238548,-0.1596800535917282,-0.1828988790512085
2024-12-07 20:29:20.013447200,0.860447265625,0.0023513515479862,-0.2031891494989395,-0.1794806122779846
2024-12-07 20:29:20.023460000,0.870460205078125,-0.0035763122141361,-0.2215164899826049,-0.1530740410089492
2024-12-07 20:29:20.033474000,0.88047412109375,-0.0095417834818363,-0.2363105565309524,-0.1279375851154327
2024-12-07 20:29:20.043488000,0.890488037109375,-0.014011101797223,-0.2511171996593475,-0.1018236875534057
2024-12-07 20:29:20.053501200,0.900501220703125,-0.0148870330303907,-0.2373021692037582,-0.0833260640501976
2024-12-07 20:29:20.063515100,0.91051513671875,-0.0179488696157932,-0.2213706076145172,-0.0825148597359657
2024-12-07 20:29:20.073529000,0.920529052734375,-0.0235252622514963,-0.2123736441135406,-0.0853716358542442
2024-12-07 20:29:20.083542000,0.9305419921875,-0.0253926701843738,-0.2023942470550537,-0.086598552763462
2024-12-07 20:29:20.093556200,0.94055615234375,-0.0200141072273254,-0.1856778413057327,-0.109421320259571
2024-12-07 20:29:20.103570000,0.95056982421875,-0.0196399334818124,-0.1556589603424072,-0.1295721232891082
2024-12-07 20:29:20.113583000,0.9605830078125,-0.0114756431430578,-0.1314233094453811,-0.1254774630069732
2024-12-07 20:29:20.123597000,0.97059716796875,0.0026423064991831,-0.1270296275615692,-0.1165955513715744
2024-12-07 20:29:20.133611000,0.980611083984375,0.0112943639978766,-0.1359351873397827,-0.119382657110691
2024-12-07 20:29:20.143625000,0.990625,0.0016997933853417,-0.1379797011613845,-0.1387465000152588
2024-12-07 20:29:20.153638100,1.00063818359375,-0.0258401650935411,-0.1177021339535713,-0.143674835562706
2024-12-07 20:29:20.163652000,1.010652099609375,-0.0494573414325714,-0.0860773622989654,-0.1221527755260467
2024-12-07 20:29:20.173666000,1.020666015625,-0.0668937340378761,-0.0440118424594402,-0.0932966247200965
2024-12-07 20:29:20.183679000,1.030678955078125,-0.0764148011803627,-0.0066857766360044,-0.0708150193095207
2024-12-07 20:29:20.193693200,1.040693115234375,-0.075006365776062,-0.0142196314409375,-0.0612809509038925
2024-12-07 20:29:20.203707000,1.050706787109375,-0.0650783702731132,-0.0542887561023235,-0.0700557976961135
2024-12-07 20:29:20.213720000,1.060719970703125,-0.0464953184127807,-0.0793202370405197,-0.0900434106588363
2024-12-07 20:29:20.223734000,1.070734130859375,-0.0251780487596988,-0.0717659145593643,-0.1124528422951698
2024-12-07 20:29:20.233748000,1.080748046875,-0.0022854781709611,-0.039684634655714,-0.1099183112382888
2024-12-07 20:29:20.243761200,1.09076123046875,0.0189801286906003,-0.0167300514876842,-0.0866715759038925
2024-12-07 20:29:20.253775000,1.100775146484375,0.0250106621533632,-0.0048574190586805,-0.0626599416136741
2024-12-07 20:29:20.263789000,1.1107890625,0.0195663627237081,0.001100072171539,-0.0457264967262744
2024-12-07 20:29:20.273802000,1.120802001953125,0.0127519406378269,-0.0160631146281957,-0.0343420132994651
2024-12-07 20:29:20.283816200,1.130816162109375,-0.0043924241326749,-0.0531982332468032,-0.025631345808506
2024-12-07 20:29:20.293830100,1.140830078125,-0.0310139972716569,-0.1029829755425453,-0.0304332394152879
2024-12-07 20:29:20.303843000,1.150843017578125,-0.0635602176189422,-0.1432893872261047,-0.0543399006128311
2024-12-07 20:29:20.313857000,1.16085693359375,-0.0933710411190986,-0.1705259680747985,-0.095684677362442
2024-12-07 20:29:20.323871200,1.170871337890625,-0.1150310635566711,-0.1856881529092788,-0.1282064020633697
2024-12-07 20:29:20.333884000,1.1808837890625,-0.1180592998862266,-0.2109665125608444,-0.1395142376422882
2024-12-07 20:29:20.343898000,1.190898193359375,-0.1095342561602592,-0.250951200723648,-0.1393230259418487
2024-12-07 20:29:20.353912000,1.200912109375,-0.1115650460124015,-0.2713028490543365,-0.1427732557058334
2024-12-07 20:29:20.363925000,1.210925048828125,-0.1169355809688568,-0.2489573508501052,-0.1484300792217254
2024-12-07 20:29:20.373939000,1.22093896484375,-0.130392774939537,-0.1932893693447113,-0.1327785700559616
2024-12-07 20:29:20.383953200,1.230953125,-0.1392757445573806,-0.1199017167091369,-0.0799624994397163
2024-12-07 20:29:20.393966000,1.240966064453125,-0.1304368376731872,-0.0512053593993186,-0.0203433111310005
2024-12-07 20:29:20.403980000,1.25097998046875,-0.1117515787482261,0.0152239995077252,0.0228883139789104
2024-12-07 20:29:20.413994000,1.260993896484375,-0.0879223048686981,0.0727724954485893,0.0501967370510101
2024-12-07 20:29:20.424007200,1.271007080078125,-0.0628957822918891,0.1008912175893783,0.0496537163853645
2024-12-07 20:29:20.434021000,1.281021240234375,-0.0437773801386356,0.1324105113744735,0.0352498479187488
2024-12-07 20:29:20.444035000,1.29103515625,-0.0303459949791431,0.1926624029874801,0.0272518433630466
2024-12-07 20:29:20.454048300,1.30104833984375,-0.0267702769488096,0.2470936477184295,0.0494766756892204
2024-12-07 20:29:20.464062000,1.31106201171875,-0.0282813552767038,0.2763559222221374,0.0881495028734207
2024-12-07 20:29:20.474076200,1.321076171875,-0.0410131402313709,0.3000618815422058,0.1184718161821365
2024-12-07 20:29:20.484090000,1.331090087890625,-0.0489589497447013,0.3269526362419128,0.143652006983757
2024-12-07 20:29:20.494103000,1.34110302734375,-0.0560171492397785,0.3703779876232147,0.1648227125406265
2024-12-07 20:29:20.504117000,1.351116943359375,-0.0514282546937465,0.3961741626262665,0.1750945150852203
2024-12-07 20:29:20.514131000,1.361130859375,-0.045730572193861,0.3753983974456787,0.1479294747114181
2024-12-07 20:29:20.524144000,1.37114404296875,-0.0428596846759319,0.3339710533618927,0.0968673527240753
2024-12-07 20:29:20.534158000,1.381157958984375,-0.0456676371395587,0.2907856702804565,0.0460182316601276
2024-12-07 20:29:20.544172000,1.391172119140625,-0.0537407435476779,0.2501282393932342,0.0064234184101223
2024-12-07 20:29:20.554185200,1.401185302734375,-0.0794263556599617,0.2264578938484192,-0.0117106307297945
2024-12-07 20:29:20.564199000,1.411198974609375,-0.110908918082714,0.2399292290210724,-0.0019328352063894
2024-12-07 20:29:20.574213000,1.421213134765625,-0.1319235265254974,0.2763564586639404,0.0257205255329608
2024-12-07 20:29:20.584226000,1.43122607421875,-0.1544322967529297,0.3117261528968811,0.0624367259442806
2024-12-07 20:29:20.594240300,1.441240234375,-0.1844699382781982,0.3304733335971832,0.0821166932582855
2024-12-07 20:29:20.604254000,1.45125390625,-0.2191663980484008,0.3380521833896637,0.079751007258892
2024-12-07 20:29:20.614267100,1.46126708984375,-0.258426308631897,0.3335184752941131,0.0662683248519897
2024-12-07 20:29:20.624281000,1.471281005859375,-0.2898254990577698,0.3255098164081573,0.0588136091828346
2024-12-07 20:29:20.634295000,1.481294921875,-0.3073447048664093,0.3394939303398132,0.0686398670077323
2024-12-07 20:29:20.644308000,1.491307861328125,-0.3131921887397766,0.3606852293014526,0.0776378884911537
2024-12-07 20:29:20.654322200,1.501322265625,-0.3143060803413391,0.3693403899669647,0.0710231363773346
2024-12-07 20:29:20.664336000,1.5113359375,-0.3233001232147217,0.3740099668502807,0.0566324815154075
2024-12-07 20:29:20.674349000,1.52134912109375,-0.3348996341228485,0.3626357018947601,0.0443931743502616
2024-12-07 20:29:20.684363000,1.531363037109375,-0.3506240248680115,0.3384794890880584,0.0391342304646968
2024-12-07 20:29:20.694377200,1.541377197265625,-0.3681380748748779,0.300929307937622,0.0418387800455093
2024-12-07 20:29:20.704390100,1.55139013671875,-0.3744156658649444,0.2549197375774383,0.057656891644001
2024-12-07 20:29:20.714404000,1.561404052734375,-0.3752809762954712,0.1992974430322647,0.0748579800128936
2024-12-07 20:29:20.724418000,1.57141796875,-0.3637116849422455,0.1328230798244476,0.0671870112419128
2024-12-07 20:29:20.734431000,1.581430908203125,-0.3280835449695587,0.0808399692177772,0.0227672420442104
2024-12-07 20:29:20.744445200,1.591445068359375,-0.2740839719772339,0.0796713680028915,-0.0354752950370311
2024-12-07 20:29:20.754459100,1.601459228515625,-0.2106175124645233,0.158133864402771,-0.0566639825701713
2024-12-07 20:29:20.764472000,1.61147216796875,-0.125273048877716,0.2837352156639099,0.0028752423822879
2024-12-07 20:29:20.774486000,1.621486083984375,-0.0126774189993739,0.3861506283283233,0.1067201420664787
2024-12-07 20:29:20.784500200,1.631500244140625,0.1019133403897285,0.4318725764751434,0.2186762392520904
2024-12-07 20:29:20.794514200,1.64151416015625,0.2040006965398788,0.4564388692378998,0.2781586349010467
2024-12-07 20:29:20.804527000,1.651527099609375,0.2959665656089782,0.4855384230613708,0.2286286354064941
2024-12-07 20:29:20.814541000,1.661541015625,0.4027078449726105,0.4990010559558868,0.1382453590631485
2024-12-07 20:29:20.824555300,1.67155517578125,0.5007476210594177,0.4638417363166809,0.1433280110359192
2024-12-07 20:29:20.834568000,1.68156787109375,0.5680498480796814,0.4144843220710754,0.1694028526544571
2024-12-07 20:29:20.844582100,1.69158203125,0.6214949488639832,0.4147895276546478,0.1507631242275238
2024-12-07 20:29:20.854596000,1.70159619140625,0.6497227549552917,0.41801518201828,0.2441395819187164
2024-12-07 20:29:20.864609000,1.711609130859375,0.5888445377349854,0.3986649215221405,0.5413385033607483
2024-12-07 20:29:20.874623000,1.721623046875,0.4918187260627746,0.2727713882923126,0.7921168208122253
2024-12-07 20:29:20.884637200,1.73163720703125,0.3885248303413391,-0.0611056610941886,0.8063942790031433
2024-12-07 20:29:20.894649900,1.74164990234375,0.3009086549282074,-0.4881115555763244,0.63347327709198
2024-12-07 20:29:20.904664000,1.7516640625,0.2243209481239318,-0.8692994117736816,0.3165598213672638
2024-12-07 20:29:20.914678000,1.761677978515625,0.1179692521691322,-0.904477596282959,-0.0405216068029403
2024-12-07 20:29:20.924691000,1.77169091796875,0.0281557384878397,-0.6734015345573425,-0.2712882459163666
2024-12-07 20:29:20.934705000,1.781704833984375,-0.0192923247814178,-0.5520038604736328,-0.2510716021060943
2024-12-07 20:29:20.944719600,1.7917197265625,-0.0589539855718612,-0.614375650882721,-0.1541277468204498
2024-12-07 20:29:20.954732500,1.801732666015625,-0.0799037739634513,-0.7061290144920349,-0.138888880610466
2024-12-07 20:29:20.964746500,1.81174658203125,-0.0894365608692169,-0.7020307183265686,-0.1888031661510467
2024-12-07 20:29:20.974760400,1.821760498046875,-0.0862548053264617,-0.6088711023330688,-0.2515701353549957
2024-12-07 20:29:20.984773400,1.8317734375,-0.0791111439466476,-0.3835160136222839,-0.2656904757022857
2024-12-07 20:29:20.994787300,1.841787353515625,-0.0551031902432441,-0.2333902269601822,-0.2466362118721008
2024-12-07 20:29:21.004801500,1.851801513671875,-0.0349427945911884,-0.1766262799501419,-0.2020120173692703
2024-12-07 20:29:21.014814500,1.861814453125,-0.0199449900537729,-0.090601809322834,-0.1497412472963333
2024-12-07 20:29:21.024828400,1.871828369140625,0.0020846771076321,0.0242267735302448,-0.0716365948319435
2024-12-07 20:29:21.034842400,1.88184228515625,0.0205640401691198,0.1581221520900726,0.0150762479752302
2024-12-07 20:29:21.044855300,1.891855224609375,0.0440555177628994,0.2405136972665786,0.0692084580659866
2024-12-07 20:29:21.054869500,1.901869384765625,0.0559683106839656,0.2357229739427566,0.0884595364332199
2024-12-07 20:29:21.064883500,1.911883544921875,0.048841692507267,0.2513304054737091,0.1111225038766861
2024-12-07 20:29:21.074896400,1.921896484375,0.0541020072996616,0.3048645257949829,0.1312245875597
2024-12-07 20:29:21.084910300,1.931910400390625,0.0901265889406204,0.3169147968292236,0.1308088600635528
2024-12-07 20:29:21.094924500,1.941924560546875,0.1033944115042686,0.2932357490062713,0.1295191496610641
2024-12-07 20:29:21.104937500,1.9519375,0.0913960710167884,0.2965244948863983,0.1158422157168388
2024-12-07 20:29:21.114951400,1.961951416015625,0.0646658688783645,0.3332239985466003,0.0026388035621494
2024-12-07 20:29:21.124965400,1.97196533203125,-0.0236858334392309,0.2663224637508392,-0.1613650470972061
2024-12-07 20:29:21.134978600,1.981978515625,-0.113681249320507,-0.0044771693646907,-0.2167722582817077
2024-12-07 20:29:21.144992300,1.9919921875,-0.1814033091068267,-0.3542402386665344,-0.2010785192251205
2024-12-07 20:29:21.155006500,2.00200634765625,-0.2592296004295349,-0.6872060298919678,-0.1709403842687606
2024-12-07 20:29:21.165020400,2.0120205078125,-0.3219382464885711,-0.7993879914283752,-0.0574281997978687
2024-12-07 20:29:21.175033300,2.022033447265625,-0.2699643671512604,-0.6040350794792175,0.0841565132141113
2024-12-07 20:29:21.185047300,2.03204736328125,-0.1375818401575088,-0.3713538944721222,0.0924637094140052
2024-12-07 20:29:21.195061500,2.0420615234375,-0.0628539249300956,-0.229657843708992,-0.0084831416606903
2024-12-07 20:29:21.205074400,2.052074462890625,-0.1008468493819236,-0.1250241100788116,-0.0648867636919021
2024-12-07 20:29:21.215088400,2.06208837890625,-0.1782835274934768,-0.11371910572052,-0.0789283886551857
2024-12-07 20:29:21.225102300,2.072102294921875,-0.2277136594057083,-0.1348147988319397,-0.0771885439753532
2024-12-07 20:29:21.235115500,2.082115478515625,-0.2441591024398803,-0.1084485724568367,-0.062124103307724
2024-12-07 20:29:21.245129500,2.09212939453125,-0.2604794800281524,-0.0214204676449298,-0.0473251827061176
2024-12-07 20:29:21.255143400,2.102143310546875,-0.2750181555747986,0.1203130632638931,-0.03556365147233
2024-12-07 20:29:21.265156600,2.112156494140625,-0.3001756966114044,0.2572293579578399,-0.025461483746767
2024-12-07 20:29:21.275170300,2.12217041015625,-0.3314394652843475,0.3575242161750793,-0.0086852274835109
2024-12-07 20:29:21.285184300,2.132184326171875,-0.3598652482032776,0.4341180622577667,0.0112011292949318
2024-12-07 20:29:21.295197400,2.142197509765625,-0.3629488348960876,0.4691198766231537,0.0269027538597583
2024-12-07 20:29:21.305211600,2.152211669921875,-0.3341318368911743,0.4837891161441803,0.0302420929074287
2024-12-07 20:29:21.315225300,2.162225341796875,-0.2610910832881927,0.5054967403411865,0.0031802738085389
2024-12-07 20:29:21.325238500,2.172238525390625,-0.1733867973089218,0.5437114834785461,-0.039804745465517
2024-12-07 20:29:21.335252500,2.18225244140625,-0.1152323111891746,0.5597406029701233,-0.070873387157917
2024-12-07 20:29:21.345266400,2.192266357421875,-0.0890830010175705,0.4792050421237945,-0.0777118504047393
2024-12-07 20:29:21.355279400,2.202279296875,-0.0727312713861465,0.3295749723911285,-0.0769925341010093
2024-12-07 20:29:21.365293600,2.21229345703125,-0.0694451928138732,0.1728916317224502,-0.0654847547411918
2024-12-07 20:29:21.375307500,2.2223076171875,-0.0790833309292793,0.0624850839376449,-0.0486197471618652
2024-12-07 20:29:21.385320400,2.232320556640625,-0.0852181836962699,0.0054244631901383,-0.0256457198411226
2024-12-07 20:29:21.395334400,2.24233447265625,-0.0781843513250351,-0.03093415312469,-0.0010661357082426
2024-12-07 20:29:21.405348600,2.2523486328125,-0.0670129209756851,-0.0380977876484394,-0.0077557298354804
2024-12-07 20:29:21.415361300,2.262361328125,-0.0602303147315979,-0.0019517372129485,-0.0399740599095821
2024-12-07 20:29:21.425375500,2.27237548828125,-0.0594161860644817,0.0273659378290176,-0.0739099234342575
2024-12-07 20:29:21.435389400,2.282389404296875,-0.0732892826199531,0.0389459319412708,-0.0785088911652565
2024-12-07 20:29:21.445402400,2.29240234375,-0.0990489721298217,0.0338771380484104,-0.0478053018450737
2024-12-07 20:29:21.455416300,2.302416259765625,-0.1244904845952987,0.0060034347698092,-0.005613422486931
2024-12-07 20:29:21.465430500,2.312430419921875,-0.1432924121618271,-0.0509426742792129,0.0092435544356703
2024-12-07 20:29:21.475443500,2.322443359375,-0.1584733426570892,-0.1178822070360183,-0.0051393299363553
2024-12-07 20:29:21.485457400,2.33245751953125,-0.1728352308273315,-0.1549835056066513,-0.0245340671390295
2024-12-07 20:29:21.495471400,2.342471435546875,-0.189442440867424,-0.1512574702501297,-0.0255396757274866
2024-12-07 20:29:21.505484300,2.352484375,-0.2048501670360565,-0.0927856415510177,-0.0018553864210844
2024-12-07 20:29:21.515498500,2.36249853515625,-0.2100010961294174,0.024893932044506,0.0269693881273269
2024-12-07 20:29:21.525512400,2.372512451171875,-0.1871405243873596,0.2040351927280426,0.0354464948177337
2024-12-07 20:29:21.535526400,2.3825263671875,-0.1370904296636581,0.4190097451210022,0.0156637914478778
2024-12-07 20:29:21.545539300,2.392539306640625,-0.0574491210281848,0.6154741048812866,0.0033647813834249
2024-12-07 20:29:21.555553500,2.402553466796875,0.0493177585303783,0.7313441038131714,0.0270749572664499
2024-12-07 20:29:21.565567500,2.4125673828125,0.1971687376499176,0.7531918883323669,0.1305800527334213
2024-12-07 20:29:21.575580400,2.422580322265625,0.4054330587387085,0.6644657850265503,0.27376788854599
2024-12-07 20:29:21.585594400,2.432594482421875,0.6431998014450073,0.5866551399230957,0.3614231646060943
2024-12-07 20:29:21.595608600,2.442608642578125,0.8526342511177063,0.7742977142333984,0.3500173985958099
2024-12-07 20:29:21.605621200,2.452621337890625,1.0360532999038696,1.2132258415222168,0.2515203654766083
2024-12-07 20:29:21.615635500,2.462635498046875,1.2170661687850952,1.3520385026931765,0.3346650600433349
2024-12-07 20:29:21.625649400,2.4726494140625,1.2258151769638062,0.9490286707878112,0.6752263903617859
2024-12-07 20:29:21.635662600,2.48266259765625,1.0913904905319214,0.1660426706075668,0.96235591173172
2024-12-07 20:29:21.645676300,2.49267626953125,0.9334958791732788,-0.3650848567485809,1.0109729766845703
2024-12-07 20:29:21.655690500,2.5026904296875,0.8107450008392334,-0.4337319433689117,0.9267219305038452
2024-12-07 20:29:21.665703400,2.512703369140625,0.758992075920105,-0.2030862271785736,0.7884069681167603
2024-12-07 20:29:21.675717400,2.52271728515625,0.7154736518859863,-0.0147704174742102,0.6517913341522217
2024-12-07 20:29:21.685731300,2.5327314453125,0.6189108490943909,-0.0495129488408565,0.5194668769836426
2024-12-07 20:29:21.695744500,2.54274462890625,0.4867793619632721,-0.1809470802545547,0.3590943813323974
2024-12-07 20:29:21.705758200,2.55275830078125,0.3607149124145508,-0.2876604795455932,0.2081605345010757
2024-12-07 20:29:21.715772400,2.5627724609375,0.2927483320236206,-0.3537269532680511,0.1021795645356178
2024-12-07 20:29:21.725785600,2.57278564453125,0.3111084401607513,-0.3629577457904815,0.0188524518162012
2024-12-07 20:29:21.735799600,2.582799560546875,0.3987072706222534,-0.3535472750663757,-0.065272182226181
2024-12-07 20:29:21.745813200,2.592813232421875,0.4930380284786224,-0.3840063810348511,-0.1217362582683563
2024-12-07 20:29:21.755826400,2.602826416015625,0.5658966302871704,-0.5004197359085083,-0.1391607820987701
2024-12-07 20:29:21.765840600,2.612840576171875,0.6187739372253418,-0.7101753354072571,-0.1236478686332702
2024-12-07 20:29:21.775854300,2.622854248046875,0.6431377530097961,-0.8440157771110535,-0.0507044047117233
2024-12-07 20:29:21.785867500,2.632867431640625,0.6427558660507202,-0.8599180579185486,0.0401264280080795
2024-12-07 20:29:21.795881500,2.642881591796875,0.6112807393074036,-0.7470200061798096,0.1010493636131286
2024-12-07 20:29:21.805895400,2.6528955078125,0.5520025491714478,-0.5477465391159058,0.1595582216978073
2024-12-07 20:29:21.815908400,2.662908447265625,0.4716586470603943,-0.3786794245243072,0.2059671580791473
2024-12-07 20:29:21.825922600,2.672922607421875,0.3966041207313537,-0.2960732281208038,0.2021540403366089
2024-12-07 20:29:21.835936500,2.6829365234375,0.3243842720985412,-0.3089717626571655,0.143361359834671
2024-12-07 20:29:21.845949400,2.692949462890625,0.2462953031063079,-0.4122531414031982,0.0487826541066169
2024-12-07 20:29:21.855963400,2.70296337890625,0.1508507281541824,-0.4945891201496124,-0.0114993341267108
2024-12-07 20:29:21.865977600,2.7129775390625,0.0442393384873867,-0.4837351441383362,-0.0704960748553276
2024-12-07 20:29:21.875990300,2.722990234375,-0.0486149303615093,-0.417821317911148,-0.1691043972969055
2024-12-07 20:29:21.886004500,2.73300439453125,-0.1089499145746231,-0.2757225036621094,-0.3175024092197418
2024-12-07 20:29:21.896018400,2.743018310546875,-0.1313585937023162,-0.1266881227493286,-0.5041606426239014
2024-12-07 20:29:21.906031400,2.75303125,-0.1019359901547432,-0.0846780911087989,-0.6725803017616272
2024-12-07 20:29:21.916045300,2.76304541015625,-0.1030514538288116,-0.1388521343469619,-0.6630630493164062
2024-12-07 20:29:21.926059500,2.7730595703125,-0.1840416491031646,-0.3392123878002167,-0.5200997591018677
2024-12-07 20:29:21.936072400,2.783072509765625,-0.2814382910728454,-0.536297619342804,-0.4026686251163482
2024-12-07 20:29:21.946086700,2.793086669921875,-0.3823228180408478,-0.5782480239868164,-0.343843936920166
2024-12-07 20:29:21.956100400,2.803100341796875,-0.4815760254859924,-0.4970814287662506,-0.2906374335289001
2024-12-07 20:29:21.966114600,2.813114501953125,-0.5435935854911804,-0.3611992001533508,-0.2416248917579651
2024-12-07 20:29:21.976127700,2.823127685546875,-0.5716638565063477,-0.1970342844724655,-0.2740115225315094
2024-12-07 20:29:21.986141700,2.8331416015625,-0.5964480042457581,-0.0583789348602294,-0.4205000400543213
2024-12-07 20:29:21.996155400,2.8431552734375,-0.5501776933670044,0.0716318488121032,-0.5575788617134094
2024-12-07 20:29:22.006168600,2.85316845703125,-0.30459725856781,0.1805325001478195,-0.4856476783752441
2024-12-07 20:29:22.016182800,2.863182861328125,0.1085177436470985,0.1311614662408828,-0.2414646744728088
2024-12-07 20:29:22.026196500,2.873196533203125,0.5094987154006958,-0.1360233575105667,0.0652313455939292
2024-12-07 20:29:22.036209700,2.883209716796875,0.659375011920929,-0.4821559488773346,0.4606419801712036
2024-12-07 20:29:22.046223600,2.8932236328125,0.4561720490455627,-0.565625011920929,0.7015661597251892
2024-12-07 20:29:22.056237600,2.903237548828125,0.0805362537503242,-0.2945444881916046,0.6081167459487915
2024-12-07 20:29:22.066250500,2.91325048828125,-0.3123234212398529,0.1509262025356292,0.1735365092754364
2024-12-07 20:29:22.076264700,2.9232646484375,-0.5688720345497131,0.4418211579322815,-0.3490429520606994
2024-12-07 20:29:22.086278700,2.933278564453125,-0.689561128616333,0.4987646043300628,-0.6597694158554077
2024-12-07 20:29:22.096291600,2.94329150390625,-0.7190294861793518,0.5054237246513367,-0.7010495066642761
2024-12-07 20:29:22.106305500,2.953305419921875,-0.6322072148323059,0.4961414933204651,-0.5566588044166565
2024-12-07 20:29:22.116319700,2.96331982421875,-0.4411707520484924,0.4042051136493683,-0.376817375421524
2024-12-07 20:29:22.126332400,2.97333251953125,-0.2403599023818969,0.2510823905467987,-0.2367654740810394
2024-12-07 20:29:22.136346600,2.9833466796875,-0.1021176576614379,0.1330150067806244,-0.1561789065599441
2024-12-07 20:29:22.146360600,2.993360595703125,-0.0472871698439121,0.0489144958555698,-0.1435382217168808
2024-12-07 20:29:22.156373500,3.00337353515625,-0.0713508874177932,-0.0318794213235378,-0.1841228753328323
2024-12-07 20:29:22.166387500,3.013387451171875,-0.1245565935969352,-0.0617907159030437,-0.2446338981389999
2024-12-07 20:29:22.176401700,3.023401611328125,-0.1370800882577896,0.0312433540821075,-0.2641237080097198
2024-12-07 20:29:22.186414600,3.03341455078125,-0.1410785615444183,0.1009555906057357,-0.2259491533041
2024-12-07 20:29:22.196428500,3.043428466796875,-0.1706066578626632,0.1119168400764465,-0.1822269260883331
2024-12-07 20:29:22.206442500,3.0534423828125,-0.2202599644660949,0.2076076865196228,-0.1344045400619506
2024-12-07 20:29:22.216455400,3.063455322265625,-0.289167582988739,0.3640362322330475,-0.0674297586083412
2024-12-07 20:29:22.226469600,3.0734697265625,-0.3571847081184387,0.4549373984336853,-0.0192393325269222
2024-12-07 20:29:22.236483600,3.083483642578125,-0.4004027247428894,0.4728754162788391,-0.0023112692870199
2024-12-07 20:29:22.246496800,3.093496826171875,-0.384331613779068,0.4487953782081604,0.0024344834964722
2024-12-07 20:29:22.256510500,3.103510498046875,-0.331567645072937,0.4152105152606964,-0.0105387344956398
2024-12-07 20:29:22.266524700,3.113524658203125,-0.294026643037796,0.3393381237983703,-0.0577041134238243
2024-12-07 20:29:22.276537600,3.12353759765625,-0.3127130568027496,0.202738806605339,-0.1047098115086555
2024-12-07 20:29:22.286551600,3.133551513671875,-0.3637253642082214,0.0321817174553871,-0.1277826279401779
2024-12-07 20:29:22.296565500,3.1435654296875,-0.3933965563774109,-0.1251378506422042,-0.1310618817806244
2024-12-07 20:29:22.306579700,3.153579833984375,-0.3823316693305969,-0.2709040939807892,-0.1375607997179031
2024-12-07 20:29:22.316592400,3.16359228515625,-0.3637548089027405,-0.3847324550151825,-0.1562020778656005
2024-12-07 20:29:22.326606600,3.173606689453125,-0.3543221354484558,-0.4569312930107116,-0.1727973073720932
2024-12-07 20:29:22.336620500,3.18362060546875,-0.3504083156585693,-0.4920654594898224,-0.1851206570863723
2024-12-07 20:29:22.346633700,3.1936337890625,-0.3427898287773132,-0.505429744720459,-0.2014775276184082
2024-12-07 20:29:22.356647400,3.2036474609375,-0.3291840255260467,-0.4888844192028045,-0.2155442982912063
2024-12-07 20:29:22.366661600,3.21366162109375,-0.324130117893219,-0.4277880489826202,-0.211854487657547
2024-12-07 20:29:22.376674600,3.223674560546875,-0.3285320699214935,-0.364773541688919,-0.1884043365716934
2024-12-07 20:29:22.386688500,3.2336884765625,-0.3391239941120147,-0.3237110674381256,-0.1596155613660812
2024-12-07 20:29:22.396702500,3.243702392578125,-0.3460704684257507,-0.306761085987091,-0.138222336769104
2024-12-07 20:29:22.406715600,3.253715576171875,-0.3457024097442627,-0.3174672424793243,-0.132260575890541
2024-12-07 20:29:22.416729600,3.2637294921875,-0.3328525125980377,-0.3494468629360199,-0.1526654511690139
2024-12-07 20:29:22.426743600,3.27374365234375,-0.314785897731781,-0.3878216743469238,-0.1894138753414154
2024-12-07 20:29:22.436756700,3.2837568359375,-0.2911916971206665,-0.4124220609664917,-0.2277116328477859
2024-12-07 20:29:22.446770700,3.293770751953125,-0.2669670581817627,-0.4317361116409302,-0.2299380451440811
2024-12-07 20:29:22.456784400,3.303784423828125,-0.2453093826770782,-0.4698110520839691,-0.1959458738565445
2024-12-07 20:29:22.466797600,3.313797607421875,-0.2283429205417633,-0.526710569858551,-0.1480137705802917
2024-12-07 20:29:22.476811500,3.3238115234375,-0.22129887342453,-0.5759439468383789,-0.1089605912566185
2024-12-07 20:29:22.486825500,3.333825439453125,-0.2253625839948654,-0.5844644904136658,-0.0919533744454383
2024-12-07 20:29:22.496838700,3.343838623046875,-0.2368734776973724,-0.5556760430335999,-0.0896823331713676
2024-12-07 20:29:22.506852600,3.3538525390625,-0.2395116090774536,-0.4900099635124206,-0.0972094908356666
2024-12-07 20:29:22.516866600,3.363866455078125,-0.2388686239719391,-0.4023191034793854,-0.1050166115164756
2024-12-07 20:29:22.526879500,3.37387939453125,-0.225384771823883,-0.293787807226181,-0.109612688422203
2024-12-07 20:29:22.536893700,3.383893798828125,-0.2144131958484649,-0.1661479175090789,-0.1095754578709602
2024-12-07 20:29:22.546907600,3.39390771484375,-0.2068415582180023,-0.0515488982200622,-0.1165888905525207
2024-12-07 20:29:22.556920600,3.403920654296875,-0.2007140070199966,0.0077909757383167,-0.1326911002397537
2024-12-07 20:29:22.566934500,3.4139345703125,-0.2136583030223846,0.0170784834772348,-0.1572545021772384
2024-12-07 20:29:22.576948700,3.42394873046875,-0.2491693496704101,0.0039141410961747,-0.1747632920742035
2024-12-07 20:29:22.586961400,3.43396142578125,-0.2979992032051086,-0.007792848162353,-0.1887214481830597
2024-12-07 20:29:22.596975600,3.4439755859375,-0.3354952037334442,0.0030067590996623,-0.2042160034179687
2024-12-07 20:29:22.606989600,3.453989501953125,-0.3467656970024109,0.0153102967888116,-0.2212309390306472
2024-12-07 20:29:22.617002500,3.46400244140625,-0.3405095636844635,0.0299829542636871,-0.2532102763652801
2024-12-07 20:29:22.627016400,3.474016357421875,-0.3297698199748993,0.0578249730169773,-0.2997463643550873
2024-12-07 20:29:22.637030700,3.48403076171875,-0.3264090716838836,0.1089989840984344,-0.3470224738121032
2024-12-07 20:29:22.647043600,3.494043701171875,-0.3416143655776977,0.1853187829256057,-0.3846659958362579
2024-12-07 20:29:22.657057500,3.5040576171875,-0.3515764772891998,0.289118617773056,-0.3811455070972442
2024-12-07 20:29:22.667071500,3.514071533203125,-0.3225307166576385,0.3865469098091125,-0.2636502981185913
2024-12-07 20:29:22.677085700,3.524085693359375,-0.215982049703598,0.4012120962142944,-0.0193778164684772
2024-12-07 20:29:22.687098600,3.5340986328125,-0.0209411792457103,0.2852170765399933,0.29060959815979
2024-12-07 20:29:22.697112600,3.544112548828125,0.2419034838676452,0.097569890320301,0.563464343547821
2024-12-07 20:29:22.707126500,3.55412646484375,0.482804536819458,-0.0394926220178604,0.6902875304222107
2024-12-07 20:29:22.717139500,3.564139404296875,0.6009541153907776,-0.1584772318601608,0.6339717507362366
2024-12-07 20:29:22.727153700,3.574153564453125,0.6173384189605713,-0.4236494898796081,0.4836757183074951
2024-12-07 20:29:22.737167600,3.584167724609375,0.5811126232147217,-0.7863794565200806,0.4737662374973297
2024-12-07 20:29:22.747180500,3.5941806640625,0.5362055897712708,-0.9881125688552856,0.6887107491493225
2024-12-07 20:29:22.757194500,3.604194580078125,0.5494261384010315,-0.882248044013977,0.9713935256004332
2024-12-07 20:29:22.767208700,3.614208740234375,0.5893469452857971,-0.5089932680130005,1.1893444061279297
2024-12-07 20:29:22.777221600,3.6242216796875,0.6348231434822083,0.0330003201961517,1.2610145807266235
2024-12-07 20:29:22.787235600,3.634235595703125,0.6927679181098938,0.7172255516052246,1.184518814086914
2024-12-07 20:29:22.797249500,3.64424951171875,0.7608846426010132,1.3534406423568726,1.018919825553894
2024-12-07 20:29:22.807262700,3.6542626953125,0.7817316055297852,1.5778359174728394,0.833939790725708
2024-12-07 20:29:22.817276400,3.6642763671875,0.7361801266670227,1.3053008317947388,0.6823825836181641
2024-12-07 20:29:22.827290600,3.67429052734375,0.6156046986579895,0.7055564522743225,0.5845537781715393
2024-12-07 20:29:22.837303600,3.684303466796875,0.4626297056674957,0.1248373687267303,0.5542176365852356
2024-12-07 20:29:22.847317500,3.6943173828125,0.3196578919887543,-0.2799378037452698,0.5465144515037537
2024-12-07 20:29:22.857331500,3.70433154296875,0.2235224545001983,-0.5615062713623047,0.4868285655975342
2024-12-07 20:29:22.867344600,3.7143447265625,0.1903456002473831,-0.7032767534255981,0.3535671830177307
2024-12-07 20:29:22.877358600,3.724358642578125,0.2339901179075241,-0.6107707619667053,0.1850873827934265
2024-12-07 20:29:22.887372500,3.73437255859375,0.3357801437377929,-0.293775200843811,0.0399666801095008
2024-12-07 20:29:22.897385500,3.744385498046875,0.4697351157665252,0.0430593974888324,-0.0544823259115219
2024-12-07 20:29:22.907399700,3.754399658203125,0.608025848865509,0.2442913055419922,-0.0698493048548698
2024-12-07 20:29:22.917413400,3.764413330078125,0.7048555612564087,0.2681293487548828,-0.0124706905335187
2024-12-07 20:29:22.927426600,3.774426513671875,0.749284029006958,0.1274145692586898,0.0948922485113143
2024-12-07 20:29:22.937440500,3.7844404296875,0.7606323957443237,-0.0978930369019508,0.2044782489538192
2024-12-07 20:29:22.947453700,3.79445361328125,0.757245659828186,-0.2490226477384567,0.2929902672767639
2024-12-07 20:29:22.957467000,3.804466796875,0.7481876611709595,-0.2820043265819549,0.3405643701553345
2024-12-07 20:29:22.967480800,3.814480712890625,0.7507006525993347,-0.2539947926998138,0.3353499174118042
2024-12-07 20:29:22.977494800,3.824494873046875,0.7662592530250549,-0.2477052509784698,0.3079629838466644
2024-12-07 20:29:22.987507700,3.8345078125,0.7740748524665833,-0.3153553903102875,0.2809542417526245
2024-12-07 20:29:22.997522000,3.84452197265625,0.7562610507011414,-0.441271960735321,0.2580366730690002
2024-12-07 20:29:23.007535900,3.854535888671875,0.7095082402229309,-0.5666698217391968,0.2116129994392395
2024-12-07 20:29:23.017549800,3.8645498046875,0.6349349617958069,-0.5636104941368103,0.1282855123281479
2024-12-07 20:29:23.027562800,3.874562744140625,0.5359825491905212,-0.4576965570449829,0.1026941314339637
2024-12-07 20:29:23.037577000,3.884576904296875,0.4325639605522156,-0.4274861514568329,0.1307770609855651
2024-12-07 20:29:23.047590700,3.894590576171875,0.3440420627593994,-0.4402536153793335,0.1220181956887245
2024-12-07 20:29:23.057603800,3.904603759765625,0.2558437883853912,-0.3609628677368164,0.0868339538574218
2024-12-07 20:29:23.067617800,3.91461767578125,0.169000506401062,-0.1745857894420623,0.0606042146682739
2024-12-07 20:29:23.077631700,3.9246318359375,0.1008228659629821,-0.0287691988050937,0.0205356702208518
2024-12-07 20:29:23.087645000,3.93464501953125,0.0767995491623878,0.0043123224750161,-0.0524991229176521
2024-12-07 20:29:23.097659000,3.944658935546875,0.1217554658651351,0.0412620455026626,-0.1533837020397186
2024-12-07 20:29:23.107672800,3.9546728515625,0.2111593782901764,0.1810830682516098,-0.2642055451869964
2024-12-07 20:29:23.117685800,3.964685791015625,0.2873743176460266,0.3610277771949768,-0.3605293929576874
2024-12-07 20:29:23.127700000,3.974699951171875,0.2896726131439209,0.4890635013580322,-0.4179228842258453
2024-12-07 20:29:23.137714000,3.9847138671875,0.1933172345161438,0.4669784307479858,-0.4052577614784241
2024-12-07 20:29:23.147726800,3.994726806640625,0.0386909022927284,0.2499041557312011,-0.3514299392700195
2024-12-07 20:29:23.157740800,4.00474072265625,-0.0744111686944961,0.0579894743859767,-0.3216285407543182
2024-12-07 20:29:23.167755000,4.014755126953125,-0.1207813322544097,0.0100736152380704,-0.2581619620323181
2024-12-07 20:29:23.177767700,4.024767578125,-0.1297101825475692,-0.042077824473381,-0.1677412390708923
2024-12-07 20:29:23.187782000,4.034781982421875,-0.1078813225030899,-0.1589759439229965,-0.1028983294963836
2024-12-07 20:29:23.197795800,4.0447958984375,0.0201189517974853,-0.2177660763263702,-0.104743905365467
2024-12-07 20:29:23.207808800,4.054808837890625,0.3318771123886108,-0.0613977722823619,-0.1672437638044357
2024-12-07 20:29:23.217822700,4.06482275390625,0.7806385159492493,0.1626188457012176,-0.3290557265281677
2024-12-07 20:29:23.227837000,4.0748369140625,1.0627306699752808,0.0222494825720787,-0.4415591061115265
2024-12-07 20:29:23.237849600,4.084849609375,0.8458869457244873,-0.4274147748947143,-0.2477312386035919
2024-12-07 20:29:23.247863800,4.09486376953125,0.2800978124141693,-0.7401178479194641,0.1771422773599624
2024-12-07 20:29:23.257877800,4.104877685546875,-0.3365677297115326,-0.6697244048118591,0.411299467086792
2024-12-07 20:29:23.267891000,4.114890869140625,-0.7034136056900024,-0.1713074147701263,0.19046351313591
2024-12-07 20:29:23.277904600,4.124904541015625,-0.8135291934013367,0.370423287153244,-0.2459199875593185
2024-12-07 20:29:23.287918800,4.1349189453125,-0.8593621850013733,0.5775378346443176,-0.5944353938102722
2024-12-07 20:29:23.297932000,4.14493212890625,-0.8899925351142883,0.6204442977905273,-0.707885205745697
2024-12-07 20:29:23.307945700,4.15494580078125,-0.8239796757698059,0.6294231414794922,-0.6344557404518127
2024-12-07 20:29:23.317959700,4.164959716796875,-0.675210177898407,0.5591690540313721,-0.5213194489479065
2024-12-07 20:29:23.327972900,4.174972900390625,-0.5072686076164246,0.4303160309791565,-0.4213992953300476
2024-12-07 20:29:23.337986800,4.18498681640625,-0.3348383009433746,0.3163128197193146,-0.3313552141189575
2024-12-07 20:29:23.348000800,4.195000732421875,-0.2053562104701995,0.3053965270519256,-0.2594605088233948
2024-12-07 20:29:23.358014700,4.2050146484375,-0.2134302109479904,0.3107642233371734,-0.2405778467655182
2024-12-07 20:29:23.368028000,4.21502783203125,-0.2821964919567108,0.2310172170400619,-0.2445030808448791
2024-12-07 20:29:23.378041900,4.225041748046875,-0.3234720528125763,0.1577784270048141,-0.2305031567811966
2024-12-07 20:29:23.388055800,4.235055908203125,-0.3428792953491211,0.1977005451917648,-0.2006651014089584
2024-12-07 20:29:23.398069000,4.245069091796875,-0.3425984680652618,0.2824424803256988,-0.1749054044485092
2024-12-07 20:29:23.408082700,4.255082763671875,-0.3108333647251129,0.3659003376960754,-0.1630591303110122
2024-12-07 20:29:23.418097000,4.265096923828125,-0.2709645330905914,0.4463943243026733,-0.1624292433261871
2024-12-07 20:29:23.428109800,4.27510986328125,-0.261574238538742,0.5052334070205688,-0.1821933686733245
2024-12-07 20:29:23.438123800,4.285123779296875,-0.2907818853855133,0.573931872844696,-0.2137633860111236
2024-12-07 20:29:23.448137700,4.2951376953125,-0.3531062602996826,0.6093056201934814,-0.2438523024320602
2024-12-07 20:29:23.458151000,4.30515087890625,-0.4232910275459289,0.5841951966285706,-0.252043217420578
2024-12-07 20:29:23.468164900,4.315164794921875,-0.4616373479366302,0.5162310600280762,-0.2284263223409652
2024-12-07 20:29:23.478178800,4.3251787109375,-0.4644870162010193,0.4262993037700653,-0.1942199915647506
2024-12-07 20:29:23.488191700,4.335191650390625,-0.4444478154182434,0.3299368023872375,-0.1614449918270111
2024-12-07 20:29:23.498206000,4.3452060546875,-0.4195556938648224,0.2271926552057266,-0.1388403475284576
2024-12-07 20:29:23.508219600,4.3552197265625,-0.3975558578968048,0.1254220902919769,-0.1315768510103225
2024-12-07 20:29:23.518232800,4.36523291015625,-0.3758911192417145,0.0125190382823348,-0.1350084394216537
2024-12-07 20:29:23.528246800,4.375246826171875,-0.3517492711544037,-0.0763884708285331,-0.1228050366044044
2024-12-07 20:29:23.538261000,4.385260986328125,-0.326161652803421,-0.1263850331306457,-0.1020955443382263
2024-12-07 20:29:23.548274000,4.39527392578125,-0.3010901212692261,-0.1676501929759979,-0.1031640097498893
2024-12-07 20:29:23.558288000,4.405287841796875,-0.2832613885402679,-0.2009100764989853,-0.1317765712738037
2024-12-07 20:29:23.568301800,4.4153017578125,-0.2744404673576355,-0.2106252908706665,-0.1621757596731186
2024-12-07 20:29:23.578314800,4.425314697265625,-0.274955004453659,-0.1898291260004043,-0.1706042438745498
2024-12-07 20:29:23.588329000,4.435328857421875,-0.2752029597759247,-0.1544200032949447,-0.1535616070032119
2024-12-07 20:29:23.598343000,4.445343017578125,-0.2723476588726043,-0.1079500094056129,-0.1242078319191932
2024-12-07 20:29:23.608355800,4.45535595703125,-0.2528879344463348,-0.0328683108091354,-0.0868697762489318
2024-12-07 20:29:23.618369800,4.465369873046875,-0.2220404744148254,0.0612771324813365,-0.0549088530242443
2024-12-07 20:29:23.628384000,4.475384033203125,-0.1964469701051712,0.1384765654802322,-0.040233239531517
2024-12-07 20:29:23.638396700,4.485396728515625,-0.1902310848236084,0.2063260823488235,-0.0382836498320102
2024-12-07 20:29:23.648411000,4.495410888671875,-0.2098743021488189,0.2552558183670044,-0.0385651439428329
2024-12-07 20:29:23.658424800,4.5054248046875,-0.2437232881784439,0.2686947882175445,-0.0444939844310283
2024-12-07 20:29:23.668438800,4.515438720703125,-0.272868663072586,0.241270899772644,-0.0552696660161018
2024-12-07 20:29:23.678451700,4.52545166015625,-0.2778331935405731,0.1846115440130233,-0.0779414698481559
2024-12-07 20:29:23.688466000,4.5354658203125,-0.2616337239742279,0.113759733736515,-0.1008931249380111
2024-12-07 20:29:23.698479900,4.54547998046875,-0.2244817167520523,0.0578344576060771,-0.1187373250722885
2024-12-07 20:29:23.708492800,4.555492919921875,-0.1728747189044952,0.0374809838831424,-0.1306991726160049
2024-12-07 20:29:23.718506800,4.5655068359375,-0.1186357364058494,0.0670984238386154,-0.1348077803850174
2024-12-07 20:29:23.728521000,4.57552099609375,-0.0564948618412017,0.1305034905672073,-0.1216038390994072
2024-12-07 20:29:23.738533600,4.58553369140625,0.0062892567366361,0.1840210258960724,-0.0943737104535102
2024-12-07 20:29:23.748547800,4.5955478515625,0.0433681830763816,0.2115037888288498,-0.0455262772738933
2024-12-07 20:29:23.758561800,4.605561767578125,0.0614642426371574,0.2163075059652328,0.0232879482209682
2024-12-07 20:29:23.768574700,4.61557470703125,0.0741688534617424,0.2316156178712844,0.0859228298068046
2024-12-07 20:29:23.778588700,4.625588623046875,0.0911445617675781,0.2777566015720367,0.1149167194962501
2024-12-07 20:29:23.788603000,4.635602783203125,0.1093850806355476,0.3643583357334137,0.1170909255743026
2024-12-07 20:29:23.798615800,4.64561572265625,0.1180020496249198,0.45530566573143,0.1009824723005294
2024-12-07 20:29:23.808629800,4.655629638671875,0.1115188524127006,0.4886952936649322,0.0583127737045288
2024-12-07 20:29:23.818643700,4.665643798828125,0.0824596732854843,0.4859792292118072,-0.0019344799220561
2024-12-07 20:29:23.828657000,4.675656982421875,0.0263988059014081,0.441915363073349,-0.0817587375640869
2024-12-07 20:29:23.838670800,4.6856708984375,-0.0498643964529037,0.3498363792896271,-0.1744268387556076
2024-12-07 20:29:23.848684800,4.695684814453125,-0.1539713442325592,0.2757938504219055,-0.2606815695762634
2024-12-07 20:29:23.858698000,4.705697998046875,-0.2640517354011535,0.2619708478450775,-0.3289265036582947
2024-12-07 20:29:23.868711700,4.715711669921875,-0.3455803990364074,0.293272316455841,-0.3865554332733154
2024-12-07 20:29:23.878726000,4.725725830078125,-0.3913169801235199,0.3401703536510467,-0.4161548912525177
2024-12-07 20:29:23.888738800,4.73573876953125,-0.3900578320026397,0.3473702073097229,-0.4055419266223907
2024-12-07 20:29:23.898753000,4.7457529296875,-0.3564245104789734,0.3049511313438415,-0.3901292085647583
2024-12-07 20:29:23.908766700,4.7557666015625,-0.3204790353775024,0.2562078237533569,-0.4025903940200805
2024-12-07 20:29:23.918780000,4.76577978515625,-0.3013426959514618,0.2255715727806091,-0.4122374355792999
2024-12-07 20:29:23.928793900,4.7757939453125,-0.2901326715946197,0.2113529592752456,-0.3867498934268951
2024-12-07 20:29:23.938807800,4.785807861328125,-0.2754656076431274,0.1979082077741623,-0.335536777973175
2024-12-07 20:29:23.948821800,4.79582177734375,-0.2523871958255768,0.1762511134147644,-0.3079102337360382
2024-12-07 20:29:23.958835700,4.805835693359375,-0.261277437210083,0.1414635479450225,-0.3182390928268432
2024-12-07 20:29:23.968849700,4.815849609375,-0.3213641941547394,0.1625070571899414,-0.3208197057247162
2024-12-07 20:29:23.978862800,4.82586279296875,-0.3706465363502502,0.234263002872467,-0.2788330912590027
2024-12-07 20:29:23.988876500,4.83587646484375,-0.3904721736907959,0.2930666506290436,-0.2365985512733459
2024-12-07 20:29:23.998890800,4.845890869140625,-0.4058400392532348,0.3195489346981048,-0.2544373571872711
2024-12-07 20:29:24.008904700,4.85590478515625,-0.4500466287136078,0.3433570563793182,-0.3209487497806549
2024-12-07 20:29:24.018918000,4.86591796875,-0.5109437108039856,0.3848904073238373,-0.3943736851215362
2024-12-07 20:29:24.028931600,4.875931640625,-0.5346810221672058,0.4627399444580078,-0.4691914618015289
2024-12-07 20:29:24.038945800,4.88594580078125,-0.5223523378372192,0.558349609375,-0.5542754530906677
2024-12-07 20:29:24.048958700,4.895958740234375,-0.492579311132431,0.5515148639678955,-0.6049665808677673
2024-12-07 20:29:24.058972700,4.90597265625,-0.4537794589996338,0.4095326960086822,-0.5952122211456299
2024-12-07 20:29:24.068986600,4.915986572265625,-0.4187588989734649,0.2111421078443527,-0.5451990962028503
2024-12-07 20:29:24.078999800,4.925999755859375,-0.3575938642024994,0.003280543256551,-0.4313741028308868
2024-12-07 20:29:24.089013500,4.936013427734375,-0.2612979710102081,-0.1446071863174438,-0.2274827659130096
2024-12-07 20:29:24.099027700,4.94602783203125,-0.1374867111444473,-0.1613227427005767,-0.0193566735833883
2024-12-07 20:29:24.109040600,4.95604052734375,0.0262108724564313,-0.0828756093978881,0.1101856082677841
2024-12-07 20:29:24.119054800,4.966054931640625,0.1793878376483917,-0.0009359419345855,0.1933871805667877
2024-12-07 20:29:24.129068500,4.976068603515625,0.2491224408149719,0.105941504240036,0.2533059120178222
2024-12-07 20:29:24.139081700,4.986081787109375,0.2795122563838959,0.1586607694625854,0.3464537560939789
2024-12-07 20:29:24.149095700,4.996095703125,0.3615602552890777,0.1361176371574401,0.4760607481002807
2024-12-07 20:29:24.159109600,5.006109619140625,0.5046505331993103,0.1775741130113601,0.6324368715286255
2024-12-07 20:29:24.169122800,5.016122802734375,0.6260368824005127,0.342134565114975,0.8537053465843201
2024-12-07 20:29:24.179136800,5.02613671875,0.6952594518661499,0.5120710730552673,1.1749703884124756
2024-12-07 20:29:24.189150700,5.036150634765625,0.7168592810630798,0.6398639678955078,1.490998387336731
2024-12-07 20:29:24.199163600,5.04616357421875,0.7139971256256104,0.7848424315452576,1.683125138282776
2024-12-07 20:29:24.209177900,5.056177734375,0.6997761130332947,0.9247324466705322,1.6573811769485474
2024-12-07 20:29:24.219191800,5.06619189453125,0.6628333330154419,0.944286048412323,1.461710810661316
2024-12-07 20:29:24.229204700,5.076204833984375,0.5821784138679504,0.8132303357124329,1.283979892730713
2024-12-07 20:29:24.239218700,5.08621875,0.5099762082099915,0.6401078104972839,1.2049020528793335
2024-12-07 20:29:24.249233000,5.09623291015625,0.4361922740936279,0.4904940724372864,1.22377347946167
2024-12-07 20:29:24.259245600,5.10624560546875,0.3884414434432983,0.4094884991645813,1.2252885103225708
2024-12-07 20:29:24.269259800,5.116259765625,0.369861900806427,0.4827297031879425,1.1469241380691528
2024-12-07 20:29:24.279273700,5.126273681640625,0.3613140285015106,0.7260363101959229,0.9681138396263124
2024-12-07 20:29:24.289287700,5.13628759765625,0.3549118041992187,0.9982388019561768,0.7189692258834839
2024-12-07 20:29:24.299300600,5.146300537109375,0.3868874609470367,1.207852125167847,0.5004924535751343
2024-12-07 20:29:24.309314800,5.156314697265625,0.4693945944309234,1.3553396463394165,0.3665034770965576
2024-12-07 20:29:24.319328800,5.166328857421875,0.5276334881782532,1.4055225849151611,0.2960946559906006
2024-12-07 20:29:24.329341700,5.176341796875,0.463314414024353,1.3384751081466677,0.2884809374809265
2024-12-07 20:29:24.339355600,5.186355712890625,0.6261298060417175,1.2065563201904297,0.2368375658988952
2024-12-07 20:29:24.349369900,5.196369873046875,0.7437248826026917,1.0800777673721311,0.1882082372903823
2024-12-07 20:29:24.359382500,5.206382568359375,0.701654314994812,0.976487398147583,0.159219354391098
2024-12-07 20:29:24.369396700,5.216396728515625,0.5678651332855225,0.8657324314117432,0.1409535259008407
2024-12-07 20:29:24.379410700,5.22641064453125,0.4215651750564575,0.6233364343643188,0.1323181241750717
2024-12-07 20:29:24.389423600,5.236423583984375,0.3481753766536712,0.2841106951236725,0.1144832000136375
2024-12-07 20:29:24.399437600,5.2464375,0.4118090271949768,0.061288233846426,0.1210267096757888
2024-12-07 20:29:24.409451800,5.25645166015625,0.5448222160339355,0.0137108620256185,0.1733636707067489
2024-12-07 20:29:24.419464700,5.266464599609375,0.6800913214683533,0.0290938355028629,0.2501877844333648
2024-12-07 20:29:24.429478700,5.276478759765625,0.786961555480957,0.0535605624318122,0.2924907803535461
2024-12-07 20:29:24.439492600,5.28649267578125,0.8016780614852905,0.0601399689912796,0.2697834074497223
2024-12-07 20:29:24.449505800,5.296505859375,0.7084053754806519,0.0313543975353241,0.1942247450351715
2024-12-07 20:29:24.459519700,5.306519775390625,0.5728069543838501,-0.0010178965749219,0.1151532009243965
2024-12-07 20:29:24.469533700,5.31653369140625,0.4448386132717132,-0.0134617835283279,0.0366964749991893
2024-12-07 20:29:24.479547000,5.326546875,0.3322789967060089,0.0238008555024862,-0.0510160662233829
2024-12-07 20:29:24.489560600,5.336560546875,0.2447608709335327,0.0110842632129788,-0.1120666414499282
2024-12-07 20:29:24.499574800,5.34657470703125,0.1658492386341095,-0.1030699089169502,-0.1677917838096618
2024-12-07 20:29:24.509587700,5.356587646484375,0.085332304239273,-0.1522984355688095,-0.2340200841426849
2024-12-07 20:29:24.519601700,5.3666015625,0.0228760298341512,-0.1417138874530792,-0.2547870874404907
2024-12-07 20:29:24.529615600,5.37661572265625,0.000343824038282,-0.1461112946271896,-0.2231106460094452
2024-12-07 20:29:24.539628800,5.38662890625,0.0180439632385969,-0.2177952826023101,-0.1767456084489822
2024-12-07 20:29:24.549642800,5.396642822265625,0.0515870116651058,-0.3472307622432709,-0.1685100495815277
2024-12-07 20:29:24.559656700,5.40665673828125,0.1081219092011451,-0.4794439673423767,-0.1801458746194839
2024-12-07 20:29:24.569670700,5.416670654296875,0.1667045354843139,-0.5695059895515442,-0.152100384235382
2024-12-07 20:29:24.579683800,5.426683837890625,0.2296230792999267,-0.6083235740661621,-0.1031531393527984
2024-12-07 20:29:24.589697500,5.436697509765625,0.3184472322463989,-0.554990828037262,-0.0827922075986862
2024-12-07 20:29:24.599711700,5.446711669921875,0.406061440706253,-0.3964512944221496,-0.1465163826942443
2024-12-07 20:29:24.609724700,5.456724609375,0.4569704234600067,-0.286631315946579,-0.2742738127708435
2024-12-07 20:29:24.619738600,5.466738525390625,0.4840301275253296,-0.2366236299276352,-0.4169902503490448
2024-12-07 20:29:24.629752600,5.476752685546875,0.500735878944397,-0.2566644847393036,-0.5152249336242676
2024-12-07 20:29:24.639765800,5.486765869140625,0.5147110819816589,-0.3509699404239654,-0.5359606146812439
2024-12-07 20:29:24.649779700,5.49677978515625,0.4801467061042785,-0.529182493686676,-0.4592442512512207
2024-12-07 20:29:24.659793700,5.506793701171875,0.3675461411476135,-0.7899229526519775,-0.2604097723960876
2024-12-07 20:29:24.669806600,5.516806640625,0.2783534228801727,-0.8356252312660217,-0.0390262492001056
2024-12-07 20:29:24.679820800,5.52682080078125,0.3208940923213959,-0.42821004986763,-0.0084122531116008
2024-12-07 20:29:24.689834500,5.53683447265625,0.3054656088352203,-0.1165051460266113,-0.177489161491394
2024-12-07 20:29:24.699847700,5.54684765625,0.1369973123073578,-0.4203246533870697,-0.2940263748168945
2024-12-07 20:29:24.709861600,5.556861572265625,-0.1135837733745575,-0.6512436270713806,-0.1476582288742065
2024-12-07 20:29:24.719875800,5.566875732421875,-0.3862355053424835,-0.4440100491046905,0.0522277653217315
2024-12-07 20:29:24.729888800,5.576888671875,-0.5658470988273621,-0.1804103851318359,0.0674408078193664
2024-12-07 20:29:24.739902700,5.58690283203125,-0.6510154008865356,-0.1301470696926117,-0.061833880841732
2024-12-07 20:29:24.749916700,5.596916748046875,-0.7199220657348633,-0.217162400484085,-0.1976423114538192
2024-12-07 20:29:24.759929600,5.6069296875,-0.7835044264793396,-0.3268572986125946,-0.2712274491786957
2024-12-07 20:29:24.769943800,5.61694384765625,-0.791098952293396,-0.4209763407707214,-0.3101673722267151
2024-12-07 20:29:24.779957800,5.626957763671875,-0.7056727409362793,-0.4981356561183929,-0.3577131330966949
2024-12-07 20:29:24.789970700,5.636970703125,-0.5557287931442261,-0.559951901435852,-0.4161508679389953
2024-12-07 20:29:24.799984600,5.646984619140625,-0.4046525061130523,-0.5578827857971191,-0.4479580223560333
2024-12-07 20:29:24.809998800,5.656998779296875,-0.3440996706485748,-0.5342738628387451,-0.4253594875335693
2024-12-07 20:29:24.820011500,5.667011474609375,-0.388624906539917,-0.5577075481414795,-0.3638248741626739
2024-12-07 20:29:24.830025700,5.677025634765625,-0.4298288226127624,-0.6229368448257446,-0.2952026724815368
2024-12-07 20:29:24.840039700,5.687039794921875,-0.421321153640747,-0.6839370131492615,-0.2362617552280426
2024-12-07 20:29:24.850054000,5.697053955078125,-0.39229616522789,-0.7317540645599365,-0.1901227682828903
2024-12-07 20:29:24.860066600,5.707066650390625,-0.3724923431873321,-0.7730627059936523,-0.163630336523056
2024-12-07 20:29:24.870080800,5.717080810546875,-0.3638889789581299,-0.7824047803878784,-0.1336870938539505
2024-12-07 20:29:24.880094700,5.7270947265625,-0.3581358790397644,-0.7488685846328735,-0.0862979963421821
2024-12-07 20:29:24.890107600,5.737107666015625,-0.3556860387325287,-0.6727913618087769,-0.0429169684648513
2024-12-07 20:29:24.900121600,5.74712158203125,-0.3402054905891418,-0.553491473197937,-0.0334161408245563
2024-12-07 20:29:24.910135800,5.7571357421875,-0.3188277781009674,-0.4468500018119812,-0.0585377402603626
2024-12-07 20:29:24.920148700,5.767148681640625,-0.3012577891349792,-0.3565011620521545,-0.0983882099390029
2024-12-07 20:29:24.930162700,5.77716259765625,-0.2917263507843017,-0.274880588054657,-0.1382131278514862
2024-12-07 20:29:24.940176600,5.7871767578125,-0.2867905795574188,-0.1809790879487991,-0.1709071099758148
2024-12-07 20:29:24.950189800,5.79718994140625,-0.2727815508842468,-0.0878576636314392,-0.2117522656917572
2024-12-07 20:29:24.960203800,5.807203857421875,-0.2592635452747345,0.0003200048813596,-0.258030354976654
2024-12-07 20:29:24.970217700,5.8172177734375,-0.2492042481899261,0.0787530243396759,-0.2823372781276703
2024-12-07 20:29:24.980231000,5.82723095703125,-0.235776737332344,0.1060567423701286,-0.2718519270420074
2024-12-07 20:29:24.990244900,5.837244873046875,-0.2168837338685989,0.0640648156404495,-0.2387778609991073
2024-12-07 20:29:25.000258800,5.8472587890625,-0.185533806681633,-0.0267484448850154,-0.2157641500234604
2024-12-07 20:29:25.010271700,5.857271728515625,-0.1498213410377502,-0.1170543730258941,-0.2188683301210403
2024-12-07 20:29:25.020286000,5.867285888671875,-0.1166249588131904,-0.1601696908473968,-0.2266371548175811
2024-12-07 20:29:25.030300000,5.8772998046875,-0.0879032984375953,-0.1562561690807342,-0.2371952533721923
2024-12-07 20:29:25.040312800,5.887312744140625,-0.0681823194026947,-0.1174054518342018,-0.2421498000621795
2024-12-07 20:29:25.050326800,5.897326904296875,-0.0479843765497207,-0.07757468521595,-0.2259106338024139
2024-12-07 20:29:25.060341000,5.907341064453125,-0.0203924383968114,-0.0578154101967811,-0.1756570041179657
2024-12-07 20:29:25.070353700,5.917353759765625,0.007324410136789,-0.0620503723621368,-0.1222121566534042
2024-12-07 20:29:25.080367900,5.927367919921875,0.0314595289528369,-0.0771684274077415,-0.0856655463576316
2024-12-07 20:29:25.090381800,5.9373818359375,0.0428184419870376,-0.0815123096108436,-0.0628350675106048
2024-12-07 20:29:25.100396000,5.94739599609375,0.0521499477326869,-0.0824035257101059,-0.0394677966833114
2024-12-07 20:29:25.110408700,5.95740869140625,0.0678202509880065,-0.0913131311535835,-0.0191207155585289
2024-12-07 20:29:25.120423000,5.9674228515625,0.0835177302360534,-0.0797818526625633,-0.0399458892643451
2024-12-07 20:29:25.130436900,5.977436767578125,0.09172984957695,-0.0758875086903572,-0.0817559212446212
2024-12-07 20:29:25.140449800,5.98744970703125,0.0923563167452812,-0.0828414186835289,-0.1165895834565162
2024-12-07 20:29:25.150463700,5.997463623046875,0.0731059238314628,-0.0804437771439552,-0.1265743225812912
2024-12-07 20:29:25.160478000,6.00747802734375,0.0415103249251842,-0.0477336831390857,-0.109632559120655
2024-12-07 20:29:25.170490600,6.01749072265625,0.0033533500973135,0.0166197400540113,-0.0789556056261062
2024-12-07 20:29:25.180504800,6.0275048828125,-0.034582894295454,0.1114793047308921,-0.050132431089878
2024-12-07 20:29:25.190518800,6.037518798828125,-0.0646089687943458,0.2047655880451202,-0.006064570043236
2024-12-07 20:29:25.200531700,6.04753173828125,-0.0787959024310112,0.2685128152370453,0.037759929895401
2024-12-07 20:29:25.210545700,6.057545654296875,-0.0893377587199211,0.2990299761295318,0.0307536851614713
2024-12-07 20:29:25.220560000,6.067559814453125,-0.1080536693334579,0.3178675472736358,-0.0485418774187564
2024-12-07 20:29:25.230573000,6.077572998046875,-0.1528680026531219,0.3048260509967804,-0.175945371389389
2024-12-07 20:29:25.240586800,6.087586669921875,-0.2072225362062454,0.2601501047611236,-0.2997529804706573
2024-12-07 20:29:25.250600700,6.0976005859375,-0.2631728649139404,0.2489051669836044,-0.403895616531372
2024-12-07 20:29:25.260614000,6.10761376953125,-0.3169103264808655,0.2896953523159027,-0.4576089680194855
2024-12-07 20:29:25.270627800,6.1176279296875,-0.3437837660312652,0.3155139088630676,-0.4360115230083465
2024-12-07 20:29:25.280641800,6.127641845703125,-0.3380834758281708,0.2923121750354767,-0.3607097864151001
2024-12-07 20:29:25.290655000,6.137655029296875,-0.3094342648983001,0.229170486330986,-0.2908659875392914
2024-12-07 20:29:25.300668700,6.147668701171875,-0.2936407327651977,0.1535418927669525,-0.2546552121639251
2024-12-07 20:29:25.310683000,6.157682861328125,-0.2946570217609405,0.0975726321339607,-0.244729071855545
2024-12-07 20:29:25.320695800,6.16769580078125,-0.293523907661438,0.076809212565422,-0.2446374595165252
2024-12-07 20:29:25.330710000,6.1777099609375,-0.2947369813919067,0.0759327635169029,-0.2479293942451477
2024-12-07 20:29:25.340723700,6.1877236328125,-0.2923847138881683,0.0854279100894928,-0.2692035138607025
2024-12-07 20:29:25.350737000,6.19773681640625,-0.2883814573287964,0.101721666753292,-0.3099512159824371
2024-12-07 20:29:25.360750800,6.207750732421875,-0.2912437319755554,0.1234115585684776,-0.356695294380188
2024-12-07 20:29:25.370764800,6.217764892578125,-0.2961354553699493,0.1465403139591217,-0.3868284225463867
2024-12-07 20:29:25.380778800,6.22777880859375,-0.312254935503006,0.1563936173915863,-0.3801093101501465
2024-12-07 20:29:25.390792000,6.2377919921875,-0.3312920033931732,0.1488768458366394,-0.3432924449443817
2024-12-07 20:29:25.400805600,6.2478056640625,-0.3498389422893524,0.1267397701740265,-0.2869173884391784
2024-12-07 20:29:25.410819800,6.25781982421875,-0.3707602024078369,0.1112281903624534,-0.2365287840366363
2024-12-07 20:29:25.420832800,6.267832763671875,-0.4044255018234253,0.1252292245626449,-0.2069882005453109
2024-12-07 20:29:25.430847000,6.277846923828125,-0.4373469650745392,0.1675295382738113,-0.1858285814523697
2024-12-07 20:29:25.440860700,6.287860595703125,-0.4676563441753387,0.2181729972362518,-0.1615471541881561
2024-12-07 20:29:25.450873900,6.297873779296875,-0.4954429864883423,0.2579528987407684,-0.1520071774721145
2024-12-07 20:29:25.460887800,6.3078876953125,-0.5270994901657104,0.2833563387393951,-0.170382559299469
2024-12-07 20:29:25.470901800,6.31790185546875,-0.5625988841056824,0.2804276645183563,-0.19357630610466
2024-12-07 20:29:25.480915000,6.3279150390625,-0.5882602334022522,0.2799714207649231,-0.221291497349739
2024-12-07 20:29:25.490929000,6.337928955078125,-0.6033795475959778,0.2650063335895538,-0.2339551001787185
2024-12-07 20:29:25.500942600,6.347942626953125,-0.6063088774681091,0.2380303591489792,-0.2316310107707977
2024-12-07 20:29:25.510955800,6.357955810546875,-0.5900904536247253,0.177463948726654,-0.2068289965391159
2024-12-07 20:29:25.520970000,6.367969970703125,-0.5177047848701477,0.0537965595722198,-0.1601723283529281
2024-12-07 20:29:25.530984000,6.37798388671875,-0.3728139102458954,-0.1258975714445114,-0.1336365938186645
2024-12-07 20:29:25.540996900,6.387996826171875,-0.1840658038854599,-0.2970337271690368,-0.1632652133703231
2024-12-07 20:29:25.551010800,6.3980107421875,-0.0388183332979679,-0.3528080582618713,-0.2048206478357315
2024-12-07 20:29:25.561025000,6.40802490234375,0.0761324688792228,-0.2950849831104278,-0.2109505534172058
2024-12-07 20:29:25.571037700,6.41803759765625,0.2075080722570419,-0.1696541011333465,-0.1824344843626022
2024-12-07 20:29:25.581052000,6.428052001953125,0.3235611617565155,0.0056903511285781,-0.1091531962156295
2024-12-07 20:29:25.591065900,6.43806591796875,0.4190104603767395,0.258901834487915,-0.0063783442601561
2024-12-07 20:29:25.601078800,6.448078857421875,0.4914648830890655,0.5476564764976501,0.1589433997869491
2024-12-07 20:29:25.611092700,6.4580927734375,0.5070288777351379,0.7701630592346191,0.4443064332008362
2024-12-07 20:29:25.621107000,6.46810693359375,0.4614405632019043,0.9007171392440796,0.8158806562423706
2024-12-07 20:29:25.631119600,6.47811962890625,0.3977023363113403,0.9465538263320924,1.1326353549957275
2024-12-07 20:29:25.641133800,6.4881337890625,0.3277356326580047,0.8849238157272339,1.282667875289917
2024-12-07 20:29:25.651147800,6.498147705078125,0.256293386220932,0.7138761878013611,1.2417654991149902
2024-12-07 20:29:25.661162000,6.508161865234375,0.1975218951702118,0.5324599742889404,1.0783730745315552
2024-12-07 20:29:25.671174700,6.518174560546875,0.1610690802335739,0.4808806478977203,0.8939658999443054
2024-12-07 20:29:25.681188900,6.52818896484375,0.1579643338918686,0.5562811493873596,0.7667973041534424
2024-12-07 20:29:25.691202800,6.538202880859375,0.2022513747215271,0.6674728989601135,0.7763407230377197
2024-12-07 20:29:25.701215700,6.5482158203125,0.2713241577148437,0.7185672521591187,0.9194597601890564
2024-12-07 20:29:25.711229700,6.558229736328125,0.3313858807086944,0.6872929334640503,1.1027833223342896
2024-12-07 20:29:25.721244000,6.568243896484375,0.3461593389511108,0.6448550224304199,1.1853092908859253
2024-12-07 20:29:25.731256800,6.5782568359375,0.3445899188518524,0.6910477876663208,1.1166852712631226
2024-12-07 20:29:25.741270800,6.588270751953125,0.3425695896148681,0.762016773223877,0.9239184260368348
2024-12-07 20:29:25.751284700,6.59828466796875,0.3463033437728882,0.7464268803596497,0.67762690782547
2024-12-07 20:29:25.761297700,6.608297607421875,0.3660978674888611,0.6346352696418762,0.4677483737468719
2024-12-07 20:29:25.771311900,6.618311767578125,0.4226588606834411,0.4469263553619385,0.3319993317127228
2024-12-07 20:29:25.781325800,6.628325927734375,0.4866377413272857,0.239018976688385,0.2813211381435394
2024-12-07 20:29:25.791339000,6.638339111328125,0.5383041501045227,0.0457674972712993,0.2879787683486938
2024-12-07 20:29:25.801352700,6.648352783203125,0.5562613606452942,-0.1010635495185852,0.313229352235794
2024-12-07 20:29:25.811367000,6.658366943359375,0.5466044545173645,-0.2067292630672454,0.3354441225528717
2024-12-07 20:29:25.821379800,6.6683798828125,0.5363503098487854,-0.2712863981723785,0.3310049474239349
2024-12-07 20:29:25.831393800,6.678393798828125,0.5433557629585266,-0.2825997769832611,0.2905544638633728
2024-12-07 20:29:25.841407700,6.68840771484375,0.557597815990448,-0.2545851171016693,0.216611161828041
2024-12-07 20:29:25.851421000,6.6984208984375,0.5646091103553772,-0.1331532150506973,0.1327572762966156
2024-12-07 20:29:25.861435000,6.708434814453125,0.5733859539031982,-0.0146376341581344,0.0524878017604351
2024-12-07 20:29:25.871448800,6.71844873046875,0.587456226348877,0.0407771579921245,-0.0180505458265543
2024-12-07 20:29:25.881461800,6.728461669921875,0.6220035552978516,0.0260591022670269,-0.0692521706223487
2024-12-07 20:29:25.891476000,6.73847607421875,0.6630364656448364,-0.027286410331726,-0.0876554101705551
2024-12-07 20:29:25.901489700,6.74848974609375,0.6954589486122131,-0.1163315102458,-0.0763257890939712
2024-12-07 20:29:25.911502800,6.7585029296875,0.7085316181182861,-0.2389056235551834,-0.0557627268135547
2024-12-07 20:29:25.921516800,6.768516845703125,0.6972531676292419,-0.3293885290622711,-0.028000921010971
2024-12-07 20:29:25.931530800,6.77853076171875,0.659214437007904,-0.4050840735435486,-0.007185120601207
2024-12-07 20:29:25.941544700,6.788544677734375,0.6036211252212524,-0.4896581768989563,-0.0058461329899728
2024-12-07 20:29:25.951560400,6.798560546875,0.5416240692138672,-0.5590574741363525,-0.0209704916924238
2024-12-07 20:29:25.961574700,6.80857470703125,0.4650094509124756,-0.579411506652832,-0.0493916869163513
2024-12-07 20:29:25.971588600,6.818588623046875,0.3750683665275574,-0.5469052195549011,-0.0869635641574859
2024-12-07 20:29:25.981601800,6.828601806640625,0.2781982421875,-0.4639507234096527,-0.1701197028160095
2024-12-07 20:29:25.991615500,6.838615478515625,0.2001378089189529,-0.3855834901332855,-0.2427896410226822
2024-12-07 20:29:26.001629700,6.848629638671875,0.1767042279243469,-0.412960946559906,-0.2491431683301925
2024-12-07 20:29:26.011642600,6.858642578125,0.1789551377296447,-0.4792627394199371,-0.2211005985736847
2024-12-07 20:29:26.021656600,6.868656494140625,0.1719278544187545,-0.3926889598369598,-0.1560664772987365
2024-12-07 20:29:26.031670500,6.87867041015625,0.1524574756622314,-0.157426655292511,-0.1106984615325927
2024-12-07 20:29:26.041683700,6.88868359375,0.1508829146623611,0.0827249214053154,-0.1193090453743934
2024-12-07 20:29:26.051697400,6.898697509765625,0.1932205110788345,0.2243036329746246,-0.1445070803165435
2024-12-07 20:29:26.061711600,6.908711669921875,0.2194407135248184,0.1658060550689697,-0.2250469923019409
2024-12-07 20:29:26.071724500,6.918724609375,0.1779206991195678,-0.0247865226119756,-0.3626075088977813
2024-12-07 20:29:26.081738800,6.92873876953125,0.0889858826994896,-0.138837844133377,-0.4808423221111297
2024-12-07 20:29:26.091752400,6.93875244140625,-0.007849846035242,-0.1952310800552368,-0.5278686881065369
2024-12-07 20:29:26.101765600,6.948765625,-0.1079811081290245,-0.2227779924869537,-0.4864713251590729
2024-12-07 20:29:26.111779600,6.958779541015625,-0.2189390361309051,-0.2228208780288696,-0.3883671462535858
2024-12-07 20:29:26.121793500,6.96879345703125,-0.3217372894287109,-0.2245199829339981,-0.3035331070423126
2024-12-07 20:29:26.131806700,6.978806640625,-0.4001455307006836,-0.1639975309371948,-0.2847796678543091
2024-12-07 20:29:26.141820700,6.988820556640625,-0.5137377381324768,-0.1517935097217559,-0.3597830235958099
2024-12-07 20:29:26.151834600,6.998834716796875,-0.6705896258354187,-0.1167526915669441,-0.4681486487388611
2024-12-07 20:29:26.161847600,7.00884765625,-0.7036874890327454,0.1946436464786529,-0.4849639534950256
2024-12-07 20:29:26.171861800,7.01886181640625,-0.502436637878418,0.6068916320800781,-0.3518905937671661
2024-12-07 20:29:26.181875700,7.028875732421875,-0.1021407395601272,0.5987069606781006,-0.1912272870540619
2024-12-07 20:29:26.191888600,7.038888671875,0.3497561514377594,0.1078397929668426,-0.0604524910449981
2024-12-07 20:29:26.201902600,7.048902587890625,0.5372769832611084,-0.4656161963939667,0.1992332935333252
2024-12-07 20:29:26.211916800,7.058916748046875,0.3655401468276977,-0.5615150928497314,0.4258129000663757
2024-12-07 20:29:26.221930500,7.068930419921875,0.0359836593270301,-0.3510155081748962,0.4301919937133789
2024-12-07 20:29:26.231943700,7.078943603515625,-0.3108904063701629,-0.0560307539999485,0.2484498918056488
2024-12-07 20:29:26.241957600,7.08895751953125,-0.5655789971351624,0.2013550549745559,-0.023448672145605
2024-12-07 20:29:26.251971800,7.098971923828125,-0.6740151643753052,0.3560184240341186,-0.2388544529676437
2024-12-07 20:29:26.261984500,7.108984619140625,-0.7293055057525635,0.4372531175613403,-0.3571496307849884
2024-12-07 20:29:26.271998700,7.118998779296875,-0.7200403809547424,0.4402068257331848,-0.4062564373016357
2024-12-07 20:29:26.282012700,7.1290126953125,-0.615493655204773,0.3281218707561493,-0.3907783627510071
2024-12-07 20:29:26.292025600,7.139025634765625,-0.4470261037349701,0.1655750274658203,-0.3060820996761322
2024-12-07 20:29:26.302039600,7.14903955078125,-0.2679685354232788,0.0186530258506536,-0.1710253953933715
2024-12-07 20:29:26.312053800,7.1590537109375,-0.1496685445308685,-0.1181274577975273,-0.0566242560744285
2024-12-07 20:29:26.322066400,7.16906640625,-0.1494011580944061,-0.2836882174015045,-0.0265411883592605
2024-12-07 20:29:26.332080600,7.17908056640625,-0.2104679644107818,-0.4393582344055176,-0.0681964829564094
2024-12-07 20:29:26.342094600,7.189094482421875,-0.204129472374916,-0.5067363977432251,-0.1249315664172172
2024-12-07 20:29:26.352107500,7.199107421875,-0.1496475785970688,-0.4675564765930176,-0.1396162360906601
2024-12-07 20:29:26.362121500,7.20912158203125,-0.115840382874012,-0.4290453195571899,-0.1290153115987777
2024-12-07 20:29:26.372135700,7.2191357421875,-0.1058343574404716,-0.4102255702018738,-0.1176199093461036
2024-12-07 20:29:26.382148600,7.229148681640625,-0.131585955619812,-0.3905547261238098,-0.0954164415597915
2024-12-07 20:29:26.392162600,7.23916259765625,-0.2060103863477707,-0.3723733127117157,-0.055319894105196
2024-12-07 20:29:26.402176500,7.249176513671875,-0.3059099316596985,-0.4030462503433227,-0.0123851038515567
2024-12-07 20:29:26.412189700,7.259189697265625,-0.4000585377216339,-0.4619154334068298,0.0257380474358797
2024-12-07 20:29:26.422203600,7.26920361328125,-0.4619193971157074,-0.5034827589988708,0.0479188226163387
2024-12-07 20:29:26.432217600,7.279217529296875,-0.465345561504364,-0.5393832325935364,0.0439509786665439
2024-12-07 20:29:26.442231600,7.2892314453125,-0.4196659922599792,-0.5753784775733948,0.0114727718755602
2024-12-07 20:29:26.452244500,7.299244384765625,-0.3539644777774811,-0.6085207462310791,-0.0450317859649658
2024-12-07 20:29:26.462258700,7.3092587890625,-0.2850861847400665,-0.6084082126617432,-0.1027026921510696
2024-12-07 20:29:26.472272600,7.319272705078125,-0.2215657979249954,-0.5658397674560547,-0.1382289975881576
2024-12-07 20:29:26.482285600,7.32928564453125,-0.1569495797157287,-0.5005251169204712,-0.1402749419212341
2024-12-07 20:29:26.492299500,7.339299560546875,-0.088301807641983,-0.4511940479278564,-0.116291306912899
2024-12-07 20:29:26.502313700,7.349313720703125,-0.0313749834895134,-0.4088509976863861,-0.0732482373714447
2024-12-07 20:29:26.512326700,7.35932666015625,0.0046027223579585,-0.3811613023281097,-0.03215167298913
2024-12-07 20:29:26.522340600,7.369340576171875,0.0162575058639049,-0.3645642697811126,-0.0166189949959516
2024-12-07 20:29:26.532354600,7.3793544921875,0.0148111432790756,-0.3298606276512146,-0.0148930009454488
2024-12-07 20:29:26.542367700,7.38936767578125,0.0157706644386053,-0.3178879916667938,-0.0138276321813464
2024-12-07 20:29:26.552381400,7.39938134765625,0.0202162787318229,-0.3292221426963806,-0.009427823126316
2024-12-07 20:29:26.562395600,7.409395751953125,0.0125278690829873,-0.3284811675548553,0.0022792785894125
2024-12-07 20:29:26.572408600,7.41940869140625,-0.0098831644281744,-0.2808231115341186,0.0043932958506047
2024-12-07 20:29:26.582422500,7.429422607421875,-0.0332811027765274,-0.2148074209690094,0.0098816407844424
2024-12-07 20:29:26.592436500,7.4394365234375,-0.0569297075271606,-0.1426014006137848,0.022508218884468
2024-12-07 20:29:26.602449700,7.44944970703125,-0.0688236579298973,-0.0902855098247528,0.0512768030166626
2024-12-07 20:29:26.612463600,7.459463623046875,-0.057965949177742,-0.0497263669967651,0.0748135522007942
2024-12-07 20:29:26.622477600,7.4694775390625,-0.0280607268214225,-0.0170486979186534,0.0745551213622093
2024-12-07 20:29:26.632490800,7.47949072265625,0.003204783424735,0.0378502383828163,0.0589860156178474
2024-12-07 20:29:26.642504700,7.489504638671875,0.0162746794521808,0.1273417770862579,0.0211091041564941
2024-12-07 20:29:26.652518400,7.499518310546875,0.0204497165977954,0.1989374011754989,-0.026585180312395
2024-12-07 20:29:26.662531600,7.509531494140625,0.0103863095864653,0.2421158552169799,-0.065464086830616
2024-12-07 20:29:26.672545800,7.5195458984375,-0.0156514178961515,0.2781524360179901,-0.093192383646965
2024-12-07 20:29:26.682559700,7.529559814453125,-0.0422311872243881,0.2846745550632477,-0.1205344274640083
2024-12-07 20:29:26.692572700,7.53957275390625,-0.0648717880249023,0.2497991472482681,-0.1670835465192794
2024-12-07 20:29:26.702586600,7.549586669921875,-0.0860306769609451,0.2151313126087188,-0.2199365943670272
2024-12-07 20:29:26.712600800,7.559600830078125,-0.1218264922499656,0.2176200300455093,-0.2709867060184479
2024-12-07 20:29:26.722614500,7.569614501953125,-0.1751973330974578,0.2651533484458923,-0.2879988849163055
2024-12-07 20:29:26.732627700,7.579627685546875,-0.2095366716384887,0.3206517398357391,-0.2634416222572326
2024-12-07 20:29:26.742641700,7.5896416015625,-0.2085118591785431,0.3248793184757232,-0.2233280688524246
2024-12-07 20:29:26.752655600,7.599655517578125,-0.184495210647583,0.2967440783977508,-0.1959001719951629
2024-12-07 20:29:26.762668500,7.60966845703125,-0.1777364462614059,0.2839424610137939,-0.1838160753250122
2024-12-07 20:29:26.772682800,7.619682861328125,-0.189835712313652,0.2848007977008819,-0.1742867529392242
2024-12-07 20:29:26.782696700,7.62969677734375,-0.2081272304058075,0.2726566791534424,-0.1679554134607315
2024-12-07 20:29:26.792709600,7.639709716796875,-0.2286753803491592,0.2548864781856537,-0.1613190770149231
2024-12-07 20:29:26.802723600,7.6497236328125,-0.2542943954467773,0.2297342419624328,-0.1573218405246734
2024-12-07 20:29:26.812737800,7.65973779296875,-0.2765309810638428,0.2117046415805816,-0.1799062490463256
2024-12-07 20:29:26.822750500,7.66975048828125,-0.282250702381134,0.2273915708065033,-0.2423263639211654
2024-12-07 20:29:26.832764700,7.6797646484375,-0.2746559083461761,0.283073216676712,-0.3182677328586578
2024-12-07 20:29:26.842778600,7.689778564453125,-0.2870285212993622,0.3490124046802521,-0.3176046013832092
2024-12-07 20:29:26.852791600,7.69979150390625,-0.317262589931488,0.4170918464660644,-0.2161666750907898
2024-12-07 20:29:26.862805500,7.709805419921875,-0.3612387478351593,0.4538550674915313,-0.0686528533697128
2024-12-07 20:29:26.872819700,7.71981982421875,-0.4104108214378357,0.4681248068809509,0.0496996268630027
2024-12-07 20:29:26.882832600,7.72983251953125,-0.4559457004070282,0.4558877348899841,0.0903777629137039
2024-12-07 20:29:26.892846600,7.7398466796875,-0.4822814464569092,0.4376538693904876,0.0784199014306068
2024-12-07 20:29:26.902860500,7.749860595703125,-0.4845608472824096,0.4698856472969055,0.0614038445055484
2024-12-07 20:29:26.912873500,7.75987353515625,-0.47642382979393,0.5587302446365356,0.026853060349822
2024-12-07 20:29:26.922887700,7.7698876953125,-0.4621498882770538,0.6939303278923035,-0.0336451195180416
2024-12-07 20:29:26.932901600,7.779901611328125,-0.4377089738845825,0.8394683003425598,-0.0634898319840431
2024-12-07 20:29:26.942914800,7.789914794921875,-0.3799574077129364,0.909465491771698,0.0171343889087438
2024-12-07 20:29:26.952925200,7.79992529296875,-0.2998622953891754,0.8472468852996826,0.2198163866996765
2024-12-07 20:29:26.962939100,7.809939208984375,-0.2107624858617782,0.6111029386520386,0.4211677312850952
2024-12-07 20:29:26.972953000,7.819953125,-0.0970553606748581,0.2777904868125915,0.4788989424705505
2024-12-07 20:29:26.982966300,7.82996630859375,0.0499792210757732,-0.0062367408536374,0.3741953074932098
2024-12-07 20:29:26.992980200,7.839980224609375,0.2428658455610275,-0.1968554258346557,0.203512504696846
2024-12-07 20:29:27.002994200,7.849994140625,0.4623119533061981,-0.3171272277832031,0.0881343185901641
2024-12-07 20:29:27.013007000,7.860007080078125,0.6164826154708862,-0.3517896234989166,0.1121919825673103
2024-12-07 20:29:27.023021300,7.870021240234375,0.6922562122344971,-0.2019766271114349,0.2912301123142242
2024-12-07 20:29:27.033035300,7.88003515625,0.7126672267913818,0.2021468728780746,0.5752213597297668
2024-12-07 20:29:27.043048200,7.890048095703125,0.7228072881698608,0.657275915145874,0.8656031489372253
2024-12-07 20:29:27.053062100,7.900062255859375,0.7473036050796509,0.8468133211135864,1.025400996208191
2024-12-07 20:29:27.063076400,7.910076416015625,0.7204636335372925,0.8148906230926514,1.0388846397399902
2024-12-07 20:29:27.073089000,7.920089111328125,0.5974119901657104,0.8480743765830994,1.0259816646575928
2024-12-07 20:29:27.083103200,7.930103271484375,0.3871742486953735,1.0672471523284912,1.0434329509735107
2024-12-07 20:29:27.093117200,7.9401171875,0.1958064436912536,1.2944951057434082,1.0130654573440552
2024-12-07 20:29:27.103130000,7.950130126953125,0.0853731259703636,1.408291935920715,0.8703523278236389
2024-12-07 20:29:27.113144000,7.96014404296875,0.0641602501273155,1.4458582401275637,0.6519616842269897
2024-12-07 20:29:27.123158300,7.970158203125,0.0931134894490242,1.4361668825149536,0.4609717428684234
2024-12-07 20:29:27.133171200,7.980171142578125,0.1415774226188659,1.3881173133850098,0.3824476599693298
2024-12-07 20:29:27.143185200,7.99018505859375,0.1957009434700012,1.286406397819519,0.3969523906707763
2024-12-07 20:29:27.153199000,8.00019921875,0.2748037576675415,1.1214070320129397,0.4184806048870086
2024-12-07 20:29:27.163212300,8.01021240234375,0.3735704123973846,0.8546911478042603,0.3840498030185699
2024-12-07 20:29:27.173226200,8.020226318359375,0.4472565948963165,0.6129781603813171,0.3481442630290985
2024-12-07 20:29:27.183240200,8.030240234375,0.4708239734172821,0.4403443038463592,0.3718245029449463
2024-12-07 20:29:27.193253400,8.04025341796875,0.4994302988052368,0.2660366892814636,0.4156782329082489
2024-12-07 20:29:27.203267000,8.05026708984375,0.5262454748153687,0.1552090644836425,0.4416914582252502
2024-12-07 20:29:27.213281300,8.06028125,0.5335100293159485,0.1620557904243469,0.4473514854907989
2024-12-07 20:29:27.223294200,8.070294189453126,0.5402965545654297,0.2517696321010589,0.4077033996582031
2024-12-07 20:29:27.233308200,8.08030810546875,0.5738673210144043,0.3390281200408935,0.3260309100151062
2024-12-07 20:29:27.243322000,8.090322021484376,0.6290081143379211,0.4082546830177307,0.2311006933450698
2024-12-07 20:29:27.253336000,8.100336181640625,0.6826124787330627,0.4525600969791412,0.1511984020471573
2024-12-07 20:29:27.263349200,8.110349365234375,0.7238888740539551,0.451127141714096,0.0967662557959556
2024-12-07 20:29:27.273363200,8.12036328125,0.7496195435523987,0.3984815180301666,0.0769941508769989
2024-12-07 20:29:27.283377200,8.130377197265625,0.7631024718284607,0.2951658368110657,0.0822566151618957
2024-12-07 20:29:27.293390300,8.140390380859374,0.7736259698867798,0.1413693577051162,0.1033491119742393
2024-12-07 20:29:27.303404000,8.150404052734375,0.7863051295280457,-0.0334396511316299,0.1291967928409576
2024-12-07 20:29:27.313418200,8.160418212890624,0.7915230989456177,-0.171955719590187,0.1444140970706939
2024-12-07 20:29:27.323431200,8.17043115234375,0.777590811252594,-0.259687602519989,0.1406629830598831
2024-12-07 20:29:27.333445400,8.1804453125,0.7481994032859802,-0.2934884428977966,0.1150178089737892
2024-12-07 20:29:27.343459000,8.190458984375,0.708918571472168,-0.293450653553009,0.0691931173205375
2024-12-07 20:29:27.353472300,8.20047216796875,0.6661266088485718,-0.2774120271205902,0.0172923672944307
2024-12-07 20:29:27.363486200,8.210486328125,0.6331772208213806,-0.2769053280353546,-0.0352173447608947
2024-12-07 20:29:27.373500200,8.220500244140625,0.6022765636444092,-0.25064817070961,-0.0621064789593219
2024-12-07 20:29:27.383513000,8.23051318359375,0.5882084369659424,-0.2628992795944214,-0.0708527788519859
2024-12-07 20:29:27.393527300,8.24052734375,0.5840770602226257,-0.3272974491119385,-0.070274069905281
2024-12-07 20:29:27.403541000,8.250541015625,0.5779349207878113,-0.421936571598053,-0.0571942701935768
2024-12-07 20:29:27.413554200,8.26055419921875,0.5680559277534485,-0.5252403616905212,-0.0396083518862724
2024-12-07 20:29:27.423568100,8.270568115234376,0.5447782874107361,-0.6331785321235657,-0.0284080132842063
2024-12-07 20:29:27.433582300,8.280582275390625,0.5016480684280396,-0.733498752117157,-0.0435848347842693
2024-12-07 20:29:27.443595300,8.29059521484375,0.4391610622406006,-0.8239136934280396,-0.0686111971735954
2024-12-07 20:29:27.453609200,8.300609130859375,0.3724185228347778,-0.9033520817756652,-0.110306978225708
2024-12-07 20:29:27.463623200,8.310623046875,0.3100420236587524,-0.9469141364097596,-0.1613626629114151
2024-12-07 20:29:27.473636000,8.320635986328124,0.253736138343811,-0.9511410593986512,-0.2098542898893356
2024-12-07 20:29:27.483650300,8.330650390625,0.1878299862146377,-0.8902355432510376,-0.269432932138443
2024-12-07 20:29:27.493664300,8.340664306640624,0.1167004257440567,-0.7429787516593933,-0.3519693613052368
2024-12-07 20:29:27.503678200,8.35067822265625,0.0616629794239997,-0.5740383267402649,-0.4183021187782287
2024-12-07 20:29:27.513691100,8.360691162109376,0.0221557840704917,-0.5152320265769958,-0.4606708884239197
2024-12-07 20:29:27.523705300,8.370705322265625,0.0076761585660278,-0.5291500687599182,-0.4805741906166076
2024-12-07 20:29:27.533719300,8.38071923828125,0.0307953245937824,-0.4505766928195953,-0.4839918315410614
2024-12-07 20:29:27.543732200,8.390732177734375,0.0883477479219436,-0.19767427444458,-0.4799088835716247
2024-12-07 20:29:27.553746200,8.40074609375,0.1144917383790016,0.0859441310167312,-0.5210504531860352
2024-12-07 20:29:27.563760400,8.410760498046875,0.0903290510177612,0.2846455872058868,-0.6062347292900085
2024-12-07 20:29:27.573773000,8.42077294921875,0.0823390334844589,0.4372561573982239,-0.7089241147041321
2024-12-07 20:29:27.583787300,8.430787353515624,0.0908381417393684,0.3725278973579407,-0.7946677803993225
2024-12-07 20:29:27.593801200,8.44080126953125,0.0063445586711168,-0.0443130023777484,-0.8350333571434021
2024-12-07 20:29:27.603814100,8.450814208984376,-0.3057379722595215,-0.595613956451416,-0.8016335964202881
2024-12-07 20:29:27.613828000,8.460828125,-0.8549017310142517,-0.966517448425293,-0.6365194320678711
2024-12-07 20:29:27.623842300,8.47084228515625,-1.1834168434143066,-0.9980396032333374,-0.3738836944103241
2024-12-07 20:29:27.633855200,8.480855224609375,-0.943242609500885,-0.8228585124015808,-0.221385508775711
2024-12-07 20:29:27.643869200,8.490869140625,-0.2139061838388443,-0.7180216312408447,-0.2470381557941436
2024-12-07 20:29:27.653883100,8.500883056640625,0.304295152425766,-0.8403944373130798,-0.190115749835968
2024-12-07 20:29:27.663896000,8.51089599609375,0.1953624188899994,-0.911612868309021,-0.0427647940814495
2024-12-07 20:29:27.673910000,8.520909912109374,-0.1731050908565521,-0.7801645994186401,0.0496966950595378
2024-12-07 20:29:27.683924200,8.53092431640625,-0.5750178098678589,-0.576907217502594,0.0352087803184986
2024-12-07 20:29:27.693937400,8.5409375,-0.8160712122917175,-0.4031399488449096,-0.0896476656198501
2024-12-07 20:29:27.703951000,8.550951171875,-0.8421618342399597,-0.307804524898529,-0.2593432962894439
2024-12-07 20:29:27.713965000,8.560965087890626,-0.7920496463775635,-0.2414851635694503,-0.3988620340824127
2024-12-07 20:29:27.723978200,8.570978271484375,-0.7459755539894104,-0.1743893027305603,-0.4771150946617126
2024-12-07 20:29:27.733992200,8.5809921875,-0.6697196364402771,-0.222074806690216,-0.5130512118339539
2024-12-07 20:29:27.744006100,8.591006103515625,-0.5369206666946411,-0.3517700731754303,-0.4913690686225891
2024-12-07 20:29:27.754020000,8.60102001953125,-0.3590673506259918,-0.3432604968547821,-0.4022016227245331
2024-12-07 20:29:27.764033000,8.611032958984374,-0.2401550710201263,-0.1546701788902282,-0.2616238892078399
2024-12-07 20:29:27.774047200,8.621047119140625,-0.2680325210094452,-0.0348106175661087,-0.1767273694276809
2024-12-07 20:29:27.784061200,8.631061279296874,-0.340413749217987,-0.0840799435973167,-0.1737368702888488
2024-12-07 20:29:27.794074400,8.641074462890625,-0.3280550837516784,-0.1123917400836944,-0.1902559250593185
2024-12-07 20:29:27.804088000,8.651088134765626,-0.2740777730941772,-0.0601847656071186,-0.1799170970916748
2024-12-07 20:29:27.814102300,8.661102294921875,-0.252798855304718,0.0188682414591312,-0.1580094099044799
2024-12-07 20:29:27.824115200,8.671115234375,-0.2720452547073364,0.1092654690146446,-0.1373893469572067
2024-12-07 20:29:27.834129200,8.681129150390625,-0.2940893173217773,0.2261095345020294,-0.118879310786724
2024-12-07 20:29:27.844143000,8.69114306640625,-0.3024458885192871,0.3461126089096069,-0.0931122750043869
2024-12-07 20:29:27.854156300,8.70115625,-0.2952010333538055,0.4313630759716034,-0.0821943804621696
2024-12-07 20:29:27.864170200,8.711170166015625,-0.2945531606674194,0.4761966466903686,-0.0952533558011055
2024-12-07 20:29:27.874184200,8.72118408203125,-0.3156459331512451,0.4728700816631317,-0.1265598833560943
2024-12-07 20:29:27.884197000,8.731197021484375,-0.3387683629989624,0.4363835752010345,-0.1571648269891739
2024-12-07 20:29:27.894211300,8.74121142578125,-0.3610409200191498,0.3475871384143829,-0.1770764738321304
2024-12-07 20:29:27.904225000,8.75122509765625,-0.3696769773960113,0.2172362506389618,-0.1702381670475006
2024-12-07 20:29:27.914238200,8.76123828125,-0.3503909111022949,0.0901430025696754,-0.1440092325210571
2024-12-07 20:29:27.924252200,8.771252197265625,-0.3165445625782013,0.0020433205645531,-0.0986983701586723
2024-12-07 20:29:27.934266000,8.78126611328125,-0.2854873239994049,-0.0547094382345676,-0.0458021275699138
2024-12-07 20:29:27.944279300,8.791279296875,-0.2737493216991424,-0.0994686782360076,-0.0111484378576278
2024-12-07 20:29:27.954293800,8.801293701171875,-0.2743730545043945,-0.1231617555022239,-0.0008342820219695
2024-12-07 20:29:27.964307700,8.8113076171875,-0.2890946865081787,-0.1325501501560211,-0.0031027090735733
2024-12-07 20:29:27.974320600,8.821320556640625,-0.309772789478302,-0.1543105840682983,-0.0085360892117023
2024-12-07 20:29:27.984334600,8.83133447265625,-0.3214961886405945,-0.1860778629779815,-0.0158503018319606
2024-12-07 20:29:27.994348800,8.841348876953125,-0.3086626529693603,-0.2159545421600341,-0.0335081219673156
2024-12-07 20:29:28.004362800,8.85136279296875,-0.2763411998748779,-0.2349992245435714,-0.0674997419118881
2024-12-07 20:29:28.014375700,8.861375732421875,-0.2343780696392059,-0.2552906572818756,-0.0941209718585014
2024-12-07 20:29:28.024389600,8.8713896484375,-0.1975533664226532,-0.2674607932567596,-0.1041303575038909
2024-12-07 20:29:28.034403800,8.88140380859375,-0.1656990349292755,-0.2766108810901642,-0.0772092640399932
2024-12-07 20:29:28.044416800,8.891416748046876,-0.1340545117855072,-0.3071196675300598,-0.0355100743472576
2024-12-07 20:29:28.054430700,8.9014306640625,-0.1067784130573272,-0.3500820398330688,-0.0103229619562625
2024-12-07 20:29:28.064444700,8.911444580078125,-0.1097249537706375,-0.3748352527618408,-0.0109443869441747
2024-12-07 20:29:28.074457600,8.92145751953125,-0.1406445354223251,-0.3637703657150268,-0.0245842989534139
2024-12-07 20:29:28.084471800,8.931471923828125,-0.1708119064569473,-0.3434091210365295,-0.0322219170629978
2024-12-07 20:29:28.094485800,8.94148583984375,-0.1896809339523315,-0.3147782683372497,-0.0447765924036502
2024-12-07 20:29:28.104498700,8.951498779296875,-0.1981274485588073,-0.2833971679210663,-0.0585515834391117
2024-12-07 20:29:28.114512600,8.9615126953125,-0.195964440703392,-0.2376813292503357,-0.0883595421910286
2024-12-07 20:29:28.124526800,8.97152685546875,-0.191652625799179,-0.1713421791791916,-0.1206551194190979
2024-12-07 20:29:28.134539800,8.981539794921876,-0.1815256923437118,-0.0944170281291008,-0.1296619325876236
2024-12-07 20:29:28.144553700,8.9915537109375,-0.1736209690570831,-0.0423580855131149,-0.1157520189881324
2024-12-07 20:29:28.154567700,9.001567626953126,-0.1669833064079284,0.0208520404994487,-0.0684164613485336
2024-12-07 20:29:28.164580900,9.011580810546874,-0.1603009551763534,0.0538863912224769,-0.038349699229002
2024-12-07 20:29:28.174594600,9.021594482421875,-0.1489646881818771,0.0374746620655059,-0.0617775283753871
2024-12-07 20:29:28.184608800,9.03160888671875,-0.1495952755212783,0.0165409818291664,-0.0909301415085792
2024-12-07 20:29:28.194621700,9.04162158203125,-0.1596913188695907,-0.0121404631063342,-0.0957714989781379
2024-12-07 20:29:28.204635600,9.0516357421875,-0.1732736974954605,-0.0530895590782165,-0.0877968147397041
2024-12-07 20:29:28.214649600,9.061649658203123,-0.1768471300601959,-0.1319758594036102,-0.1020476594567298
2024-12-07 20:29:28.224662800,9.071662841796876,-0.1759490817785263,-0.2105710059404373,-0.1318756490945816
2024-12-07 20:29:28.234676700,9.0816767578125,-0.1779208928346634,-0.2394503355026245,-0.1640634089708328
2024-12-07 20:29:28.244690700,9.091690673828126,-0.1859813630580902,-0.2260179966688156,-0.1753123849630355
2024-12-07 20:29:28.254704600,9.10170458984375,-0.1867142617702484,-0.2035544961690902,-0.1625209599733352
2024-12-07 20:29:28.264717800,9.1117177734375,-0.1852751523256302,-0.1826419681310653,-0.1399060487747192
2024-12-07 20:29:28.274731500,9.1217314453125,-0.1788878291845321,-0.1293957978487014,-0.1222559511661529
2024-12-07 20:29:28.284745700,9.131745849609375,-0.1654675453901291,-0.0456831753253936,-0.1291903406381607
2024-12-07 20:29:28.294759000,9.141759033203124,-0.1335626095533371,0.0265931542962789,-0.1635469794273376
2024-12-07 20:29:28.304772900,9.15177294921875,-0.1365272551774978,0.0079274270683527,-0.2029610574245453
2024-12-07 20:29:28.314786600,9.16178662109375,-0.1561672687530517,-0.0250789914280176,-0.2331495881080627
2024-12-07 20:29:28.324799700,9.1717998046875,-0.1802581548690796,-0.0146433459594845,-0.2513578832149505
2024-12-07 20:29:28.334814000,9.18181396484375,-0.2081843167543411,0.0384236015379428,-0.2436211556196212
2024-12-07 20:29:28.344827600,9.19182763671875,-0.2274939864873886,0.1118882074952125,-0.2161869704723358
2024-12-07 20:29:28.354840800,9.2018408203125,-0.245078831911087,0.1543818563222885,-0.2015582174062729
2024-12-07 20:29:28.364854800,9.211854736328124,-0.2633055746555328,0.1522791385650634,-0.2194827944040298
2024-12-07 20:29:28.374868700,9.22186865234375,-0.295346587896347,0.1258768290281295,-0.2494212538003921
2024-12-07 20:29:28.384881700,9.231881591796874,-0.3392149806022644,0.1285939514636993,-0.2493790686130523
2024-12-07 20:29:28.394896000,9.241895751953123,-0.3846173584461212,0.2131663560867309,-0.2059221267700195
2024-12-07 20:29:28.404909800,9.251909912109374,-0.4162028133869171,0.3583090901374817,-0.1381684392690658
2024-12-07 20:29:28.414922800,9.2619228515625,-0.4175309240818023,0.4784088730812073,-0.0935240015387535
2024-12-07 20:29:28.424936700,9.271936767578126,-0.3937939703464508,0.5472042560577393,-0.1036502495408058
2024-12-07 20:29:28.434951000,9.281950927734377,-0.3600496053695678,0.6291478276252747,-0.1656012237071991
2024-12-07 20:29:28.444963600,9.291963623046875,-0.324302464723587,0.7742500305175781,-0.2246662676334381
2024-12-07 20:29:28.454977800,9.301977783203125,-0.277340829372406,0.992960810661316,-0.2154325544834137
2024-12-07 20:29:28.464991700,9.31199169921875,-0.1898198276758194,1.205698847770691,-0.1310330331325531
2024-12-07 20:29:28.475004700,9.322004638671874,-0.0460504032671451,1.243502497673035,0.0200185365974903
2024-12-07 20:29:28.485018600,9.3320185546875,0.1623837649822235,0.9533852338790894,0.2214189767837524
2024-12-07 20:29:28.495032800,9.34203271484375,0.4006714224815368,0.4554702639579773,0.3645476400852203
2024-12-07 20:29:28.505045800,9.352045654296877,0.5027704238891602,0.1475961208343505,0.4097065329551697
2024-12-07 20:29:28.515059700,9.362059814453126,0.4652160704135895,0.0820927396416664,0.4053954184055328
2024-12-07 20:29:28.525073700,9.37207373046875,0.5009236335754395,0.1057128831744194,0.4389223158359527
2024-12-07 20:29:28.535087900,9.382087890625,0.59795081615448,0.3117134273052215,0.5275067687034607
2024-12-07 20:29:28.545100800,9.392100830078125,0.6835089921951294,0.7902496457099915,0.6678332090377808
2024-12-07 20:29:28.555114800,9.40211474609375,0.7382028698921204,1.3048471212387085,0.8469036221504211
2024-12-07 20:29:28.565128700,9.412128662109374,0.7485112547874451,1.578383207321167,1.0297482013702393
2024-12-07 20:29:28.575141600,9.4221416015625,0.702263593673706,1.5665968656539917,1.142767071723938
2024-12-07 20:29:28.585155800,9.43215576171875,0.5955615043640137,1.3630656003952026,1.124016046524048
2024-12-07 20:29:28.595169800,9.442169677734377,0.4643108248710632,1.131181240081787,0.9931610226631165
2024-12-07 20:29:28.605182700,9.4521826171875,0.3578835129737854,0.9345900416374208,0.8103482127189636
2024-12-07 20:29:28.615196700,9.46219677734375,0.3043228089809418,0.7700495719909668,0.6583470106124878
2024-12-07 20:29:28.625211000,9.4722109375,0.2948516011238098,0.5926554203033447,0.5527992248535156
2024-12-07 20:29:28.635223600,9.4822236328125,0.2742613554000854,0.4416947066783905,0.4451339840888977
2024-12-07 20:29:28.645237800,9.49223779296875,0.2548413872718811,0.3976683616638183,0.3532802760601043
2024-12-07 20:29:28.655251700,9.502251708984376,0.3291832506656647,0.3468965291976928,0.2837313115596771
2024-12-07 20:29:28.665265000,9.512264892578123,0.4961923658847809,0.3024195432662964,0.2395411431789398
2024-12-07 20:29:28.675278600,9.522278564453124,0.6719359755516052,0.2920949757099151,0.2635785639286041
2024-12-07 20:29:28.685292800,9.532292724609375,0.7802779674530029,0.2600530385971069,0.3262405693531036
2024-12-07 20:29:28.695305700,9.5423056640625,0.8038248419761658,0.2244721502065658,0.3620915114879608
2024-12-07 20:29:28.705319700,9.552319580078125,0.7732593417167664,0.1891933232545852,0.3311792612075805
2024-12-07 20:29:28.715333600,9.562333740234376,0.7339969277381897,0.1589174419641494,0.2495525628328323
2024-12-07 20:29:28.725346800,9.572346923828125,0.7047295570373535,0.1278537660837173,0.1600152254104614
2024-12-07 20:29:28.735360500,9.582360595703124,0.6707857251167297,0.0865310803055763,0.0960839018225669
2024-12-07 20:29:28.745374700,9.592374755859376,0.6344188451766968,0.046295415610075,0.0663588196039199
2024-12-07 20:29:28.755388000,9.602387939453124,0.606756329536438,-0.001584491925314,0.0672424510121345
2024-12-07 20:29:28.765401900,9.61240185546875,0.5868000984191895,-0.0711214765906333,0.0982572585344314
2024-12-07 20:29:28.775415600,9.62241552734375,0.577490508556366,-0.1525095552206039,0.1454830914735794
2024-12-07 20:29:28.785428700,9.6324287109375,0.572727382183075,-0.2319969683885574,0.1963753551244735
2024-12-07 20:29:28.795443000,9.64244287109375,0.5730805397033691,-0.2728301286697387,0.2177924960851669
2024-12-07 20:29:28.805456600,9.65245654296875,0.5890318751335144,-0.2461073100566864,0.1956889480352401
2024-12-07 20:29:28.815470600,9.662470703125,0.6129345297813416,-0.1625556945800781,0.1422816514968872
2024-12-07 20:29:28.825483800,9.67248388671875,0.6328515410423279,-0.0592750497162342,0.0953532382845878
2024-12-07 20:29:28.835497700,9.682497802734376,0.6319149136543274,0.0007925477111712,0.0608493238687515
2024-12-07 20:29:28.845511700,9.69251171875,0.5941221714019775,0.0015988002996891,0.0274898763746023
2024-12-07 20:29:28.855524900,9.70252490234375,0.527960479259491,-0.0419979430735111,-0.030830955132842
2024-12-07 20:29:28.865538800,9.712538818359375,0.4579423666000366,-0.1261986047029495,-0.0961102023720741
2024-12-07 20:29:28.875552800,9.722552734375,0.4212605357170105,-0.2011157274246215,-0.1442042142152786
2024-12-07 20:29:28.885565700,9.732565673828123,0.4137933254241943,-0.2629073560237884,-0.152581512928009
2024-12-07 20:29:28.895580000,9.742579833984376,0.4139783978462219,-0.3454011678695678,-0.1388065814971923
2024-12-07 20:29:28.905593600,9.752593505859377,0.4315220713615417,-0.4387564063072204,-0.1230347082018852
2024-12-07 20:29:28.915606800,9.762606689453126,0.4747497141361236,-0.5248508453369141,-0.098841480910778
2024-12-07 20:29:28.925620700,9.772620849609376,0.5374885201454163,-0.670691728591919,-0.1075706407427787
2024-12-07 20:29:28.935635000,9.782635009765626,0.5907416343688965,-0.8461607098579407,-0.1417887955904007
2024-12-07 20:29:28.945647600,9.792647705078124,0.6015664935112,-0.929408848285675,-0.1798773854970932
2024-12-07 20:29:28.955661000,9.8026611328125,0.5485736131668091,-0.8910055160522461,-0.2491464763879776
2024-12-07 20:29:28.965675000,9.812675048828124,0.4540697634220123,-0.8391876816749573,-0.3053760826587677
2024-12-07 20:29:28.975688200,9.822688232421877,0.339593231678009,-0.7607679963111877,-0.3562118411064148
2024-12-07 20:29:28.985702100,9.8327021484375,0.2237399220466613,-0.6168574690818787,-0.4112085998058319
2024-12-07 20:29:28.995716000,9.842716064453125,0.1207115426659584,-0.4769448637962341,-0.4836207330226898
2024-12-07 20:29:29.005729300,9.852729248046876,0.0197584331035614,-0.4529268443584442,-0.5781801342964172
2024-12-07 20:29:29.015743000,9.862742919921876,-0.0938442945480346,-0.4929251372814178,-0.6691710352897644
2024-12-07 20:29:29.025757200,9.872757080078124,-0.2380497604608535,-0.4622486531734466,-0.7430869936943054
2024-12-07 20:29:29.035770000,9.88277001953125,-0.4054898917675018,-0.4225425124168396,-0.7391897439956665
2024-12-07 20:29:29.045784000,9.8927841796875,-0.6356909871101379,-0.5528654456138611,-0.5968557596206665
2024-12-07 20:29:29.055798000,9.902798095703124,-0.9545738697052002,-0.7690821886062622,-0.2959531545639038
2024-12-07 20:29:29.065811200,9.912811279296877,-1.0740493535995483,-0.5006232261657715,-0.059876449406147
2024-12-07 20:29:29.075825200,9.9228251953125,-0.8336122035980225,0.099066324532032,-0.0442151986062526
2024-12-07 20:29:29.085839000,9.932839111328123,-0.2563726007938385,0.2579723298549652,-0.2624591290950775
2024-12-07 20:29:29.095853000,9.94285302734375,0.3473186194896698,-0.2680563032627105,-0.3583123981952667
2024-12-07 20:29:29.105866200,9.9528662109375,0.483471155166626,-0.5715579390525818,0.0530222952365875
2024-12-07 20:29:29.115880000,9.9628798828125,0.2829170227050781,-0.3787008821964264,0.3638472557067871
2024-12-07 20:29:29.125894100,9.97289404296875,-0.0668239593505859,-0.0892805233597755,0.2651289105415344
2024-12-07 20:29:29.135907000,9.982906982421875,-0.4501191675662994,0.1542407870292663,-0.0708720088005065
2024-12-07 20:29:29.145921300,9.99292138671875,-0.7642090320587158,0.2152674049139022,-0.3892082273960113
2024-12-07 20:29:29.155935000,10.00293505859375,-0.909824013710022,0.1580965220928192,-0.5759828686714172
2024-12-07 20:29:29.165948200,10.0129482421875,-0.9066995978355408,0.0696370899677276,-0.6517772078514099
2024-12-07 20:29:29.175962000,10.022962158203123,-0.7761445641517639,-0.1244780644774437,-0.6722361445426941
2024-12-07 20:29:29.185976000,10.03297607421875,-0.5768898725509644,-0.3552177846431732,-0.6471437215805054
2024-12-07 20:29:29.195989200,10.0429892578125,-0.4100801348686218,-0.5390674471855164,-0.5309856534004211
2024-12-07 20:29:29.206003200,10.053003173828126,-0.3690305352210998,-0.6764571666717529,-0.3579567372798919
2024-12-07 20:29:29.216017000,10.063016845703125,-0.4376285076141357,-0.756481409072876,-0.2595995366573334
2024-12-07 20:29:29.226030000,10.073030029296875,-0.4764680862426758,-0.7777040004730225,-0.2306103110313415
2024-12-07 20:29:29.236044300,10.083044189453124,-0.4701001942157745,-0.7181040644645691,-0.2019821405410766
2024-12-07 20:29:29.246058200,10.093058349609375,-0.4494990110397339,-0.5929011106491089,-0.1632768362760543
2024-12-07 20:29:29.256071200,10.1030712890625,-0.4315961897373199,-0.479743093252182,-0.1246799007058143
2024-12-07 20:29:29.266085000,10.113085205078123,-0.4143284261226654,-0.4227406680583954,-0.0849383920431137
2024-12-07 20:29:29.276099300,10.123099365234374,-0.3963246345520019,-0.3989898264408111,-0.0382712893187999
2024-12-07 20:29:29.286112000,10.133112060546877,-0.3843874037265777,-0.3775238394737243,0.0063463533297181
2024-12-07 20:29:29.296126200,10.143126220703126,-0.3812115788459778,-0.3556054830551147,0.0187385752797126
2024-12-07 20:29:29.306140200,10.15314013671875,-0.4055972993373871,-0.2993991374969482,0.0021467607002705
2024-12-07 20:29:29.316153000,10.163153076171875,-0.4470901489257812,-0.1693985164165496,-0.0290042348206043
2024-12-07 20:29:29.326167000,10.1731669921875,-0.4761201739311218,-0.0091194715350866,-0.0614227913320064
2024-12-07 20:29:29.336181200,10.18318115234375,-0.4681421518325805,0.0965355858206749,-0.0877462700009346
2024-12-07 20:29:29.346194000,10.19319384765625,-0.4255048632621765,0.0760937854647636,-0.1037686541676521
2024-12-07 20:29:29.356208000,10.2032080078125,-0.3681078851222992,-0.0990926846861839,-0.0979403257369995
2024-12-07 20:29:29.366222000,10.21322216796875,-0.300627052783966,-0.33057901263237,-0.0732406750321388
2024-12-07 20:29:29.376236300,10.223236328125,-0.2282364815473556,-0.5034948587417603,-0.0280902422964572
2024-12-07 20:29:29.386249000,10.2332490234375,-0.1650399714708328,-0.5834370255470276,0.026793735101819
2024-12-07 20:29:29.396263200,10.24326318359375,-0.1074371263384819,-0.5984064340591431,0.0679510235786438
2024-12-07 20:29:29.406277000,10.253277099609376,-0.0505468100309371,-0.594569981098175,0.0589587464928627
2024-12-07 20:29:29.416290000,10.2632900390625,-0.0133128855377435,-0.5720643997192383,0.0110245086252689
2024-12-07 20:29:29.426304000,10.273303955078124,0.0023249208461493,-0.515362560749054,-0.0455497689545154
2024-12-07 20:29:29.436318200,10.283318115234374,-0.0055090337991714,-0.4241159558296203,-0.0973746106028556
2024-12-07 20:29:29.446331100,10.2933310546875,-0.0362297147512435,-0.3309528827667236,-0.1252602040767669
2024-12-07 20:29:29.456345000,10.303344970703124,-0.0902045369148254,-0.2516647279262543,-0.1262479722499847
2024-12-07 20:29:29.466359000,10.313359130859377,-0.1484749615192413,-0.203332781791687,-0.1236678883433342
2024-12-07 20:29:29.476372000,10.3233720703125,-0.1852572113275528,-0.1729304045438766,-0.1230319365859031
2024-12-07 20:29:29.486386200,10.33338623046875,-0.1948681771755218,-0.1196450963616371,-0.1153259724378585
2024-12-07 20:29:29.496400100,10.343400146484376,-0.1767773330211639,-0.052393089979887,-0.0827677622437477
2024-12-07 20:29:29.506413300,10.353413330078125,-0.1436410546302795,0.0218517165631055,-0.0380948334932327
2024-12-07 20:29:29.516427000,10.363427001953124,-0.1073152869939804,0.1120058447122573,0.003514394396916
2024-12-07 20:29:29.526441200,10.373441162109376,-0.0512837208807468,0.1979259699583053,0.0337522998452186
2024-12-07 20:29:29.536454100,10.3834541015625,0.0282356049865484,0.2161433100700378,0.0549017935991287
2024-12-07 20:29:29.546468000,10.393468017578124,0.1333104372024536,0.1481630802154541,0.0605258047580719
2024-12-07 20:29:29.556482000,10.40348193359375,0.230878010392189,0.0873857513070106,0.0296866670250892
2024-12-07 20:29:29.566495200,10.4134951171875,0.2854967415332794,0.0971380472183227,-0.0586933754384517
2024-12-07 20:29:29.576509000,10.423509033203125,0.2855249643325805,0.1522534936666488,-0.1579885333776474
2024-12-07 20:29:29.586523100,10.433523193359376,0.2304282188415527,0.1996844410896301,-0.2290304899215698
2024-12-07 20:29:29.596536000,10.4435361328125,0.1273183524608612,0.1555942147970199,-0.2441295534372329
2024-12-07 20:29:29.606550300,10.45355029296875,0.0228786021471023,-0.0042573772370815,-0.2071054726839065
2024-12-07 20:29:29.616564000,10.46356396484375,-0.0599180124700069,-0.1364601403474807,-0.1343431174755096
2024-12-07 20:29:29.626577200,10.4735771484375,-0.1126762181520462,-0.1470541656017303,-0.0915945991873741
2024-12-07 20:29:29.636591000,10.483591064453124,-0.1318315267562866,-0.0671766400337219,-0.1048078685998916
2024-12-07 20:29:29.646605000,10.49360498046875,-0.1308104842901229,0.0537268258631229,-0.1523942500352859
2024-12-07 20:29:29.656619000,10.503618896484374,-0.12968610227108,0.2102751582860946,-0.2155124992132187
2024-12-07 20:29:29.666632200,10.513632080078125,-0.1436712145805359,0.3265767097473144,-0.270876944065094
2024-12-07 20:29:29.676646000,10.52364599609375,-0.1706650108098983,0.3334724307060241,-0.3049702048301697
2024-12-07 20:29:29.686660000,10.53366015625,-0.2184564024209976,0.2000983953475952,-0.3109454214572906
2024-12-07 20:29:29.696673300,10.54367333984375,-0.2853126525878906,0.0124392844736576,-0.2683817148208618
2024-12-07 20:29:29.706687200,10.553687255859376,-0.3380419909954071,-0.0656029284000396,-0.1525791734457016
2024-12-07 20:29:29.716701000,10.563700927734375,-0.3299371898174286,0.0015635921154171,-0.0294798761606216
2024-12-07 20:29:29.726714000,10.573714111328124,-0.2947496473789215,0.0998326316475868,0.0275418628007173
2024-12-07 20:29:29.736728000,10.58372802734375,-0.277601033449173,0.1430472135543823,0.0047465357929468
2024-12-07 20:29:29.746742000,10.593741943359374,-0.2894129157066345,0.1284475475549698,-0.0673660039901733
2024-12-07 20:29:29.756755200,10.603755126953123,-0.3067674040794372,0.1110464558005333,-0.1643591225147247
2024-12-07 20:29:29.766769200,10.61376904296875,-0.3229557573795318,0.1348323971033096,-0.2535420060157776
2024-12-07 20:29:29.776783000,10.623783203125,-0.3537578880786896,0.1410918831825256,-0.3092739582061767
2024-12-07 20:29:29.786796000,10.633796142578126,-0.4188439846038818,0.1083514690399169,-0.3093352317810058
2024-12-07 20:29:29.796810200,10.643810302734376,-0.505212664604187,0.0413149148225784,-0.2566264867782593
2024-12-07 20:29:29.806824200,10.65382421875,-0.5865786075592041,-0.0288279019296169,-0.1967054158449173
2024-12-07 20:29:29.816837000,10.663837158203124,-0.6485551595687866,-0.0353736877441406,-0.1699007004499435
2024-12-07 20:29:29.826851000,10.67385107421875,-0.6963666081428528,0.0646872147917747,-0.178289845585823
2024-12-07 20:29:29.836865300,10.683865234375,-0.7329040765762329,0.1998439729213714,-0.2141490429639816
2024-12-07 20:29:29.846878000,10.6938779296875,-0.7753024101257324,0.324944257736206,-0.279737651348114
2024-12-07 20:29:29.856892200,10.70389208984375,-0.8141398429870605,0.4177647531032562,-0.3753491342067718
2024-12-07 20:29:29.866906000,10.713906005859377,-0.8309755325317383,0.4643141031265259,-0.4854465425014496
2024-12-07 20:29:29.876919000,10.7239189453125,-0.8284854888916016,0.4635636210441589,-0.5913405418395996
2024-12-07 20:29:29.886933000,10.73393310546875,-0.8138364553451538,0.4200022220611572,-0.6606989502906799
2024-12-07 20:29:29.896947200,10.743947265625,-0.7869843244552612,0.3038598895072937,-0.6368774771690369
2024-12-07 20:29:29.906960100,10.753960205078124,-0.7340053915977478,0.0995892062783241,-0.5175836086273193
2024-12-07 20:29:29.916974000,10.76397412109375,-0.6447998881340027,-0.1728327274322509,-0.3896195292472839
2024-12-07 20:29:29.926988000,10.773988037109374,-0.5171941518783569,-0.4234906136989593,-0.3401941955089569
2024-12-07 20:29:29.937001200,10.784001220703123,-0.3679332733154297,-0.5185459852218628,-0.3638776838779449
2024-12-07 20:29:29.947015200,10.79401513671875,-0.2139701247215271,-0.4436232447624206,-0.396240234375
2024-12-07 20:29:29.957029400,10.804029296875,-0.0676533952355384,-0.2897433936595917,-0.3523380160331726
2024-12-07 20:29:29.967043300,10.814043212890626,0.0626819357275962,-0.1331373900175094,-0.1738968640565872
2024-12-07 20:29:29.977056300,10.82405615234375,0.1644969880580902,-0.0447025895118713,0.1465136408805847
2024-12-07 20:29:29.987070200,10.8340703125,0.2024465054273605,0.0109160924330353,0.5141505599021912
2024-12-07 20:29:29.997084400,10.84408447265625,0.2027578353881836,0.1325676888227462,0.8553547859191895
2024-12-07 20:29:30.007097300,10.854097412109375,0.2229575663805008,0.3065557479858398,1.1645687818527222
2024-12-07 20:29:30.017111300,10.864111328125,0.2931377291679382,0.5204525589942932,1.36864173412323
2024-12-07 20:29:30.027125200,10.874125244140624,0.4052379131317138,0.7379956245422363,1.430719256401062
2024-12-07 20:29:30.037138200,10.88413818359375,0.5157294869422913,0.8447734713554382,1.4459421634674072
2024-12-07 20:29:30.047152400,10.89415234375,0.578237771987915,0.8413513898849487,1.4467014074325562
2024-12-07 20:29:30.057166300,10.904166259765624,0.621946394443512,0.7079880237579346,1.4452180862426758
2024-12-07 20:29:30.067179300,10.91417919921875,0.6411854028701782,0.3982007205486297,1.4014825820922852
2024-12-07 20:29:30.077193200,10.924193115234376,0.5918649435043335,0.1039014533162117,1.286935806274414
2024-12-07 20:29:30.087207400,10.93420751953125,0.4999228417873382,0.0879730135202407,1.1286436319351196
2024-12-07 20:29:30.097220400,10.944220458984375,0.4308052957057953,0.2718389928340912,0.928604543209076
2024-12-07 20:29:30.107234300,10.954234375,0.4274339377880096,0.375385046005249,0.641550600528717
2024-12-07 20:29:30.117248300,10.964248291015624,0.4653488397598266,0.3569860458374023,0.3222069442272186
2024-12-07 20:29:30.127261400,10.974261474609374,0.5080681443214417,0.3076469004154205,0.1078444719314575
2024-12-07 20:29:30.137275100,10.984275146484377,0.5278930068016052,0.2692172229290008,0.0895344391465187
2024-12-07 20:29:30.147289300,10.994289306640624,0.5305595993995667,0.2055969089269638,0.2135762870311737
2024-12-07 20:29:30.157302300,11.00430224609375,0.541898787021637,0.0983657985925674,0.3430759310722351
2024-12-07 20:29:30.167316500,11.01431640625,0.5654602646827698,0.0344384238123893,0.3981949090957641
2024-12-07 20:29:30.177330200,11.024330078125,0.5945920944213867,0.0676805302500724,0.3671198189258575
2024-12-07 20:29:30.187343400,11.03434326171875,0.6402148008346558,0.1789114326238632,0.2746495902538299
2024-12-07 20:29:30.197357300,11.044357421875,0.707531213760376,0.301629900932312,0.170166328549385
2024-12-07 20:29:30.207371300,11.054371337890624,0.8006115555763245,0.4202402830123901,0.0958794802427291
2024-12-07 20:29:30.217384400,11.064384521484374,0.8934594988822937,0.5235381722450256,0.0660723149776458
2024-12-07 20:29:30.227398400,11.0743984375,0.9821156859397888,0.5770478844642639,0.0750318840146064
2024-12-07 20:29:30.237412000,11.084412109375,1.072500467300415,0.5333393216133118,0.1090279370546341
2024-12-07 20:29:30.247425300,11.09442529296875,1.1716432571411133,0.3967390954494476,0.1511278301477432
2024-12-07 20:29:30.257439500,11.104439453125,1.262582540512085,0.2312217503786087,0.2005454450845718
2024-12-07 20:29:30.267453400,11.114453369140625,1.2960251569747925,0.0272465199232101,0.2678581774234772
2024-12-07 20:29:30.277467100,11.124467041015626,1.252373218536377,-0.1956725865602493,0.3311761617660522
2024-12-07 20:29:30.287480300,11.134480224609376,1.1393831968307495,-0.3959435224533081,0.3499706089496612
2024-12-07 20:29:30.297494500,11.14449462890625,1.0302023887634275,-0.5104368329048157,0.2857167720794678
2024-12-07 20:29:30.307508200,11.15450830078125,0.9609880447387696,-0.5250299572944641,0.1952107548713684
2024-12-07 20:29:30.317521400,11.164521484375,0.8925322890281677,-0.507335364818573,0.1058973893523216
2024-12-07 20:29:30.327535400,11.174535400390624,0.8036156296730042,-0.4589347243309021,0.0034110667183995
2024-12-07 20:29:30.337549300,11.18454931640625,0.7147235870361328,-0.3050466477870941,-0.1298596411943435
2024-12-07 20:29:30.347562200,11.194562255859376,0.6597111821174622,-0.1163081005215644,-0.2878541052341461
2024-12-07 20:29:30.357576400,11.204576416015623,0.6301178932189941,-0.0654222816228866,-0.394595205783844
2024-12-07 20:29:30.367590400,11.21459033203125,0.5560165643692017,-0.277243435382843,-0.4411168694496155
2024-12-07 20:29:30.377603300,11.224603271484376,0.3554115295410156,-0.4950359463691711,-0.5466938614845276
2024-12-07 20:29:30.387617300,11.2346171875,0.0429379530251026,-0.4419488310813904,-0.5801869034767151
2024-12-07 20:29:30.397631500,11.244631591796876,-0.283077985048294,-0.2968329191207886,-0.4828305244445801
2024-12-07 20:29:30.407644200,11.25464404296875,-0.5178719162940979,-0.3365627825260162,-0.3631925880908966
2024-12-07 20:29:30.417658400,11.264658447265624,-0.623201847076416,-0.5519483685493469,-0.3941028416156769
2024-12-07 20:29:30.427672300,11.27467236328125,-0.6558138728141785,-0.5901550054550171,-0.5742226839065552
2024-12-07 20:29:30.437685200,11.284685302734376,-0.6715590357780457,-0.3597604036331177,-0.7276415228843689
2024-12-07 20:29:30.447699200,11.29469921875,-0.6681174635887146,-0.1620460301637649,-0.7516271471977234
2024-12-07 20:29:30.457713400,11.30471337890625,-0.6341730952262878,-0.1297075301408767,-0.644740104675293
2024-12-07 20:29:30.467726300,11.314726318359376,-0.6290262937545776,-0.2146452069282531,-0.5443901419639587
2024-12-07 20:29:30.477740300,11.324740234375,-0.7106737494468689,-0.4265779852867126,-0.5377586483955383
2024-12-07 20:29:30.487754200,11.334754150390625,-0.8264454007148743,-0.6388145685195923,-0.481088787317276
2024-12-07 20:29:30.497767200,11.34476708984375,-0.8356828689575195,-0.7430853247642517,-0.2108500897884369
2024-12-07 20:29:30.507781400,11.354781494140624,-0.6013874411582947,-0.6540597081184387,0.2168017029762268
2024-12-07 20:29:30.517795300,11.36479541015625,-0.1130246594548225,-0.572281002998352,0.477211445569992
2024-12-07 20:29:30.527808500,11.37480859375,0.2035193443298339,-0.6711372137069702,0.4337048232555389
2024-12-07 20:29:30.537822200,11.384822265625,0.2127466648817062,-0.5431632995605469,0.2920813858509063
2024-12-07 20:29:30.547836400,11.39483642578125,0.099571406841278,-0.2466605603694915,0.1040681079030036
