time,seconds_elapsed,z,y,x
2024-12-07 20:07:08.574327800,0.020327880859375,-0.3513863682746887,-0.0023890724405646,-0.2695500254631042
2024-12-07 20:07:08.584341800,0.030341796875,-0.4563585221767425,-0.0240975376218557,-0.2986906766891479
2024-12-07 20:07:08.594355500,0.04035546875,-0.5755118727684021,-0.0391356088221073,-0.3711379766464233
2024-12-07 20:07:08.604368600,0.05036865234375,-0.6590837836265564,-0.0443795770406723,-0.4857551455497741
2024-12-07 20:07:08.614382800,0.0603828125,-0.6849412322044373,-0.0567438378930091,-0.591639518737793
2024-12-07 20:07:08.624396500,0.070396484375,-0.7244040369987488,-0.0714774951338768,-0.6549244523048401
2024-12-07 20:07:08.634409700,0.08040966796875,-0.7319793701171875,-0.154878631234169,-0.6751559972763062
2024-12-07 20:07:08.644423700,0.090423583984375,-0.6764794588088989,-0.2140031158924102,-0.6302506327629089
2024-12-07 20:07:08.654438000,0.10043798828125,-0.5890300273895264,-0.2186218351125717,-0.5309123396873474
2024-12-07 20:07:08.664451600,0.11045166015625,-0.5401972532272339,-0.2069887071847915,-0.4051319658756256
2024-12-07 20:07:08.674464800,0.12046484375,-0.6326233744621277,-0.081596165895462,-0.3450289666652679
2024-12-07 20:07:08.684478700,0.130478759765625,-0.8769071698188782,0.12178985029459,-0.3716976940631866
2024-12-07 20:07:08.694492700,0.14049267578125,-1.048297882080078,0.139613851904869,-0.3340147733688354
2024-12-07 20:07:08.704505600,0.150505615234375,-1.1655961275100708,-0.0467805340886116,-0.2525361776351928
2024-12-07 20:07:08.714519800,0.160519775390625,-1.3024016618728638,-0.3456476628780365,-0.1940632462501526
2024-12-07 20:07:08.724533500,0.170533447265625,-1.4958947896957395,-0.6192020773887634,-0.2006862163543701
2024-12-07 20:07:08.734546700,0.180546630859375,-1.6736512184143066,-0.8264535069465637,-0.2507288753986358
2024-12-07 20:07:08.744560600,0.190560546875,-1.8028851747512813,-0.8820043802261353,-0.3021496832370758
2024-12-07 20:07:08.754574800,0.200574951171875,-1.8430278301239007,-0.8205293416976929,-0.3278598487377167
2024-12-07 20:07:08.764587500,0.21058740234375,-1.8160693645477293,-0.723655104637146,-0.3198100626468658
2024-12-07 20:07:08.774601700,0.220601806640625,-1.730616331100464,-0.5803520083427429,-0.2737435102462768
2024-12-07 20:07:08.784615700,0.23061572265625,-1.5186597108840942,-0.3942171931266784,-0.1959632933139801
2024-12-07 20:07:08.794628600,0.240628662109375,-1.1667250394821167,-0.2142929583787918,-0.1088398471474647
2024-12-07 20:07:08.804642600,0.250642578125,-0.7452651858329773,-0.1009293869137764,-0.0573295354843139
2024-12-07 20:07:08.814656800,0.26065673828125,-0.3023160099983215,0.0037288542371243,-0.0374397151172161
2024-12-07 20:07:08.824669700,0.270669677734375,0.08228350430727,0.114450417459011,-0.0313768498599529
2024-12-07 20:07:08.834683600,0.28068359375,0.3298754692077636,0.1876996010541916,-0.0379346199333667
2024-12-07 20:07:08.844697600,0.290697509765625,0.4143422245979309,0.2193837463855743,-0.0428636111319065
2024-12-07 20:07:08.854710500,0.30071044921875,0.3910486102104187,0.2602899074554443,-0.0356831960380077
2024-12-07 20:07:08.864724700,0.310724853515625,0.3410749137401581,0.2659757435321808,-0.0185217466205358
2024-12-07 20:07:08.874738700,0.32073876953125,0.3136182427406311,0.2214010804891586,-0.0174804497510194
2024-12-07 20:07:08.884751600,0.330751708984375,0.3040202558040619,0.1829761117696762,-0.0267593748867511
2024-12-07 20:07:08.894765600,0.340765625,0.2999943494796753,0.1709500700235366,-0.0372165441513061
2024-12-07 20:07:08.904779800,0.35077978515625,0.2940694093704223,0.1722578555345535,-0.0446647815406322
2024-12-07 20:07:08.914792700,0.360792724609375,0.2781530022621155,0.1736810505390167,-0.0352196134626865
2024-12-07 20:07:08.924806700,0.370806640625,0.2549851238727569,0.186089813709259,-0.0264701060950756
2024-12-07 20:07:08.934820600,0.380820556640625,0.2128534018993377,0.1371651440858841,-0.0813333541154861
2024-12-07 20:07:08.944833800,0.390833740234375,0.111447125673294,-0.050539530813694,-0.2490280270576477
2024-12-07 20:07:08.954847500,0.400847412109375,-0.0485974065959453,-0.3037640750408172,-0.3941668570041656
2024-12-07 20:07:08.964861700,0.41086181640625,-0.2203067243099212,-0.4851993024349212,-0.4209423661231994
2024-12-07 20:07:08.974874600,0.42087451171875,-0.3603442311286926,-0.5355519652366638,-0.3851302862167358
2024-12-07 20:07:08.984888800,0.430888916015625,-0.4369087219238281,-0.5402352213859558,-0.3272669017314911
2024-12-07 20:07:08.994902500,0.440902587890625,-0.4556919932365417,-0.5316087007522583,-0.2369205057621002
2024-12-07 20:07:09.004915700,0.450915771484375,-0.4216864705085754,-0.4480384290218353,-0.1211821660399437
2024-12-07 20:07:09.014929700,0.4609296875,-0.3435474336147308,-0.2479149401187896,-0.0111914873123168
2024-12-07 20:07:09.024943600,0.470943603515625,-0.291442722082138,0.0090153459459543,0.0458071157336235
2024-12-07 20:07:09.034956800,0.480956787109375,-0.3156085014343261,0.2366703301668167,0.0202290508896112
2024-12-07 20:07:09.044970800,0.490970703125,-0.3679060637950897,0.3763124942779541,-0.0411609038710594
2024-12-07 20:07:09.054984400,0.500984375,-0.3658298552036285,0.4300694763660431,-0.0947058871388435
2024-12-07 20:07:09.064997600,0.51099755859375,-0.2880030870437622,0.4505622386932373,-0.151511937379837
2024-12-07 20:07:09.075011800,0.52101171875,-0.2505792677402496,0.4098196029663086,-0.2584980130195617
2024-12-07 20:07:09.085025800,0.53102587890625,-0.2211680561304092,0.3546777963638305,-0.376116007566452
2024-12-07 20:07:09.095038700,0.541038818359375,-0.1520512998104095,0.2947321832180023,-0.4253187179565429
2024-12-07 20:07:09.105052700,0.551052734375,-0.0456604249775409,0.2288928776979446,-0.4215590357780456
2024-12-07 20:07:09.115067000,0.56106689453125,0.0453456453979015,0.1181021854281425,-0.3860287368297577
2024-12-07 20:07:09.125079600,0.57107958984375,0.0569802597165107,-0.0192456413060426,-0.3212978541851043
2024-12-07 20:07:09.135093800,0.58109375,0.023082748055458,-0.1643591523170471,-0.2607756555080414
2024-12-07 20:07:09.145107700,0.591107666015625,-0.0020396234467625,-0.2560921013355255,-0.2543648183345794
2024-12-07 20:07:09.155121700,0.60112158203125,-0.0612803101539611,-0.3090256154537201,-0.2692835927009582
2024-12-07 20:07:09.165134600,0.611134521484375,-0.1613443493843078,-0.2913912534713745,-0.2591638267040252
2024-12-07 20:07:09.175148800,0.621148681640625,-0.2787522077560425,-0.2173457890748977,-0.2523378729820251
2024-12-07 20:07:09.185162800,0.631162841796875,-0.3689143359661102,-0.2107255458831787,-0.2839857041835785
2024-12-07 20:07:09.195175700,0.64117578125,-0.4643300771713257,-0.2511504590511322,-0.3203338384628296
2024-12-07 20:07:09.205189600,0.651189697265625,-0.5922665596008301,-0.2751262784004211,-0.3610510230064392
2024-12-07 20:07:09.215203800,0.661203857421875,-0.8006902933120728,-0.2591353356838226,-0.4282316565513611
2024-12-07 20:07:09.225216500,0.671216552734375,-1.055749773979187,-0.2559050321578979,-0.545727550983429
2024-12-07 20:07:09.235230700,0.681230712890625,-1.2421034574508667,-0.2472686767578125,-0.6627822518348694
2024-12-07 20:07:09.245244700,0.69124462890625,-1.2642536163330078,-0.2616104483604431,-0.7812453508377075
2024-12-07 20:07:09.255257600,0.701257568359375,-1.2104697227478027,-0.3678130507469177,-0.8555864095687866
2024-12-07 20:07:09.265271600,0.711271484375,-1.2317559719085691,-0.5028814673423767,-0.8369032144546509
2024-12-07 20:07:09.275285800,0.72128564453125,-1.4231815338134766,-0.7351781129837036,-0.7588334083557129
2024-12-07 20:07:09.285298700,0.731298583984375,-1.7141947746276855,-0.9992873668670654,-0.6138558387756348
2024-12-07 20:07:09.295312600,0.741312744140625,-1.9744192361831665,-1.6475991010665894,-0.5188888907432556
2024-12-07 20:07:09.305326600,0.75132666015625,-2.0625698566436768,-1.979982614517212,-0.3821166753768921
2024-12-07 20:07:09.315339500,0.761339599609375,-1.9747214317321773,-1.8131790161132808,-0.1742020845413208
2024-12-07 20:07:09.325353700,0.771353759765625,-1.6992090940475464,-1.355757236480713,0.080114759504795
2024-12-07 20:07:09.335367700,0.78136767578125,-1.2890386581420898,-0.7685211300849915,0.2770709693431854
2024-12-07 20:07:09.345380900,0.791380859375,-0.7762680649757385,-0.2395475059747696,0.3337442576885223
2024-12-07 20:07:09.355394600,0.80139453125,-0.2650689780712127,0.1090805083513259,0.264539361000061
2024-12-07 20:07:09.365408800,0.81140869140625,0.0959722101688385,0.2456219643354416,0.1251232922077179
2024-12-07 20:07:09.375421700,0.821421630859375,0.0959064364433288,0.1766532808542251,0.0441482849419117
2024-12-07 20:07:09.385435600,0.831435546875,0.0064490176737308,0.0373538695275783,0.1393239349126815
2024-12-07 20:07:09.395449600,0.84144970703125,0.0409718416631221,-0.0987067595124244,0.2829897403717041
2024-12-07 20:07:09.405462800,0.851462890625,0.1166383326053619,-0.1960887014865875,0.3571441173553467
2024-12-07 20:07:09.415476500,0.8614765625,0.1034357175230979,-0.249030202627182,0.3559182584285736
2024-12-07 20:07:09.425490700,0.87149072265625,-0.1436004638671875,-0.2516410052776336,0.5282195210456848
2024-12-07 20:07:09.435503600,0.881503662109375,-0.2589344978332519,-0.2257523983716964,0.558688223361969
2024-12-07 20:07:09.445517800,0.891517822265625,-0.2188694328069687,-0.2053984701633453,0.4432405531406402
2024-12-07 20:07:09.455531500,0.901531494140625,-0.1205862686038017,-0.2707961201667785,0.236156091094017
2024-12-07 20:07:09.465544700,0.911544677734375,-0.0607107952237129,-0.4079426527023315,0.0074085411615669
2024-12-07 20:07:09.475558700,0.92155859375,-0.0664064958691597,-0.4831292927265167,-0.1528282612562179
2024-12-07 20:07:09.485572600,0.931572509765625,-0.1104360893368721,-0.4208038747310638,-0.2134425938129425
2024-12-07 20:07:09.495585800,0.941585693359375,-0.0931194201111793,-0.2573643326759338,-0.2177449315786361
2024-12-07 20:07:09.505599700,0.951599853515625,0.0021669566631317,-0.0829466879367828,-0.2113925814628601
2024-12-07 20:07:09.515613400,0.961613525390625,0.0413417890667915,0.0232473965734243,-0.2053962051868438
2024-12-07 20:07:09.525626600,0.971626708984375,0.0330514796078205,0.0366898514330387,-0.1979080736637115
2024-12-07 20:07:09.535640800,0.981640869140625,-0.0017674884293228,-0.003409364959225,-0.2045268267393112
2024-12-07 20:07:09.545654800,0.99165478515625,-0.0380135253071785,-0.0671931505203247,-0.2260502129793167
2024-12-07 20:07:09.555667700,1.001667724609375,-0.0727893561124801,-0.1142615899443626,-0.2221207171678543
2024-12-07 20:07:09.565681700,1.011681640625,-0.0939228236675262,-0.0856844186782836,-0.1631933599710464
2024-12-07 20:07:09.575696000,1.02169580078125,-0.1226295679807663,0.0358430854976177,-0.0850652679800987
2024-12-07 20:07:09.585708500,1.03170849609375,-0.0984364002943039,0.1129658594727516,-0.0640604123473167
2024-12-07 20:07:09.595722800,1.04172265625,-0.1002324372529983,0.1376240700483322,-0.0562525540590286
2024-12-07 20:07:09.605736700,1.05173681640625,-0.1116251945495605,0.1357696205377578,-0.0309817120432853
2024-12-07 20:07:09.615749600,1.06174951171875,-0.1124925836920738,0.1440962702035904,0.0009072460234165
2024-12-07 20:07:09.625763600,1.071763671875,-0.1070989891886711,0.1526364833116531,0.0323285236954689
2024-12-07 20:07:09.635777800,1.08177783203125,-0.0798886716365814,0.1734413653612136,0.0661887526512146
2024-12-07 20:07:09.645790500,1.09179052734375,-0.0366921164095401,0.2109801769256591,0.0995675474405288
2024-12-07 20:07:09.655804700,1.1018046875,0.0031370567157864,0.237267717719078,0.1263664066791534
2024-12-07 20:07:09.665818600,1.111818603515625,0.0277926921844482,0.2417389899492263,0.1309583783149719
2024-12-07 20:07:09.675831600,1.12183154296875,0.0362974964082241,0.213389366865158,0.1216021552681922
2024-12-07 20:07:09.685845500,1.131845458984375,0.0363723449409008,0.1562961935997009,0.1142460405826568
2024-12-07 20:07:09.695859700,1.141859619140625,0.0380112566053867,0.102476917207241,0.1073441952466964
2024-12-07 20:07:09.705873000,1.151872802734375,0.0376104414463043,0.0580273196101188,0.0929331257939338
2024-12-07 20:07:09.715886600,1.161886474609375,0.0323019623756408,0.0238304696977138,0.0590854175388813
2024-12-07 20:07:09.725900500,1.171900634765625,0.0258668418973684,-0.0018132040277123,0.0153542608022689
2024-12-07 20:07:09.735913700,1.181913818359375,0.0222039315849542,-0.0258029587566852,-0.0152947288006544
2024-12-07 20:07:09.745927700,1.191927734375,0.0168863981962203,-0.0049797026440501,-0.0383667573332786
2024-12-07 20:07:09.755941600,1.201941650390625,0.0154821118339896,0.0609559044241905,-0.0445498190820217
2024-12-07 20:07:09.765954800,1.211954833984375,0.0275362897664308,0.1279122084379196,-0.0441952347755432
2024-12-07 20:07:09.775968800,1.22196875,0.0383263528347015,0.2074978500604629,-0.0653961300849914
2024-12-07 20:07:09.785982700,1.231982666015625,0.0406286008656024,0.2798111140727997,-0.0965124294161796
2024-12-07 20:07:09.795995600,1.24199560546875,0.0313639976084232,0.3218339383602142,-0.0917469710111618
2024-12-07 20:07:09.806009900,1.252009765625,0.0133187938481569,0.320613294839859,-0.0397960357367992
2024-12-07 20:07:09.816023600,1.2620234375,0.0021436365786939,0.3242695331573486,0.0061240526847541
2024-12-07 20:07:09.826036700,1.27203662109375,-0.0166279077529907,0.3357429206371307,0.0109252650290727
2024-12-07 20:07:09.836050700,1.28205078125,-0.0691984370350837,0.3149217963218689,0.0070799272507429
2024-12-07 20:07:09.846064600,1.292064697265625,-0.1092016249895095,0.3387029767036438,-0.0550835281610488
2024-12-07 20:07:09.856077600,1.30207763671875,-0.152393564581871,0.2663832306861877,-0.0636591762304306
2024-12-07 20:07:09.866091800,1.312091796875,-0.2270533889532089,0.112201415002346,0.0641834363341331
2024-12-07 20:07:09.876105700,1.322105712890625,-0.2440704554319381,0.0795108526945114,0.1492930054664611
2024-12-07 20:07:09.886118700,1.33211865234375,-0.2042050510644912,0.1429135203361511,0.1169960424304008
2024-12-07 20:07:09.896132600,1.342132568359375,-0.1768123209476471,0.224657654762268,0.0584738850593566
2024-12-07 20:07:09.906146800,1.352146728515625,-0.1641581505537033,0.1980523616075515,0.0347829796373844
2024-12-07 20:07:09.916159700,1.36215966796875,-0.1410959661006927,0.1304517537355423,0.1022728085517883
2024-12-07 20:07:09.926173700,1.372173583984375,-0.1099422127008438,0.1109444051980972,0.222598910331726
2024-12-07 20:07:09.936187600,1.382187744140625,-0.0963278710842132,0.0988856106996536,0.2875694036483764
2024-12-07 20:07:09.946201600,1.39220166015625,-0.1032989025115966,0.1201470345258712,0.2585818469524383
2024-12-07 20:07:09.956214800,1.40221484375,-0.1008695662021637,0.1639230102300644,0.1999470591545105
2024-12-07 20:07:09.966228700,1.412228759765625,-0.0873224437236785,0.2043681740760803,0.1086378842592239
2024-12-07 20:07:09.976242700,1.42224267578125,-0.089951254427433,0.1623136699199676,0.0598724782466888
2024-12-07 20:07:09.986255600,1.432255615234375,-0.1137955859303474,0.085781030356884,0.0785578191280365
2024-12-07 20:07:09.996269800,1.442269775390625,-0.1217467188835144,0.0403845198452472,0.099737137556076
2024-12-07 20:07:10.006283800,1.45228369140625,-0.1222986504435539,0.0403316915035247,0.1050086840987205
2024-12-07 20:07:10.016296700,1.462296630859375,-0.1394680589437484,0.0856302008032798,0.1183774843811988
2024-12-07 20:07:10.026310700,1.472310546875,-0.1469537019729614,0.0770095214247703,0.1687069982290268
2024-12-07 20:07:10.036324900,1.482324951171875,-0.1460162699222564,0.0406563058495521,0.1863674968481063
2024-12-07 20:07:10.046337500,1.492337646484375,-0.131209596991539,0.0468074344098567,0.1171079576015472
2024-12-07 20:07:10.056351700,1.502351806640625,-0.1150649711489677,0.0705268830060958,0.0314756073057651
2024-12-07 20:07:10.066365700,1.51236572265625,-0.0907159075140953,0.154661163687706,-0.0270177703350782
2024-12-07 20:07:10.076378600,1.522378662109375,-0.0724183991551399,0.3088382184505462,-0.0604801252484321
2024-12-07 20:07:10.086392600,1.532392578125,-0.0506922006607055,0.4768890738487243,-0.0611888654530048
2024-12-07 20:07:10.096406800,1.54240673828125,-0.015901731327176,0.5151717662811279,0.0458105541765689
2024-12-07 20:07:10.106419500,1.55241943359375,0.0170656666159629,0.44931361079216,0.2146843373775482
2024-12-07 20:07:10.116433700,1.56243359375,0.0456954464316368,0.435563713312149,0.2998991012573242
2024-12-07 20:07:10.126446800,1.57244677734375,0.0228530187159776,0.5127636790275574,0.3411639332771301
2024-12-07 20:07:10.136460800,1.582460693359375,0.0018862183205783,0.7075033783912659,0.4520582258701324
2024-12-07 20:07:10.146474500,1.592474609375,0.0465837828814983,0.9075598120689392,0.5655194520950317
2024-12-07 20:07:10.156488700,1.60248876953125,0.1254434436559677,1.0613149404525757,0.6429447531700134
2024-12-07 20:07:10.166502000,1.612501953125,0.2110141813755035,0.9759694337844848,0.7675818800926208
2024-12-07 20:07:10.176515600,1.622515625,0.2952494323253631,0.7301210165023804,0.8157091736793518
2024-12-07 20:07:10.186529500,1.632529541015625,0.3663552403450012,0.5097570419311523,0.7326381802558899
2024-12-07 20:07:10.196542700,1.642542724609375,0.3849531710147857,0.2476980090141296,0.6090600490570068
2024-12-07 20:07:10.206556700,1.652556640625,0.3619158565998077,0.1425464898347854,0.5415915250778198
2024-12-07 20:07:10.216570600,1.662570556640625,0.3432888984680176,0.2877465486526489,0.5124174356460571
2024-12-07 20:07:10.226583800,1.672583740234375,0.3150573074817657,0.432976096868515,0.4659150242805481
2024-12-07 20:07:10.236597800,1.68259765625,0.2544355094432831,0.4290972054004669,0.3940991461277008
2024-12-07 20:07:10.246611700,1.69261181640625,0.1993962079286575,0.2731178402900696,0.3278973698616028
2024-12-07 20:07:10.256624600,1.702624755859375,0.164387360215187,0.0503681451082229,0.2807032167911529
2024-12-07 20:07:10.266638800,1.712638916015625,0.1621917784214019,-0.1398517787456512,0.2371969223022461
2024-12-07 20:07:10.276652500,1.722652587890625,0.1873320192098617,-0.2323622703552246,0.1787602454423904
2024-12-07 20:07:10.286665700,1.732665771484375,0.2292595207691192,-0.199842631816864,0.1177754327654838
2024-12-07 20:07:10.296679700,1.7426796875,0.2879886031150818,-0.1006364151835441,0.0860651731491088
2024-12-07 20:07:10.306694000,1.75269384765625,0.361282467842102,-0.0110941939055919,0.0920500010251998
2024-12-07 20:07:10.316706600,1.76270654296875,0.430996835231781,0.0162916239351034,0.1066750138998031
2024-12-07 20:07:10.326720800,1.772720703125,0.4684540927410126,-0.0247558839619159,0.1109860837459564
2024-12-07 20:07:10.336734700,1.782734619140625,0.4657888114452362,-0.1032227277755737,0.1027449294924736
2024-12-07 20:07:10.346747600,1.79274755859375,0.4323460757732391,-0.1993362307548523,0.112819142639637
2024-12-07 20:07:10.356761600,1.80276171875,0.3736936748027801,-0.3111552000045776,0.1352879703044891
2024-12-07 20:07:10.366775800,1.81277587890625,0.3047674894332886,-0.4093123972415924,0.1387466341257095
2024-12-07 20:07:10.376788700,1.822788818359375,0.2422644197940826,-0.4928117990493774,0.1114449799060821
2024-12-07 20:07:10.386802700,1.832802734375,0.1774925887584686,-0.575762152671814,0.0636162310838699
2024-12-07 20:07:10.396816600,1.842816650390625,0.1057986989617347,-0.5985367298126221,0.0246611088514328
2024-12-07 20:07:10.406829600,1.85282958984375,0.0680648237466812,-0.5357546806335449,0.0182353500276803
2024-12-07 20:07:10.416843800,1.86284375,0.0771403461694717,-0.4076683521270752,0.0009130854159593
2024-12-07 20:07:10.426857700,1.872857666015625,0.1025469899177551,-0.2583481073379516,-0.0349402651190757
2024-12-07 20:07:10.436870700,1.88287060546875,0.1271926760673523,-0.163241297006607,-0.0926805287599563
2024-12-07 20:07:10.446884400,1.89288427734375,0.1355554908514022,-0.178446426987648,-0.1740615963935852
2024-12-07 20:07:10.456898600,1.902898681640625,0.10629852861166,-0.312397301197052,-0.2293493598699569
2024-12-07 20:07:10.466911500,1.912911376953125,0.0557863041758537,-0.5191171169281006,-0.2798815369606018
2024-12-07 20:07:10.476925700,1.92292578125,-0.0053907670080661,-0.7396265864372253,-0.3438053727149963
2024-12-07 20:07:10.486939400,1.932939453125,-0.0595487765967845,-0.9264297485351562,-0.398537665605545
2024-12-07 20:07:10.496952600,1.94295263671875,-0.0839244276285171,-1.043808937072754,-0.4402872323989868
2024-12-07 20:07:10.506966500,1.952966552734375,-0.1072359010577201,-1.112907886505127,-0.5018854141235352
2024-12-07 20:07:10.516980500,1.96298046875,-0.139444962143898,-1.109172821044922,-0.5808467864990234
2024-12-07 20:07:10.526993400,1.972993408203125,-0.1885755509138107,-1.0152827501296997,-0.6074761748313904
2024-12-07 20:07:10.537007600,1.983007568359375,-0.2665925920009613,-0.7987684607505798,-0.5731131434440613
2024-12-07 20:07:10.547021300,1.993021240234375,-0.3532174527645111,-0.4865041077136993,-0.4518961608409881
2024-12-07 20:07:10.557034500,2.003034423828125,-0.364133208990097,-0.1794496029615402,-0.2495939135551452
2024-12-07 20:07:10.567048400,2.01304833984375,-0.3307821750640869,0.0024046129547059,-0.0681844651699066
2024-12-07 20:07:10.577062700,2.023062744140625,-0.3077967166900635,0.0724241808056831,-0.0233157873153686
2024-12-07 20:07:10.587075600,2.03307568359375,-0.2802315950393677,0.0600034818053245,-0.1246565356850624
2024-12-07 20:07:10.597089500,2.043089599609375,-0.2383869439363479,-0.0050303819589316,-0.1940750181674957
2024-12-07 20:07:10.607103500,2.053103515625,-0.1779464930295944,-0.0786736533045768,-0.1191449165344238
2024-12-07 20:07:10.617116400,2.063116455078125,-0.1148058846592903,-0.1252552717924118,-0.0118022169917821
2024-12-07 20:07:10.627130600,2.073130615234375,-0.056601345539093,-0.1491024494171142,0.0160032007843256
2024-12-07 20:07:10.637144600,2.08314453125,-0.0123689053580164,-0.1457788348197937,-0.041540253907442
2024-12-07 20:07:10.647157500,2.093157470703125,0.0177353918552398,-0.135103702545166,-0.1506958454847335
2024-12-07 20:07:10.657171500,2.10317138671875,0.0175558943301439,-0.1161366626620292,-0.2455911934375763
2024-12-07 20:07:10.667185700,2.113185546875,-0.0099721970036625,-0.0902109667658805,-0.2788560390472412
2024-12-07 20:07:10.677198300,2.1231982421875,-0.046774685382843,-0.059458915144205,-0.259486585855484
2024-12-07 20:07:10.687212500,2.133212646484375,-0.0780876129865646,-0.0151594663038849,-0.2418563812971115
2024-12-07 20:07:10.697226500,2.1432265625,-0.1048371940851211,0.0439102463424205,-0.2320980280637741
2024-12-07 20:07:10.707239400,2.153239501953125,-0.1307215243577957,0.0913603156805038,-0.2060472518205642
2024-12-07 20:07:10.717253400,2.16325341796875,-0.1375426799058914,0.1140712276101112,-0.1940861940383911
2024-12-07 20:07:10.727267600,2.173267578125,-0.120497353374958,0.0839249268174171,-0.1892268657684326
2024-12-07 20:07:10.737280500,2.183280517578125,-0.0906102955341339,0.0267002526670694,-0.2211874574422836
2024-12-07 20:07:10.747294500,2.19329443359375,-0.0545107163488864,-0.0115019353106617,-0.2968223392963409
2024-12-07 20:07:10.757308400,2.203308349609375,-0.02047099173069,-0.0194946136325597,-0.348772644996643
2024-12-07 20:07:10.767321600,2.213321533203125,0.0055283089168369,-0.0315863899886608,-0.3242508172988891
2024-12-07 20:07:10.777335300,2.223335205078125,0.0267204120755195,-0.0476883947849273,-0.2549543082714081
2024-12-07 20:07:10.787349500,2.233349609375,0.0399536006152629,-0.0517975650727748,-0.1860704123973846
2024-12-07 20:07:10.797362700,2.24336279296875,0.0593075901269912,-0.0246788617223501,-0.1579927057027816
2024-12-07 20:07:10.807376600,2.253376708984375,0.0747498795390129,0.0069494023919105,-0.1516205966472625
2024-12-07 20:07:10.817390300,2.263390380859375,0.0765946507453918,-0.0505495779216289,-0.119469054043293
2024-12-07 20:07:10.827403500,2.273403564453125,0.074079155921936,-0.1436364203691482,-0.0999243706464767
2024-12-07 20:07:10.837417700,2.283417724609375,0.0753228515386581,-0.2197772562503814,-0.0948385298252105
2024-12-07 20:07:10.847431400,2.293431396484375,0.0684889033436775,-0.2477634251117706,-0.0841021537780761
2024-12-07 20:07:10.857444600,2.303444580078125,0.0628563165664672,-0.1498413830995559,-0.1107287034392356
2024-12-07 20:07:10.867458600,2.31345849609375,0.058644026517868,-0.0041033420711755,-0.135096400976181
2024-12-07 20:07:10.877472500,2.323472412109375,0.0387544743716716,0.0912159830331802,-0.1121340990066528
2024-12-07 20:07:10.887486500,2.333486572265625,-0.0001907693222165,0.2127934396266937,-0.0710395202040672
2024-12-07 20:07:10.897499600,2.343499755859375,-0.050554871559143,0.3355193734169006,-0.0324042439460754
2024-12-07 20:07:10.907513600,2.353513671875,-0.1117276921868324,0.3459551036357879,-0.0043365582823753
2024-12-07 20:07:10.917527600,2.363527587890625,-0.1730259358882904,0.2654743790626526,-0.0099704749882221
2024-12-07 20:07:10.927540500,2.37354052734375,-0.2121069133281707,0.2265206426382064,-0.0662210136651992
2024-12-07 20:07:10.937554700,2.3835546875,-0.2268568277359008,0.236267551779747,-0.1294742822647094
2024-12-07 20:07:10.947568400,2.393568359375,-0.2208921462297439,0.2877879738807678,-0.1485531628131866
2024-12-07 20:07:10.957581600,2.40358154296875,-0.1981918960809707,0.3216202557086944,-0.104548692703247
2024-12-07 20:07:10.967595500,2.413595458984375,-0.1754191517829895,0.295047789812088,-0.035291064530611
2024-12-07 20:07:10.977609500,2.423609375,-0.1556608974933624,0.2347506284713745,0.0091206086799502
2024-12-07 20:07:10.987622400,2.433622314453125,-0.1438472718000412,0.1921394616365432,0.0212793238461017
2024-12-07 20:07:10.997636600,2.44363671875,-0.133754163980484,0.1963618993759155,-0.0080495374277234
2024-12-07 20:07:11.007650600,2.453650634765625,-0.14119254052639,0.1895726323127746,-0.0164011567831039
2024-12-07 20:07:11.017663500,2.46366357421875,-0.164550319314003,0.1599356532096862,0.0067547620274126
2024-12-07 20:07:11.027677400,2.473677490234375,-0.1827107220888137,0.1538148671388626,0.0144710447639226
2024-12-07 20:07:11.037691600,2.483691650390625,-0.1903468072414398,0.1748101711273193,-0.0058810980990529
2024-12-07 20:07:11.047704600,2.49370458984375,-0.1960998773574829,0.1703982353210449,-0.0454150438308715
2024-12-07 20:07:11.057718500,2.503718505859375,-0.2091922461986541,0.1283048391342163,-0.0780875086784362
2024-12-07 20:07:11.067732500,2.513732421875,-0.2396832406520843,0.0741806402802467,-0.1240286454558372
2024-12-07 20:07:11.077745400,2.523745361328125,-0.2668546736240387,0.0887878164649009,-0.1938540488481521
2024-12-07 20:07:11.087759600,2.533759521484375,-0.2847359478473663,0.1307931095361709,-0.2296560555696487
2024-12-07 20:07:11.097773600,2.543773681640625,-0.2985327243804931,0.2137516438961029,-0.2260096669197082
2024-12-07 20:07:11.107786500,2.553786376953125,-0.3080937564373016,0.2665549516677856,-0.1801026463508606
2024-12-07 20:07:11.117800400,2.563800537109375,-0.3039914071559906,0.2424549311399459,-0.083006203174591
2024-12-07 20:07:11.127814700,2.573814697265625,-0.3093650043010711,0.223766878247261,0.0194508172571659
2024-12-07 20:07:11.137827300,2.583827392578125,-0.2918917536735534,0.2289041131734848,0.0738568007946014
2024-12-07 20:07:11.147841500,2.593841552734375,-0.2444011867046356,0.2318621277809143,0.088795505464077
2024-12-07 20:07:11.157855500,2.60385546875,-0.1778594404458999,0.2268029302358627,0.1151592060923576
2024-12-07 20:07:11.167868700,2.61386865234375,-0.122123971581459,0.2865492701530456,0.1544219851493835
2024-12-07 20:07:11.177882400,2.62388232421875,-0.068008005619049,0.4645019769668579,0.1969241648912429
2024-12-07 20:07:11.187896600,2.633896484375,0.0138333765789866,0.5894079208374023,0.2288088798522949
2024-12-07 20:07:11.197909500,2.643909423828125,0.0486182533204555,0.5284300446510315,0.3068285882472992
2024-12-07 20:07:11.207923500,2.65392333984375,0.0450715273618698,0.4362152814865112,0.4241156876087188
2024-12-07 20:07:11.217937400,2.6639375,0.0739465802907943,0.412173867225647,0.5473452210426331
2024-12-07 20:07:11.227950600,2.67395068359375,0.1282874196767807,0.465745747089386,0.6717302799224854
2024-12-07 20:07:11.237964300,2.68396435546875,0.1784254163503646,0.5369845032691956,0.7922106385231018
2024-12-07 20:07:11.247978500,2.693978515625,0.2471036911010742,0.5770745277404785,0.9001465439796448
2024-12-07 20:07:11.257991700,2.70399169921875,0.3493051528930664,0.6120181083679199,0.9891432523727416
2024-12-07 20:07:11.268005600,2.714005615234375,0.5101659297943115,0.9214689135551452,1.0256614685058594
2024-12-07 20:07:11.278019300,2.724019287109375,0.7314549088478088,1.4038517475128174,1.0122097730636597
2024-12-07 20:07:11.288032500,2.734032470703125,0.9069908261299132,1.4897308349609375,1.0068609714508057
2024-12-07 20:07:11.298046500,2.74404638671875,0.9582947492599488,1.1683229207992554,1.0041465759277344
2024-12-07 20:07:11.308060400,2.754060302734375,0.9500370025634766,0.8789109587669373,1.0188088417053225
2024-12-07 20:07:11.318073600,2.764073486328125,0.9506266117095948,0.8118778467178345,0.9815354943275452
2024-12-07 20:07:11.328087600,2.774087646484375,0.9548419117927552,0.8885799050331116,0.801494836807251
2024-12-07 20:07:11.338101500,2.7841015625,0.9123000502586364,0.7997954487800598,0.5537676215171814
2024-12-07 20:07:11.348115500,2.794115478515625,0.7949445843696594,0.4228846728801727,0.3970631659030914
2024-12-07 20:07:11.358128600,2.804128662109375,0.6481024026870728,-0.0468335449695587,0.3740846216678619
2024-12-07 20:07:11.368142600,2.814142578125,0.5360780358314514,-0.3565865755081177,0.4304709136486053
2024-12-07 20:07:11.378156500,2.824156494140625,0.4688233137130737,-0.3511119186878204,0.4666739106178283
2024-12-07 20:07:11.388169500,2.83416943359375,0.4378601014614105,-0.0852566584944725,0.4193834960460663
2024-12-07 20:07:11.398183700,2.84418359375,0.4226795732975006,0.1909861117601394,0.3096047937870025
2024-12-07 20:07:11.408197400,2.854197265625,0.4067837595939636,0.3169916868209839,0.2109599858522415
2024-12-07 20:07:11.418210600,2.86421044921875,0.4103334844112396,0.2657229006290436,0.1531156003475189
2024-12-07 20:07:11.428224500,2.874224609375,0.453692615032196,0.1095005795359611,0.1398168057203292
2024-12-07 20:07:11.438238700,2.88423876953125,0.5246352553367615,-0.0566532425582408,0.1933071911334991
2024-12-07 20:07:11.448252200,2.894252197265625,0.5984849333763123,-0.2436092048883438,0.2697254717350006
2024-12-07 20:07:11.458266000,2.90426611328125,0.6599445343017578,-0.4178089797496795,0.3081008493900299
2024-12-07 20:07:11.468280000,2.914280029296875,0.6683992743492126,-0.5865898132324219,0.2967457175254822
2024-12-07 20:07:11.478293200,2.924293212890625,0.6315171718597412,-0.7565836906433105,0.2632050812244415
2024-12-07 20:07:11.488307200,2.93430712890625,0.5694205164909363,-0.8408252000808716,0.2181876897811889
2024-12-07 20:07:11.498321200,2.944321044921875,0.5144134163856506,-0.7167019248008728,0.1664912104606628
2024-12-07 20:07:11.508334000,2.954333984375,0.462581604719162,-0.5131813883781433,0.1179943829774856
2024-12-07 20:07:11.518348300,2.964348388671875,0.4140550792217254,-0.3878394663333893,0.0798608437180519
2024-12-07 20:07:11.528362000,2.974362060546875,0.3601081669330597,-0.4124777317047119,0.0265196040272712
2024-12-07 20:07:11.538375200,2.984375244140625,0.2934180796146393,-0.470075249671936,-0.0873568952083587
2024-12-07 20:07:11.548389000,2.99438916015625,0.2345718294382095,-0.4338203370571136,-0.2139147669076919
2024-12-07 20:07:11.558403000,3.004403076171875,0.2206235229969024,-0.4159867465496063,-0.2861956059932709
2024-12-07 20:07:11.568416000,3.014416015625,0.2539016008377075,-0.4212589263916015,-0.3067065775394439
2024-12-07 20:07:11.578430200,3.02443017578125,0.2924335598945617,-0.4191481173038482,-0.2979181408882141
2024-12-07 20:07:11.588444200,3.034444091796875,0.2969259023666382,-0.485534131526947,-0.3127675950527191
2024-12-07 20:07:11.598457000,3.04445703125,0.2414088547229766,-0.7189969420433044,-0.3540066480636596
2024-12-07 20:07:11.608471000,3.054470947265625,0.167356327176094,-0.9603906273841858,-0.39675173163414
2024-12-07 20:07:11.618485200,3.0644853515625,0.1375233232975006,-1.0667977333068848,-0.4068664014339447
2024-12-07 20:07:11.628498200,3.074498291015625,0.1319384425878524,-0.9832486510276794,-0.3972294330596924
2024-12-07 20:07:11.638512000,3.08451220703125,0.1157480254769325,-0.7972944974899292,-0.3942245841026306
2024-12-07 20:07:11.648526000,3.094526123046875,0.0345113389194011,-0.6385066509246826,-0.3851213753223419
2024-12-07 20:07:11.658539000,3.1045390625,-0.0718939304351806,-0.6034315228462219,-0.3627603948116302
2024-12-07 20:07:11.668553200,3.11455322265625,-0.128328651189804,-0.6802520155906677,-0.3689671456813812
2024-12-07 20:07:11.678567200,3.124567138671875,-0.1396625339984893,-0.772588849067688,-0.3875432312488556
2024-12-07 20:07:11.688580000,3.134580078125,-0.1637674272060394,-0.8671996593475342,-0.3788071274757385
2024-12-07 20:07:11.698594000,3.144593994140625,-0.2281251102685928,-0.9404168725013732,-0.3962929248809814
2024-12-07 20:07:11.708608300,3.154608154296875,-0.283793032169342,-0.95021653175354,-0.4744585156440735
2024-12-07 20:07:11.718621000,3.164620849609375,-0.2860932052135467,-0.9424561262130736,-0.4778564274311065
2024-12-07 20:07:11.728635100,3.17463525390625,-0.3079521656036377,-0.8987339735031128,-0.3725731074810028
2024-12-07 20:07:11.738649000,3.184649169921875,-0.3713407218456268,-0.831916868686676,-0.2893290817737579
2024-12-07 20:07:11.748663300,3.194663330078125,-0.4628468155860901,-0.7593011260032654,-0.3019483089447021
2024-12-07 20:07:11.758676000,3.204676025390625,-0.5604655146598816,-0.6514021158218384,-0.3614063262939453
2024-12-07 20:07:11.768690200,3.214690185546875,-0.611601710319519,-0.5154447555541992,-0.4042598307132721
2024-12-07 20:07:11.778704100,3.2247041015625,-0.5959652066230774,-0.3674265146255493,-0.4194789826869964
2024-12-07 20:07:11.788717000,3.234717041015625,-0.5328221917152405,-0.2369253933429718,-0.4306180775165558
2024-12-07 20:07:11.798731000,3.24473095703125,-0.4538993537425995,-0.1257924735546112,-0.4262566268444061
2024-12-07 20:07:11.808745200,3.2547451171875,-0.3836215138435364,-0.0232819989323616,-0.4000429213047027
2024-12-07 20:07:11.818758100,3.264758056640625,-0.3185175955295563,0.1116356030106544,-0.3481195271015167
2024-12-07 20:07:11.828772000,3.274772216796875,-0.2550749778747558,0.2991053164005279,-0.2816251516342163
2024-12-07 20:07:11.838786000,3.2847861328125,-0.2215031832456588,0.4736486375331878,-0.2080843597650528
2024-12-07 20:07:11.848799200,3.29479931640625,-0.2186581939458847,0.5713660717010498,-0.1698871105909347
2024-12-07 20:07:11.858813000,3.30481298828125,-0.2245770692825317,0.611561119556427,-0.1764778941869735
2024-12-07 20:07:11.868827100,3.3148271484375,-0.2218997925519943,0.5815798044204712,-0.2097780555486679
2024-12-07 20:07:11.878840300,3.32484033203125,-0.2145156413316726,0.4922533929347992,-0.2474452704191208
2024-12-07 20:07:11.888854000,3.33485400390625,-0.2119225710630417,0.3971868455410003,-0.2619145214557647
2024-12-07 20:07:11.898868000,3.344867919921875,-0.2157554030418396,0.2981316447257995,-0.271906703710556
2024-12-07 20:07:11.908881200,3.354881103515625,-0.2175148278474807,0.1965943276882171,-0.2920276522636413
2024-12-07 20:07:11.918895400,3.364895263671875,-0.2060701549053192,0.0865107104182243,-0.317195326089859
2024-12-07 20:07:11.928909000,3.374908935546875,-0.1861318200826645,-0.0315169505774974,-0.3454367220401764
2024-12-07 20:07:11.938922200,3.384922119140625,-0.1636954843997955,-0.1374101042747497,-0.3536145091056824
2024-12-07 20:07:11.948936200,3.394936279296875,-0.1512701213359832,-0.2193998843431472,-0.3227981328964233
2024-12-07 20:07:11.958950100,3.4049501953125,-0.1445062309503555,-0.2563951909542084,-0.2919089496135711
2024-12-07 20:07:11.968963000,3.414963134765625,-0.147187665104866,-0.2403802871704101,-0.289577305316925
2024-12-07 20:07:11.978977300,3.424977294921875,-0.1496417671442031,-0.2145108729600906,-0.3093158602714538
2024-12-07 20:07:11.988991000,3.434990966796875,-0.1474056094884872,-0.2221906036138534,-0.338178426027298
2024-12-07 20:07:11.999004200,3.445004150390625,-0.143699824810028,-0.2296940684318542,-0.3519919812679291
2024-12-07 20:07:12.009018000,3.45501806640625,-0.1348592340946197,-0.205375999212265,-0.3348055481910705
2024-12-07 20:07:12.019032300,3.4650322265625,-0.1239490732550621,-0.1829124987125396,-0.2954594790935516
2024-12-07 20:07:12.029045000,3.475044921875,-0.1185643747448921,-0.1506337672472,-0.2494800835847854
2024-12-07 20:07:12.039059200,3.48505908203125,-0.113088920712471,-0.0965042263269424,-0.2142890840768814
2024-12-07 20:07:12.049073200,3.4950732421875,-0.0905273333191871,-0.0180254988372325,-0.2183844000101089
2024-12-07 20:07:12.059086000,3.505086181640625,-0.0692255049943924,0.080546885728836,-0.2618445456027984
2024-12-07 20:07:12.069100000,3.51510009765625,-0.0506716854870319,0.166248619556427,-0.2911255955696106
2024-12-07 20:07:12.079114200,3.5251142578125,-0.0244992021471261,0.216495543718338,-0.2813544571399688
2024-12-07 20:07:12.089128000,3.5351279296875,-0.0108168218284845,0.231918379664421,-0.2385507076978683
2024-12-07 20:07:12.099141000,3.54514111328125,-0.0097832484170794,0.1918772161006927,-0.1673590987920761
2024-12-07 20:07:12.109155000,3.555155029296875,-0.0178302563726902,0.0929929763078689,-0.0912997424602508
2024-12-07 20:07:12.119169300,3.565169189453125,-0.0407728552818298,0.049599427729845,-0.0935967192053794
2024-12-07 20:07:12.129182200,3.57518212890625,-0.0641500353813171,0.0950505062937736,-0.1618260741233825
2024-12-07 20:07:12.139196200,3.585196044921875,-0.0908032208681106,0.228345438838005,-0.2601750195026397
2024-12-07 20:07:12.149210000,3.595210205078125,-0.1185095310211181,0.3676436841487884,-0.3190173208713531
2024-12-07 20:07:12.159223000,3.60522314453125,-0.1438955813646316,0.4015190899372101,-0.3036300837993622
2024-12-07 20:07:12.169237200,3.6152373046875,-0.1672852784395218,0.3426356613636017,-0.2904087007045746
2024-12-07 20:07:12.179251200,3.625251220703125,-0.1994346976280212,0.2656199634075165,-0.3373189568519592
2024-12-07 20:07:12.189264100,3.63526416015625,-0.2346524894237518,0.1770503222942352,-0.3781869113445282
2024-12-07 20:07:12.199278000,3.645278076171875,-0.2623744010925293,0.0765325054526329,-0.3034871220588684
2024-12-07 20:07:12.209292300,3.655292236328125,-0.2659728229045868,0.0749420374631881,-0.1760087609291076
2024-12-07 20:07:12.219305000,3.665304931640625,-0.2394919395446777,0.132823184132576,-0.0876136496663093
2024-12-07 20:07:12.229319200,3.675319091796875,-0.2003875076770782,0.134938582777977,-0.0443051122128963
2024-12-07 20:07:12.239333000,3.6853330078125,-0.1722296476364135,0.1502190083265304,-0.0601314790546894
2024-12-07 20:07:12.249346000,3.695345947265625,-0.1703836768865585,0.2172616124153137,-0.0648923218250274
2024-12-07 20:07:12.259360000,3.705360107421875,-0.1811545640230178,0.3001338541507721,-0.0235060043632984
2024-12-07 20:07:12.269374200,3.715374267578125,-0.1895846575498581,0.3398168981075287,0.006947155110538
2024-12-07 20:07:12.279387100,3.72538720703125,-0.2127954512834549,0.3364280462265014,-0.0073902388103306
2024-12-07 20:07:12.289401000,3.735401123046875,-0.2548036575317383,0.2963700592517853,-0.0469810180366039
2024-12-07 20:07:12.299415000,3.7454150390625,-0.3122829496860504,0.2532556056976318,-0.1192656010389328
2024-12-07 20:07:12.309428200,3.75542822265625,-0.3625991344451904,0.2512281835079193,-0.2300235778093338
2024-12-07 20:07:12.319442000,3.76544189453125,-0.3804306089878082,0.315801590681076,-0.3233737349510193
2024-12-07 20:07:12.329456000,3.7754560546875,-0.3762317597866058,0.3900822401046753,-0.3440939784049988
2024-12-07 20:07:12.339469300,3.78546923828125,-0.3575606048107147,0.4492749869823456,-0.3032205998897552
2024-12-07 20:07:12.349483000,3.79548291015625,-0.340718001127243,0.497477650642395,-0.2321423888206482
2024-12-07 20:07:12.359497000,3.8054970703125,-0.3423047065734863,0.484032928943634,-0.1369093507528305
2024-12-07 20:07:12.369511200,3.81551123046875,-0.3756173849105835,0.4053944647312164,0.002728542080149
2024-12-07 20:07:12.379524400,3.8255244140625,-0.427356481552124,0.4193094968795776,0.0805282667279243
2024-12-07 20:07:12.389538000,3.8355380859375,-0.4655245542526245,0.4551565647125244,0.1042574495077133
2024-12-07 20:07:12.399552000,3.845552001953125,-0.463844895362854,0.3852089047431946,0.1044396162033081
2024-12-07 20:07:12.409565200,3.855565185546875,-0.4394327998161316,0.2454593628644943,0.0283162202686071
2024-12-07 20:07:12.419579100,3.8655791015625,-0.3713924884796142,0.1210521981120109,-0.1150936707854271
2024-12-07 20:07:12.429593000,3.875593017578125,-0.2792893946170807,0.0726220980286598,-0.2925875186920166
2024-12-07 20:07:12.439606300,3.885606201171875,-0.2027573585510254,0.1414448469877243,-0.3894141912460327
2024-12-07 20:07:12.449620200,3.8956201171875,-0.1729299426078796,0.3286108374595642,-0.3240139484405517
2024-12-07 20:07:12.459634200,3.90563427734375,-0.1589667201042175,0.5467112064361572,-0.1015848889946937
2024-12-07 20:07:12.469647000,3.915647216796875,-0.1513674855232238,0.6496860384941101,0.1194276884198188
2024-12-07 20:07:12.479661300,3.925661376953125,-0.1668923795223236,0.6796319484710693,0.2473925948143005
2024-12-07 20:07:12.489675000,3.935675048828125,-0.2306561470031738,0.7089420557022095,0.2890669107437134
2024-12-07 20:07:12.499688200,3.945688232421875,-0.3189804255962372,0.7311629056930542,0.2771598994731903
2024-12-07 20:07:12.509702100,3.9557021484375,-0.3834684193134308,0.6839807629585266,0.2681158185005188
2024-12-07 20:07:12.519716000,3.965716064453125,-0.393685907125473,0.5751855373382568,0.3025899231433868
2024-12-07 20:07:12.529729000,3.97572900390625,-0.3567933142185211,0.4492756128311157,0.3316470682621002
2024-12-07 20:07:12.539743200,3.9857431640625,-0.2847667932510376,0.3625593781471252,0.3237830102443695
2024-12-07 20:07:12.549757200,3.995757080078125,-0.1947379261255264,0.3101440072059631,0.2885207533836365
2024-12-07 20:07:12.559770000,4.00577001953125,-0.1224994212388992,0.3255615532398224,0.26045823097229
2024-12-07 20:07:12.569784000,4.0157841796875,-0.0911878049373626,0.3635568022727966,0.2735908627510071
2024-12-07 20:07:12.579798300,4.02579833984375,-0.0966318398714065,0.3647360503673553,0.2981345653533935
2024-12-07 20:07:12.589811200,4.035811279296875,-0.1147552728652954,0.3061181902885437,0.2977258861064911
2024-12-07 20:07:12.599825200,4.0458251953125,-0.1355335265398025,0.209338903427124,0.2689695954322815
2024-12-07 20:07:12.609839000,4.055839111328125,-0.1251006424427032,0.150686115026474,0.2440558522939682
2024-12-07 20:07:12.619852000,4.06585205078125,-0.0665286630392074,0.2072172909975052,0.2435413300991058
2024-12-07 20:07:12.629866200,4.0758662109375,0.0382483340799808,0.3469483554363251,0.2885186076164245
2024-12-07 20:07:12.639880200,4.085880126953125,0.1742977946996688,0.5348506569862366,0.3625033497810364
2024-12-07 20:07:12.649893000,4.09589306640625,0.317980021238327,0.7512469291687012,0.3852938413619995
2024-12-07 20:07:12.659907000,4.105906982421875,0.4244891405105591,0.7471768260002136,0.3948157131671905
2024-12-07 20:07:12.669921300,4.11592138671875,0.4219497442245483,0.5217670202255249,0.5097858309745789
2024-12-07 20:07:12.679935200,4.125935302734375,0.3443241715431213,0.3586180210113525,0.6544505953788757
2024-12-07 20:07:12.689948200,4.1359482421875,0.3039048314094543,0.2490361928939819,0.7023282647132874
2024-12-07 20:07:12.699962000,4.145962158203125,0.2842714786529541,0.1598490476608276,0.5924971103668213
2024-12-07 20:07:12.709976300,4.155976318359375,0.2723662555217743,0.1271094381809234,0.4177200496196747
2024-12-07 20:07:12.719989000,4.165989013671875,0.333089530467987,0.115923099219799,0.2250099778175354
2024-12-07 20:07:12.730003200,4.176003173828125,0.4368322193622589,0.1142551302909851,0.1133774816989898
2024-12-07 20:07:12.740017200,4.18601708984375,0.5519319176673889,0.2867190539836883,0.1138464659452438
2024-12-07 20:07:12.750030000,4.196030029296875,0.649276077747345,0.6282153725624084,0.2460604459047317
2024-12-07 20:07:12.760044000,4.2060439453125,0.7136651873588562,0.919051706790924,0.4754656851291656
2024-12-07 20:07:12.770058200,4.216058349609375,0.735439658164978,1.016674280166626,0.698481023311615
2024-12-07 20:07:12.780071000,4.22607080078125,0.737369954586029,0.9800124764442444,0.8420443534851074
2024-12-07 20:07:12.790085000,4.236085205078125,0.7343119978904724,0.8723492622375488,0.8708004355430603
2024-12-07 20:07:12.800099000,4.24609912109375,0.7281568646430969,0.7118256092071533,0.7627389430999756
2024-12-07 20:07:12.810112300,4.2561123046875,0.7280473709106445,0.4936530888080597,0.5880616903305054
2024-12-07 20:07:12.820126000,4.2661259765625,0.7547860741615295,0.2780725955963135,0.432827353477478
2024-12-07 20:07:12.830140200,4.27614013671875,0.8071342706680298,0.0840705558657646,0.380658209323883
2024-12-07 20:07:12.840153300,4.2861533203125,0.8667283654212952,-0.1001850366592407,0.4033637940883636
2024-12-07 20:07:12.850167000,4.2961669921875,0.9181354641914368,-0.2314467579126358,0.445331335067749
2024-12-07 20:07:12.860181000,4.306180908203125,0.9849661588668824,-0.2614491581916809,0.4519956409931183
2024-12-07 20:07:12.870194200,4.316194091796875,1.0598961114883425,-0.2233733385801315,0.4122510850429535
2024-12-07 20:07:12.880208100,4.3262080078125,1.123648166656494,-0.1746577322483062,0.3710674345493316
2024-12-07 20:07:12.890222000,4.33622216796875,1.139107346534729,-0.1756491214036941,0.3761632740497589
2024-12-07 20:07:12.900235300,4.3462353515625,1.105423927307129,-0.2648476958274841,0.4127479195594787
2024-12-07 20:07:12.910249200,4.356249267578125,1.0329021215438845,-0.4355521500110626,0.4485869705677032
2024-12-07 20:07:12.920263200,4.36626318359375,0.9444484114646912,-0.6613383889198303,0.4474026560783386
2024-12-07 20:07:12.930277000,4.376277099609375,0.854223906993866,-0.8876954913139343,0.3969899415969848
2024-12-07 20:07:12.940290300,4.386290283203125,0.778521716594696,-1.0227327346801758,0.3183529078960418
2024-12-07 20:07:12.950304000,4.396303955078125,0.7253950834274292,-1.0142754316329956,0.237897589802742
2024-12-07 20:07:12.960318200,4.406318115234375,0.672885000705719,-0.8810584545135498,0.14320969581604
2024-12-07 20:07:12.970331100,4.4163310546875,0.6231585741043091,-0.7468012571334839,0.0537729486823082
2024-12-07 20:07:12.980345300,4.426345458984375,0.5826265811920166,-0.6941649317741394,0.0026445190887898
2024-12-07 20:07:12.990359000,4.436359130859375,0.5545961856842041,-0.6966498494148254,0.0061049377545714
2024-12-07 20:07:13.000372200,4.446372314453125,0.5289105772972107,-0.691535234451294,0.0509254038333892
2024-12-07 20:07:13.010386200,4.45638623046875,0.5173729062080383,-0.6962853074073792,0.0990130454301834
2024-12-07 20:07:13.020400000,4.466400146484375,0.4967890679836273,-0.7319479584693909,0.0922938883304596
2024-12-07 20:07:13.030413000,4.4764130859375,0.4453714787960052,-0.7921934127807617,0.0159783400595188
2024-12-07 20:07:13.040427300,4.48642724609375,0.3665022253990173,-0.8983730673789978,-0.106028527021408
2024-12-07 20:07:13.050441000,4.49644091796875,0.2564560770988464,-0.975028157234192,-0.2358371466398239
2024-12-07 20:07:13.060454100,4.5064541015625,0.1471304148435592,-1.0046364068984983,-0.348073661327362
2024-12-07 20:07:13.070468000,4.516468017578125,0.0693107098340988,-0.9789661169052124,-0.407230794429779
2024-12-07 20:07:13.080482300,4.526482421875,0.0192523337900638,-0.8921273946762085,-0.4315108358860016
2024-12-07 20:07:13.090495200,4.5364951171875,-0.0127134975045919,-0.7512755990028381,-0.4441231787204742
2024-12-07 20:07:13.100509200,4.54650927734375,-0.0273630134761333,-0.5894736647605896,-0.4067944288253784
2024-12-07 20:07:13.110523100,4.556523193359375,-0.0346503220498561,-0.534351110458374,-0.3572736978530884
2024-12-07 20:07:13.120536000,4.5665361328125,-0.0464891381561756,-0.5630807280540466,-0.3144218325614929
2024-12-07 20:07:13.130550300,4.57655029296875,-0.0780760198831558,-0.5756329894065857,-0.3072403073310852
2024-12-07 20:07:13.140564200,4.586564208984375,-0.1317469626665115,-0.5397610068321228,-0.3165858685970306
2024-12-07 20:07:13.150577200,4.5965771484375,-0.1827971637248993,-0.5072221755981445,-0.323894202709198
2024-12-07 20:07:13.160591000,4.606591064453125,-0.211596593260765,-0.441917210817337,-0.3368885815143585
2024-12-07 20:07:13.170605000,4.61660498046875,-0.2104793488979339,-0.3383280038833618,-0.3712020516395569
2024-12-07 20:07:13.180618000,4.626617919921875,-0.1765932887792587,-0.2944457530975342,-0.4177506268024444
2024-12-07 20:07:13.190632200,4.636632080078125,-0.1035220101475715,-0.4270112216472626,-0.4356167614459991
2024-12-07 20:07:13.200646100,4.646646240234375,-0.0226950738579034,-0.6984914541244507,-0.4323197603225708
2024-12-07 20:07:13.210659000,4.6566591796875,-0.0269158463925123,-0.8169851899147034,-0.4830262064933777
2024-12-07 20:07:13.220673000,4.666673095703125,-0.1302962899208068,-0.7723469138145447,-0.5159146189689636
2024-12-07 20:07:13.230687200,4.676687255859375,-0.1960258334875106,-0.8172636032104492,-0.4814164638519287
2024-12-07 20:07:13.240701200,4.686701171875,-0.2718082070350647,-0.8657100200653076,-0.3932072520256042
2024-12-07 20:07:13.250714000,4.696714111328125,-0.3855010867118835,-0.8204315304756165,-0.3310013711452484
2024-12-07 20:07:13.260728000,4.70672802734375,-0.5185667276382446,-0.5998647809028625,-0.344139814376831
2024-12-07 20:07:13.270742300,4.7167421875,-0.6122985482215881,-0.2564341723918915,-0.3924663662910461
2024-12-07 20:07:13.280755000,4.7267548828125,-0.6260090470314026,-0.0316955931484699,-0.434165894985199
2024-12-07 20:07:13.290769200,4.73676904296875,-0.5951534509658813,0.0872150212526321,-0.4510622322559356
2024-12-07 20:07:13.300783000,4.746783203125,-0.5643917918205261,0.1600551307201385,-0.4418314397335052
2024-12-07 20:07:13.310796000,4.756796142578125,-0.5200424790382385,0.2146309912204742,-0.4359106719493866
2024-12-07 20:07:13.320810000,4.76681005859375,-0.4754950404167175,0.242519348859787,-0.4398905038833618
2024-12-07 20:07:13.330824200,4.77682421875,-0.4459628760814667,0.2183654457330703,-0.4150183200836181
2024-12-07 20:07:13.340837000,4.786837158203125,-0.4116640388965606,0.1224967166781425,-0.3672952651977539
2024-12-07 20:07:13.350851000,4.79685107421875,-0.3465948104858398,-0.027972225099802,-0.3167596161365509
2024-12-07 20:07:13.360865000,4.806864990234375,-0.2485247105360031,-0.1629068702459335,-0.2879668474197387
2024-12-07 20:07:13.370878200,4.816878173828125,-0.1622120440006256,-0.2156226933002472,-0.2685013711452484
2024-12-07 20:07:13.380892200,4.82689208984375,-0.1073666363954544,-0.1909418553113937,-0.2435965687036514
2024-12-07 20:07:13.390906000,4.836906005859375,-0.0815554410219192,-0.1493038088083267,-0.2119036614894867
2024-12-07 20:07:13.400919300,4.846919189453125,-0.0764781236648559,-0.1444946825504303,-0.2248005419969558
2024-12-07 20:07:13.410933000,4.85693310546875,-0.0856255665421485,-0.1572686731815338,-0.2760382890701294
2024-12-07 20:07:13.420947200,4.866947265625,-0.0986207276582717,-0.1366283893585205,-0.2906166911125183
2024-12-07 20:07:13.430960000,4.876960205078125,-0.0992670580744743,-0.0947683975100517,-0.2345362603664398
2024-12-07 20:07:13.440974300,4.886974365234375,-0.0995333790779113,-0.0482632182538509,-0.1612364798784256
2024-12-07 20:07:13.450988500,4.896988525390625,-0.100117988884449,0.0070830527693033,-0.1011371240019798
2024-12-07 20:07:13.461001700,4.907001708984375,-0.0837296992540359,0.0680129826068878,-0.0626523122191429
2024-12-07 20:07:13.471015700,4.917015625,-0.0470330975949764,0.1136984899640083,-0.0347144678235054
2024-12-07 20:07:13.481029600,4.927029541015625,-0.0132857896387577,0.1268249452114105,-0.0163905918598175
2024-12-07 20:07:13.491043600,4.937043701171875,0.0166200157254934,0.0922672748565673,-0.0015411176718771
2024-12-07 20:07:13.501056800,4.947056884765625,0.0404302738606929,0.0597644597291946,-0.0077934204600751
2024-12-07 20:07:13.511070700,4.95707080078125,0.0453332439064979,0.0700065419077873,-0.0390910021960735
2024-12-07 20:07:13.521084700,4.967084716796875,0.0398037247359752,0.1059174090623855,-0.0945382788777351
2024-12-07 20:07:13.531097600,4.97709765625,0.0294714737683534,0.1477423906326294,-0.1413537561893463
2024-12-07 20:07:13.541111800,4.98711181640625,0.0138179464265704,0.1661445796489715,-0.1422837227582931
2024-12-07 20:07:13.551125500,4.99712548828125,-0.0028072458226233,0.1742150485515594,-0.110557772219181
2024-12-07 20:07:13.561138700,5.007138671875,-0.024258742108941,0.2084678262472152,-0.0660409107804298
2024-12-07 20:07:13.571152600,5.017152587890625,-0.0414433442056179,0.2098903954029083,-0.0049916021525859
2024-12-07 20:07:13.581166800,5.027166748046875,-0.0558443889021873,0.1424913853406906,0.0288939271122217
2024-12-07 20:07:13.591179500,5.037179443359375,-0.0863886550068855,0.0563620068132877,0.0019465582445263
2024-12-07 20:07:13.601193700,5.04719384765625,-0.1291126906871795,0.0252469647675752,-0.0794516280293464
2024-12-07 20:07:13.611207700,5.057207763671875,-0.1885749846696853,0.0934280604124069,-0.1735617816448211
2024-12-07 20:07:13.621220600,5.067220703125,-0.2721638977527618,0.268989235162735,-0.2382249236106872
2024-12-07 20:07:13.631234600,5.077234619140625,-0.3622147440910339,0.4914071261882782,-0.2346099317073822
2024-12-07 20:07:13.641248800,5.087248779296875,-0.4225116372108459,0.662354588508606,-0.1867587864398956
2024-12-07 20:07:13.651261700,5.09726171875,-0.4490668177604675,0.7358449697494507,-0.1638568490743637
2024-12-07 20:07:13.661275600,5.107275634765625,-0.4656729698181152,0.7113491892814636,-0.1887518018484115
2024-12-07 20:07:13.671289600,5.11728955078125,-0.4715403318405151,0.5697140693664551,-0.227682739496231
2024-12-07 20:07:13.681302500,5.127302490234375,-0.4502507448196411,0.3623233437538147,-0.2468577772378921
2024-12-07 20:07:13.691316500,5.13731640625,-0.379864752292633,0.1605608612298965,-0.2521107494831085
2024-12-07 20:07:13.701330700,5.14733056640625,-0.2767873704433441,0.0070370817556977,-0.2440917044878006
2024-12-07 20:07:13.711343600,5.157343505859375,-0.1768408417701721,-0.1108344122767448,-0.2284483164548874
2024-12-07 20:07:13.721357600,5.167357666015625,-0.0956176221370697,-0.1764781475067138,-0.2086051106452942
2024-12-07 20:07:13.731371500,5.17737158203125,-0.0494303740561008,-0.1618816405534744,-0.1551301479339599
2024-12-07 20:07:13.741384700,5.187384765625,-0.0158146228641271,-0.1223435625433921,-0.0609535798430442
2024-12-07 20:07:13.751398700,5.197398681640625,0.0237440355122089,-0.0726460292935371,0.0106399087235331
2024-12-07 20:07:13.761412600,5.20741259765625,0.0583302415907382,-0.0114228837192058,0.0483800992369651
2024-12-07 20:07:13.771426600,5.217426513671875,0.0731029137969017,0.0514247119426727,0.084515556693077
2024-12-07 20:07:13.781439500,5.227439453125,0.0838407799601554,0.1302313804626464,0.0986010134220123
2024-12-07 20:07:13.791453700,5.23745361328125,0.0847462937235832,0.2481415867805481,0.0754564404487609
2024-12-07 20:07:13.801467600,5.247467529296875,0.0728432908654213,0.3548555374145508,0.0233114752918481
2024-12-07 20:07:13.811480600,5.25748046875,0.0434781648218631,0.4030310809612274,-0.0729192122817039
2024-12-07 20:07:13.821494500,5.26749462890625,-0.0158176496624946,0.369035542011261,-0.1825069636106491
2024-12-07 20:07:13.831508700,5.2775087890625,-0.1058891788125038,0.316844642162323,-0.2611398696899414
2024-12-07 20:07:13.841521700,5.287521728515625,-0.2113564759492874,0.2607725858688354,-0.2831924259662628
2024-12-07 20:07:13.851535600,5.29753564453125,-0.3064067363739013,0.2085092365741729,-0.2679885625839233
2024-12-07 20:07:13.861549600,5.307549560546875,-0.3811816275119781,0.1367836445569992,-0.2264733463525772
2024-12-07 20:07:13.871562800,5.317562744140625,-0.4338549673557281,0.0525999367237091,-0.2232358604669571
2024-12-07 20:07:13.881576400,5.327576416015625,-0.4654693603515625,0.0096282353624701,-0.2799305617809295
2024-12-07 20:07:13.891590700,5.337590576171875,-0.4823957979679107,0.0182461477816104,-0.3778477311134338
2024-12-07 20:07:13.901603600,5.347603515625,-0.497134804725647,0.0781555473804473,-0.4842695295810699
2024-12-07 20:07:13.911617500,5.357617431640625,-0.501428484916687,0.1293454617261886,-0.5597080588340759
2024-12-07 20:07:13.921631500,5.367631591796875,-0.4933678805828094,0.1602945923805236,-0.5970442295074463
2024-12-07 20:07:13.931644700,5.377644775390625,-0.4749031662940979,0.1755635738372802,-0.6031559109687805
2024-12-07 20:07:13.941658600,5.38765869140625,-0.4679083824157715,0.1714359521865844,-0.5672644972801208
2024-12-07 20:07:13.951672600,5.397672607421875,-0.4588756263256073,0.1799314767122268,-0.4693401455879211
2024-12-07 20:07:13.961685800,5.407685791015625,-0.4485582709312439,0.1907726675271988,-0.3153641521930694
2024-12-07 20:07:13.971699700,5.41769970703125,-0.4330539405345917,0.1883261650800705,-0.1649798452854156
2024-12-07 20:07:13.981713400,5.42771337890625,-0.4181455671787262,0.2107835412025451,-0.0860155224800109
2024-12-07 20:07:13.991726600,5.4377265625,-0.3848318755626678,0.2981994748115539,-0.1029597073793411
2024-12-07 20:07:14.001740800,5.44774072265625,-0.3724641501903534,0.3115057051181793,-0.1300805360078811
2024-12-07 20:07:14.011754500,5.45775439453125,-0.3433454632759094,0.2275771796703338,-0.1384278833866119
2024-12-07 20:07:14.021768400,5.4677685546875,-0.2616380751132965,0.1763368844985962,-0.1346951872110366
2024-12-07 20:07:14.031781600,5.47778173828125,-0.1428838670253753,0.1932957023382187,-0.1129750683903694
2024-12-07 20:07:14.041795800,5.4877958984375,-0.0168114174157381,0.2227928787469864,-0.03520517796278
2024-12-07 20:07:14.051809500,5.4978095703125,0.090249978005886,0.2269904911518097,0.0894878357648849
2024-12-07 20:07:14.061822700,5.50782275390625,0.1776413321495056,0.2257742285728454,0.2089455276727676
2024-12-07 20:07:14.071836700,5.517836669921875,0.2418179214000702,0.2275609374046325,0.323179692029953
2024-12-07 20:07:14.081850600,5.5278505859375,0.298425555229187,0.2484915256500244,0.4594829380512237
2024-12-07 20:07:14.091863600,5.537863525390625,0.3342528939247131,0.3131338953971863,0.6232428550720215
2024-12-07 20:07:14.101877800,5.547877685546875,0.3295628130435943,0.4150845110416412,0.7979952096939087
2024-12-07 20:07:14.111891700,5.5578916015625,0.2971090078353882,0.5325708389282227,0.9711880683898926
2024-12-07 20:07:14.121904600,5.567904541015625,0.2887599766254425,0.6440483927726746,1.1069235801696775
2024-12-07 20:07:14.131918600,5.577918701171875,0.3182604312896728,0.7517073750495911,1.170923113822937
2024-12-07 20:07:14.141932800,5.587932861328125,0.3605908453464508,0.8644179701805115,1.1566824913024902
2024-12-07 20:07:14.151945500,5.597945556640625,0.4040466845035553,0.9825275540351868,1.1079672574996948
2024-12-07 20:07:14.161959700,5.607959716796875,0.4373295307159424,1.1789710521697998,1.085367202758789
2024-12-07 20:07:14.171973600,5.6179736328125,0.4707229137420654,1.3026123046875,1.0859771966934204
2024-12-07 20:07:14.181986600,5.627986572265625,0.4954988360404968,1.1790555715560913,1.0173707008361816
2024-12-07 20:07:14.192000500,5.63800048828125,0.4799336194992065,0.8759262561798096,0.8093822002410889
2024-12-07 20:07:14.202014700,5.6480146484375,0.4458898901939392,0.5798647999763489,0.561453104019165
2024-12-07 20:07:14.212027600,5.658027587890625,0.4189434349536896,0.3757813572883606,0.4425126612186432
2024-12-07 20:07:14.222041600,5.66804150390625,0.4116066992282867,0.2561827898025512,0.4772631824016571
2024-12-07 20:07:14.232055600,5.6780556640625,0.4252447485923767,0.1985571533441543,0.5434658527374268
2024-12-07 20:07:14.242068500,5.688068359375,0.4415802955627441,0.1909354627132415,0.5761058330535889
2024-12-07 20:07:14.252082700,5.698082763671875,0.4507033824920654,0.1836935877799987,0.5735954642295837
2024-12-07 20:07:14.262096600,5.7080966796875,0.4506527781486511,0.1726217567920684,0.5450849533081055
2024-12-07 20:07:14.272110600,5.718110595703125,0.460303246974945,0.1915344446897506,0.511130154132843
2024-12-07 20:07:14.282123500,5.72812353515625,0.4819400906562805,0.2405720353126526,0.4952942430973053
2024-12-07 20:07:14.292137700,5.7381376953125,0.5248546600341797,0.2911271750926971,0.4856830835342407
2024-12-07 20:07:14.302151700,5.748151611328125,0.5863654017448425,0.2978838682174682,0.4745127260684967
2024-12-07 20:07:14.312164600,5.75816455078125,0.6526421904563904,0.1966229230165481,0.4442177414894104
2024-12-07 20:07:14.322178600,5.768178466796875,0.711936891078949,-0.0126418713480234,0.3967032432556152
2024-12-07 20:07:14.332192800,5.77819287109375,0.7767974138259888,-0.2130679190158844,0.3690753281116485
2024-12-07 20:07:14.342205400,5.788205322265625,0.8272920250892639,-0.3631879091262817,0.368929922580719
2024-12-07 20:07:14.352219600,5.7982197265625,0.8367976546287537,-0.4814861714839935,0.3704613745212555
2024-12-07 20:07:14.362233600,5.808233642578125,0.7986323833465576,-0.5712788701057434,0.3575333058834076
2024-12-07 20:07:14.372246800,5.818246826171875,0.7309714555740356,-0.6336990594863892,0.3348039388656616
2024-12-07 20:07:14.382260500,5.828260498046875,0.6751121878623962,-0.5850726366043091,0.3248695433139801
2024-12-07 20:07:14.392274700,5.838274658203125,0.6525381803512573,-0.4474603831768036,0.3173617720603943
2024-12-07 20:07:14.402287600,5.84828759765625,0.6424304246902466,-0.3019956052303314,0.2979814112186432
2024-12-07 20:07:14.412301600,5.858301513671875,0.6466909646987915,-0.2314882427453994,0.2691575884819031
2024-12-07 20:07:14.422315500,5.8683154296875,0.6460355520248413,-0.2996603548526764,0.2152994126081466
2024-12-07 20:07:14.432328700,5.87832861328125,0.6425150632858276,-0.4516661465167999,0.1493425071239471
2024-12-07 20:07:14.442342400,5.88834228515625,0.6408412456512451,-0.6258811354637146,0.0730991289019584
2024-12-07 20:07:14.452356000,5.898356201171875,0.6263213157653809,-0.7944826483726501,0.0132214296609163
2024-12-07 20:07:14.462369300,5.908369384765625,0.5913258194923401,-0.9395303726196288,0.00069285556674
2024-12-07 20:07:14.472383000,5.918383056640625,0.5205594301223755,-1.009626030921936,0.0091698300093412
2024-12-07 20:07:14.482397200,5.928397216796875,0.4100209772586822,-1.0393543243408203,-0.0127288121730089
2024-12-07 20:07:14.492411100,5.9384111328125,0.3038058876991272,-1.1588733196258545,-0.1022493094205856
2024-12-07 20:07:14.502424300,5.94842431640625,0.2213389724493026,-1.268084168434143,-0.2349404990673065
2024-12-07 20:07:14.512438000,5.95843798828125,0.1745527982711792,-1.2193503379821775,-0.336858332157135
2024-12-07 20:07:14.522452200,5.9684521484375,0.1757682710886001,-1.0526180267333984,-0.361100822687149
2024-12-07 20:07:14.532465200,5.978465087890625,0.19842229783535,-0.9135820269584656,-0.3187842667102813
2024-12-07 20:07:14.542479000,5.98847900390625,0.2061345428228378,-0.8018531203269958,-0.1898297667503357
2024-12-07 20:07:14.552493000,5.9984931640625,0.1631069779396057,-0.6670376062393188,-0.0195498522371053
2024-12-07 20:07:14.562506200,6.00850634765625,0.0993575677275657,-0.4502743780612945,0.1011241003870964
2024-12-07 20:07:14.572520000,6.01852001953125,0.0937292352318763,-0.1896253228187561,0.1068097874522209
2024-12-07 20:07:14.582534100,6.0285341796875,0.1722615957260131,0.0424947366118431,0.0869316831231117
2024-12-07 20:07:14.592547000,6.038547119140625,0.2535896897315979,0.1433292925357818,0.0531627088785171
2024-12-07 20:07:14.602561300,6.048561279296875,0.2684589028358459,0.1631663888692855,-0.0173538029193878
2024-12-07 20:07:14.612575000,6.058574951171875,0.2615983486175537,0.1208226531744003,-0.0672534480690956
2024-12-07 20:07:14.622588200,6.068588134765625,0.241103708744049,0.0070300395600497,-0.094597190618515
2024-12-07 20:07:14.632602000,6.07860205078125,0.2007127851247787,-0.1948878467082977,-0.1636815071105957
2024-12-07 20:07:14.642616000,6.088615966796875,0.154850497841835,-0.4143834412097931,-0.2719075977802276
2024-12-07 20:07:14.652629200,6.098629150390625,0.10540521889925,-0.6007475852966309,-0.3201871216297149
2024-12-07 20:07:14.662643200,6.108643310546875,0.0448699705302715,-0.6837447285652161,-0.2808564901351928
2024-12-07 20:07:14.672657000,6.118656982421875,-0.0208367481827735,-0.6609737277030945,-0.2231259793043136
2024-12-07 20:07:14.682670000,6.128670166015625,-0.0916992053389549,-0.5858557820320129,-0.1896830797195434
2024-12-07 20:07:14.692684300,6.138684326171875,-0.1601208299398422,-0.540493369102478,-0.2039350122213363
2024-12-07 20:07:14.702698200,6.1486982421875,-0.2130676656961441,-0.521307647228241,-0.2494210004806518
2024-12-07 20:07:14.712711200,6.158711181640625,-0.2428438812494278,-0.5665389895439148,-0.3181673884391784
2024-12-07 20:07:14.722725000,6.16872509765625,-0.2597344517707824,-0.6248489022254944,-0.3839293420314789
2024-12-07 20:07:14.732739300,6.1787392578125,-0.2485467791557312,-0.6795985102653503,-0.4330978691577911
2024-12-07 20:07:14.742752000,6.188751953125,-0.1808167397975921,-0.6851549744606018,-0.4499663114547729
2024-12-07 20:07:14.752766200,6.19876611328125,-0.0288180876523256,-0.5596346259117126,-0.3558267951011657
2024-12-07 20:07:14.762780200,6.2087802734375,0.1648935824632644,-0.3904346227645874,-0.2388165444135666
2024-12-07 20:07:14.772794400,6.21879443359375,0.2662326991558075,-0.3131362497806549,-0.2230086922645568
2024-12-07 20:07:14.782807000,6.22880712890625,0.2195528149604797,-0.3866989016532898,-0.2577538788318634
2024-12-07 20:07:14.792821200,6.2388212890625,0.0915043130517005,-0.5767748951911926,-0.2181685864925384
2024-12-07 20:07:14.802835200,6.248835205078125,-0.0878031253814697,-0.74605393409729,-0.137616753578186
2024-12-07 20:07:14.812848000,6.25884814453125,-0.2874306440353393,-0.7716922760009766,-0.1566431224346161
2024-12-07 20:07:14.822862000,6.268862060546875,-0.4709503948688507,-0.4852604866027832,-0.2684024274349212
2024-12-07 20:07:14.832876300,6.278876220703125,-0.6357148289680481,-0.0356227345764637,-0.3720590472221374
2024-12-07 20:07:14.842889000,6.288888916015625,-0.7009792923927307,0.2482779622077942,-0.4247829616069793
2024-12-07 20:07:14.852903200,6.298903076171875,-0.6575128436088562,0.3863825500011444,-0.4588583707809448
2024-12-07 20:07:14.862917000,6.308917236328125,-0.5533483624458313,0.5053541660308838,-0.4839360415935516
2024-12-07 20:07:14.872930000,6.318929931640625,-0.4430860579013824,0.5931835174560547,-0.4926492273807525
2024-12-07 20:07:14.882944000,6.328944091796875,-0.3560041487216949,0.593388020992279,-0.4984213411808014
2024-12-07 20:07:14.892958200,6.338958251953125,-0.2876828014850616,0.5046696662902832,-0.4993351697921753
2024-12-07 20:07:14.902971100,6.34897119140625,-0.2384007275104522,0.3835635185241699,-0.4673468470573425
2024-12-07 20:07:14.912985000,6.358985107421875,-0.2278802841901779,0.246888980269432,-0.4067476391792297
2024-12-07 20:07:14.922999000,6.3689990234375,-0.2413833141326904,0.0924674421548843,-0.3555811047554016
2024-12-07 20:07:14.933012200,6.37901220703125,-0.2604243159294128,-0.0216411668807268,-0.3529841005802154
2024-12-07 20:07:14.943026200,6.389026123046875,-0.2689203321933746,-0.0806115418672561,-0.380847692489624
2024-12-07 20:07:14.953040100,6.3990400390625,-0.2643700838088989,-0.1264084130525589,-0.3998892307281494
2024-12-07 20:07:14.963053300,6.40905322265625,-0.2540159821510315,-0.1322902739048004,-0.4024362862110138
2024-12-07 20:07:14.973067000,6.41906689453125,-0.2511454224586487,-0.117995835840702,-0.3878082633018493
2024-12-07 20:07:14.983081200,6.429081298828125,-0.2630550861358642,-0.1201077178120613,-0.3824619650840759
2024-12-07 20:07:14.993094100,6.43909423828125,-0.2925184071063995,-0.1270067989826202,-0.3789701163768768
2024-12-07 20:07:15.003108000,6.449108154296875,-0.3251900672912597,-0.1435447633266449,-0.3667304813861847
2024-12-07 20:07:15.013122000,6.4591220703125,-0.352644681930542,-0.17324960231781,-0.3588305711746216
2024-12-07 20:07:15.023136300,6.46913623046875,-0.3569004237651825,-0.2258640825748443,-0.3676919639110565
2024-12-07 20:07:15.033149200,6.479149169921875,-0.3375816345214844,-0.2679155766963959,-0.4000049829483032
2024-12-07 20:07:15.043163100,6.4891630859375,-0.3150883018970489,-0.2840226590633392,-0.4257721304893493
2024-12-07 20:07:15.053177000,6.499177001953125,-0.3080131411552429,-0.2693089544773102,-0.434128850698471
2024-12-07 20:07:15.063190300,6.509190185546875,-0.3154564201831817,-0.2411510944366455,-0.407348096370697
2024-12-07 20:07:15.073204000,6.519203857421875,-0.325295478105545,-0.1832546591758728,-0.360332190990448
2024-12-07 20:07:15.083218200,6.52921826171875,-0.330716073513031,-0.1353918015956878,-0.3127103447914123
2024-12-07 20:07:15.093231000,6.539231201171875,-0.3464288115501404,-0.1015078127384185,-0.2873640358448028
2024-12-07 20:07:15.103245000,6.5492451171875,-0.3578548431396484,-0.0784501656889915,-0.2791053056716919
2024-12-07 20:07:15.113259000,6.559259033203125,-0.3636576533317566,-0.0526374913752079,-0.2782858610153198
2024-12-07 20:07:15.123272200,6.569272216796875,-0.3589417338371277,-0.0257739201188087,-0.2792118489742279
2024-12-07 20:07:15.133286100,6.5792861328125,-0.3492405414581299,-0.0089959604665637,-0.2834915816783905
2024-12-07 20:07:15.143300000,6.589300048828125,-0.3359561562538147,0.0130731230601668,-0.2951812446117401
2024-12-07 20:07:15.153313300,6.599313232421875,-0.3131572008132934,0.0216046180576086,-0.29360231757164
2024-12-07 20:07:15.163327200,6.6093271484375,-0.2876566350460052,0.0123437428846955,-0.2817009091377258
2024-12-07 20:07:15.173341000,6.6193408203125,-0.2511276602745056,-0.016650091856718,-0.2676149308681488
2024-12-07 20:07:15.183354000,6.62935400390625,-0.2045670747756958,-0.0405085533857345,-0.2468318939208984
2024-12-07 20:07:15.193368300,6.639368408203125,-0.1551574468612671,-0.1095798090100288,-0.1861274987459182
2024-12-07 20:07:15.203382000,6.649382080078125,-0.1089145839214325,-0.2229108959436416,-0.1104572340846061
2024-12-07 20:07:15.213395200,6.659395263671875,-0.0801383778452873,-0.2570460736751556,-0.0823282524943351
2024-12-07 20:07:15.223409200,6.6694091796875,-0.0643405020236969,-0.1944698095321655,-0.0998233631253242
2024-12-07 20:07:15.233423400,6.67942333984375,-0.0502961724996566,-0.0947991237044334,-0.1039882972836494
2024-12-07 20:07:15.243437000,6.68943701171875,-0.0221225917339324,0.0042936420068144,-0.08491101115942
2024-12-07 20:07:15.253450200,6.6994501953125,0.0021422570571303,0.0779934823513031,-0.0638918131589889
2024-12-07 20:07:15.263464200,6.709464111328125,-0.0004300901200622,0.1273621022701263,-0.054539855569601
2024-12-07 20:07:15.273478100,6.71947802734375,-0.0222360268235206,0.1511707454919815,-0.0620467402040958
2024-12-07 20:07:15.283491000,6.729490966796875,-0.047231126576662,0.1484649777412414,-0.0834100842475891
2024-12-07 20:07:15.293505300,6.73950537109375,-0.067358024418354,0.1058143824338913,-0.1069028228521347
2024-12-07 20:07:15.303519200,6.749519287109375,-0.084409974515438,0.0230081789195537,-0.1341450959444046
2024-12-07 20:07:15.313532200,6.7595322265625,-0.0888958647847175,-0.0515770204365253,-0.1738302707672119
2024-12-07 20:07:15.323546000,6.769546142578125,-0.0916082933545112,-0.0729459598660469,-0.2140282988548278
2024-12-07 20:07:15.333560300,6.779560302734375,-0.0893405005335807,-0.0611523725092411,-0.2394607365131378
2024-12-07 20:07:15.343573000,6.789572998046875,-0.081054612994194,-0.0142525071278214,-0.2501453161239624
2024-12-07 20:07:15.353587200,6.799587158203125,-0.065277449786663,0.069212406873703,-0.2560462355613708
2024-12-07 20:07:15.363601200,6.80960107421875,-0.049088355153799,0.187172070145607,-0.2681497633457184
2024-12-07 20:07:15.373614000,6.819614013671875,-0.0376808196306228,0.3041153848171234,-0.2856255769729614
2024-12-07 20:07:15.383628000,6.8296279296875,-0.0323859229683876,0.3668285608291626,-0.2669437825679779
2024-12-07 20:07:15.393642200,6.839642333984375,-0.0098990919068455,0.3794770240783691,-0.2176956087350845
2024-12-07 20:07:15.403655200,6.8496552734375,0.0245161391794681,0.3735246062278747,-0.1673674583435058
2024-12-07 20:07:15.413669000,6.859669189453125,0.054709393531084,0.3883976936340332,-0.1377383470535278
2024-12-07 20:07:15.423683000,6.86968310546875,0.0735414028167724,0.4053401947021484,-0.1067362204194068
2024-12-07 20:07:15.433697300,6.879697265625,0.0858436822891235,0.4284375011920929,-0.0587843470275402
2024-12-07 20:07:15.443710200,6.889710205078125,0.0842085033655166,0.4594598710536957,-0.0071288752369582
2024-12-07 20:07:15.453724200,6.89972412109375,0.0803145095705986,0.47325000166893,0.0113310124725103
2024-12-07 20:07:15.463738000,6.909738037109375,0.0629525631666183,0.4585429728031158,-0.0083691887557506
2024-12-07 20:07:15.473751000,6.9197509765625,0.0465422719717025,0.4274161159992218,-0.0662909597158432
2024-12-07 20:07:15.483765200,6.92976513671875,0.0295640882104635,0.4475269913673401,-0.164128303527832
2024-12-07 20:07:15.493779200,6.939779296875,-0.0114879384636878,0.514305055141449,-0.2615098357200622
2024-12-07 20:07:15.503792400,6.94979248046875,-0.0535184778273105,0.5835787057876587,-0.3084720373153686
2024-12-07 20:07:15.513806000,6.95980615234375,-0.1005936935544014,0.6331998705863953,-0.3162552416324615
2024-12-07 20:07:15.523820300,6.9698203125,-0.1477175205945968,0.6342246532440186,-0.2967014908790588
2024-12-07 20:07:15.533833200,6.979833251953125,-0.1966403722763061,0.6121034622192383,-0.2807897329330444
2024-12-07 20:07:15.543847200,6.98984716796875,-0.2430944293737411,0.5965732932090759,-0.2800387144088745
2024-12-07 20:07:15.553861000,6.999861083984375,-0.2822334170341491,0.5893660187721252,-0.2796947658061981
2024-12-07 20:07:15.563874300,7.009874267578125,-0.3030377626419067,0.5666266679763794,-0.264239102602005
2024-12-07 20:07:15.573888000,7.019887939453125,-0.3003986179828644,0.5472633242607117,-0.2375363558530807
2024-12-07 20:07:15.583902200,7.029902099609375,-0.2791580557823181,0.5339464545249939,-0.2077329158782959
2024-12-07 20:07:15.593915100,7.0399150390625,-0.2465526014566421,0.560509443283081,-0.1770853698253631
2024-12-07 20:07:15.603929300,7.049929443359375,-0.2286537587642669,0.6281620264053345,-0.1474726200103759
2024-12-07 20:07:15.613943000,7.059943115234375,-0.2104484885931015,0.7025490403175354,-0.1217564716935157
2024-12-07 20:07:15.623956200,7.069956298828125,-0.1994043588638305,0.726414680480957,-0.1045702993869781
2024-12-07 20:07:15.633970200,7.07997021484375,-0.2072926461696624,0.6938023567199707,-0.0596927739679813
2024-12-07 20:07:15.643984100,7.089984130859375,-0.2370934188365936,0.6396315693855286,-0.0163841862231493
2024-12-07 20:07:15.653998000,7.099998046875,-0.2617254257202148,0.6059804558753967,0.0050165965221822
2024-12-07 20:07:15.664011300,7.11001123046875,-0.28752002120018,0.5849002003669739,0.043071836233139
2024-12-07 20:07:15.674025000,7.12002490234375,-0.2950774729251861,0.5361525416374207,0.1507038623094558
2024-12-07 20:07:15.684039200,7.1300390625,-0.257168710231781,0.4382209181785583,0.3032406568527221
2024-12-07 20:07:15.694052000,7.140052001953125,-0.1656126528978347,0.2903235852718353,0.4438350796699524
2024-12-07 20:07:15.704066300,7.15006640625,-0.0096169309690594,0.0954915210604667,0.5349210500717163
2024-12-07 20:07:15.714080000,7.160080078125,0.1847780793905258,-0.0546591840684413,0.6001262068748474
2024-12-07 20:07:15.724093200,7.17009326171875,0.3831225931644439,0.0274085197597742,0.639388918876648
2024-12-07 20:07:15.734107100,7.180107177734375,0.5785514712333679,0.4519228339195251,0.6620657444000244
2024-12-07 20:07:15.744121000,7.19012109375,0.7333554029464722,0.9372482895851136,0.7708079218864441
2024-12-07 20:07:15.754134300,7.20013427734375,0.8322239518165588,1.048979640007019,1.0153768062591553
2024-12-07 20:07:15.764148200,7.210148193359375,0.8925336003303528,0.7251152992248535,1.2720102071762085
2024-12-07 20:07:15.774162200,7.220162109375,0.8987997174263,0.1903693974018097,1.4348417520523071
2024-12-07 20:07:15.784175000,7.230175048828125,0.8450955152511597,-0.2784819602966308,1.4763354063034058
2024-12-07 20:07:15.794189300,7.240189208984375,0.7525317668914795,-0.5210579037666321,1.4156194925308228
2024-12-07 20:07:15.804203300,7.250203369140625,0.6541191339492798,-0.493207573890686,1.2833480834960938
2024-12-07 20:07:15.814216200,7.26021630859375,0.5960178971290588,-0.2253294885158538,1.0998761653900146
2024-12-07 20:07:15.824230100,7.270230224609375,0.6026526093482971,0.2262960225343704,0.915227472782135
2024-12-07 20:07:15.834244400,7.280244384765625,0.6372175812721252,0.7178490161895752,0.7918292880058289
2024-12-07 20:07:15.844257000,7.290257080078125,0.6423047184944153,1.0859612226486206,0.7444359660148621
2024-12-07 20:07:15.854271200,7.300271240234375,0.6341829299926758,1.2825275659561155,0.7164466977119446
2024-12-07 20:07:15.864285200,7.31028515625,0.6392056345939636,1.344026803970337,0.6606622934341431
2024-12-07 20:07:15.874299400,7.32029931640625,0.6607264876365662,1.3357528448104858,0.5998566746711731
2024-12-07 20:07:15.884312000,7.33031201171875,0.673969566822052,1.2734966278076172,0.5567184686660767
2024-12-07 20:07:15.894326300,7.340326171875,0.6759245991706848,1.1222182512283323,0.5666818022727966
2024-12-07 20:07:15.904340200,7.35034033203125,0.6647017598152161,0.8048455715179443,0.6283584833145142
2024-12-07 20:07:15.914353200,7.360353271484375,0.6505810618400574,0.4310713112354278,0.6839185357093811
2024-12-07 20:07:15.924367000,7.3703671875,0.6667629480361938,0.1102639809250831,0.6763996481895447
2024-12-07 20:07:15.934381300,7.38038134765625,0.72990882396698,-0.107859157025814,0.608184278011322
2024-12-07 20:07:15.944394000,7.39039404296875,0.8002735376358032,-0.2357047349214553,0.5362072587013245
2024-12-07 20:07:15.954408200,7.400408203125,0.8443796038627625,-0.3612259924411773,0.4779739379882812
2024-12-07 20:07:15.964422100,7.410422119140625,0.8504553437232971,-0.5515264868736267,0.412086009979248
2024-12-07 20:07:15.974435000,7.42043505859375,0.8103842735290527,-0.7619007229804993,0.3272259533405304
2024-12-07 20:07:15.984449000,7.430448974609375,0.7402118444442749,-0.943186581134796,0.2394758462905883
2024-12-07 20:07:15.994463200,7.440463134765625,0.637093722820282,-1.0470688343048096,0.1592787802219391
2024-12-07 20:07:16.004476200,7.45047607421875,0.5220997929573059,-1.0241923332214355,0.1324953734874725
2024-12-07 20:07:16.014490000,7.460489990234375,0.4068746864795685,-0.9002894163131714,0.1587580293416977
2024-12-07 20:07:16.024504000,7.470504150390625,0.3094703555107116,-0.7327129244804382,0.2009512931108474
2024-12-07 20:07:16.034517200,7.480517333984375,0.2446814775466919,-0.5860632658004761,0.1925007849931717
2024-12-07 20:07:16.044531200,7.49053125,0.2257432043552398,-0.4237755537033081,0.0621963068842887
2024-12-07 20:07:16.054545200,7.500545166015625,0.2463730126619339,-0.1878187358379364,-0.0965365692973136
2024-12-07 20:07:16.064559000,7.51055908203125,0.2986005246639251,0.1072459295392036,-0.161137118935585
2024-12-07 20:07:16.074572000,7.520572021484375,0.3683288991451263,0.3805224895477295,-0.1174429357051849
2024-12-07 20:07:16.084586200,7.530586181640625,0.4146236777305603,0.4479084312915802,0.0099906558170914
2024-12-07 20:07:16.094600200,7.54060009765625,0.3766299188137054,0.1700471043586731,0.1021023839712143
2024-12-07 20:07:16.104613000,7.550613037109375,0.2778226435184479,-0.3707295954227447,0.0608755834400653
2024-12-07 20:07:16.114627000,7.560626953125,0.1902981102466583,-0.9388217329978944,-0.0521706156432628
2024-12-07 20:07:16.124641300,7.570641357421875,0.1237339973449707,-1.194528579711914,-0.1616627424955368
2024-12-07 20:07:16.134654200,7.580654296875,0.0988115519285202,-1.1133763790130615,-0.2251653224229812
2024-12-07 20:07:16.144668200,7.590668212890625,0.1267297267913818,-0.8870040774345398,-0.2080411911010742
2024-12-07 20:07:16.154682000,7.60068212890625,0.1674981713294983,-0.6764808297157288,-0.1851641684770584
2024-12-07 20:07:16.164695300,7.6106953125,0.1404795944690704,-0.5565506815910339,-0.1954937726259231
2024-12-07 20:07:16.174709000,7.620708984375,0.0367150157690048,-0.5075497031211853,-0.2176146507263183
2024-12-07 20:07:16.184723200,7.63072314453125,-0.0933713465929031,-0.5430606007575989,-0.2350650131702423
2024-12-07 20:07:16.194736000,7.640736083984375,-0.2173584848642349,-0.6059275269508362,-0.2846913039684295
2024-12-07 20:07:16.204750000,7.65075,-0.3324275612831116,-0.6527286171913147,-0.3846501111984253
2024-12-07 20:07:16.214764000,7.660763916015625,-0.4155809581279754,-0.7094091176986694,-0.5096419453620911
2024-12-07 20:07:16.224777200,7.670777099609375,-0.4302938580513,-0.747545063495636,-0.6136320233345032
2024-12-07 20:07:16.234791200,7.680791259765625,-0.3590722680091858,-0.7459046840667725,-0.6773525476455688
2024-12-07 20:07:16.244805000,7.69080517578125,-0.1632327139377594,-0.609506368637085,-0.6484231352806091
2024-12-07 20:07:16.254819000,7.700819091796875,0.177839383482933,-0.335999459028244,-0.485697329044342
2024-12-07 20:07:16.264832300,7.710832275390625,0.5520864725112915,-0.2343383431434631,-0.3166483640670776
2024-12-07 20:07:16.274846000,7.720845947265625,0.714050829410553,-0.2577947974205017,-0.2672668397426605
2024-12-07 20:07:16.284860200,7.730860107421875,0.4036355018615722,-0.3485766351222992,-0.2517896294593811
2024-12-07 20:07:16.294873300,7.740873291015625,-0.0286730118095874,-0.4170688986778259,-0.2091270834207534
2024-12-07 20:07:16.304887000,7.750886962890625,-0.3166651129722595,-0.4263787865638733,-0.1951931565999984
2024-12-07 20:07:16.314901000,7.76090087890625,-0.4994703829288482,-0.3171969652175903,-0.221107006072998
2024-12-07 20:07:16.324914200,7.7709140625,-0.6390900611877441,-0.1180920973420143,-0.2512577474117279
2024-12-07 20:07:16.334928400,7.780928466796875,-0.7765827178955078,-0.0381440371274948,-0.3076988458633423
2024-12-07 20:07:16.344942000,7.790942138671875,-0.8804050087928772,-0.07469192892313,-0.4020810127258301
2024-12-07 20:07:16.354955300,7.800955322265625,-0.8712267279624939,-0.1587156653404235,-0.4784165918827057
2024-12-07 20:07:16.364969200,7.81096923828125,-0.7389613389968872,-0.1090341284871101,-0.5083694458007812
2024-12-07 20:07:16.374983200,7.820983154296875,-0.5429690480232239,0.1346595883369445,-0.5100089907646179
2024-12-07 20:07:16.384996000,7.83099609375,-0.3437220454216003,0.3645590841770172,-0.5163201689720154
2024-12-07 20:07:16.395010300,7.84101025390625,-0.2219295352697372,0.3274012207984924,-0.531404972076416
2024-12-07 20:07:16.405024300,7.851024169921875,-0.2098864465951919,0.0739679038524627,-0.5270336866378784
2024-12-07 20:07:16.415037200,7.861037109375,-0.2087043821811676,-0.1829235404729843,-0.4944860935211181
2024-12-07 20:07:16.425051100,7.871051025390625,-0.1896508038043975,-0.2922729253768921,-0.4659130573272705
2024-12-07 20:07:16.435065300,7.8810654296875,-0.1867989748716354,-0.249516412615776,-0.454483300447464
2024-12-07 20:07:16.445078000,7.891078125,-0.1790217459201812,-0.1606416702270507,-0.4300954043865204
2024-12-07 20:07:16.455093500,7.901093505859375,-0.1744861304759979,-0.1183438003063201,-0.3689361214637756
2024-12-07 20:07:16.465107200,7.911107177734375,-0.1913628429174423,-0.1114773675799369,-0.2932645380496979
2024-12-07 20:07:16.475121200,7.92112109375,-0.218499481678009,-0.1076066792011261,-0.2191424220800399
2024-12-07 20:07:16.485134300,7.93113427734375,-0.2485508620738983,-0.0864185690879821,-0.1522600650787353
2024-12-07 20:07:16.495148300,7.941148193359375,-0.2710224092006683,-0.0485114715993404,-0.1261671334505081
2024-12-07 20:07:16.505162200,7.951162353515625,-0.2773655354976654,-0.0307117011398077,-0.1611506938934326
2024-12-07 20:07:16.515175400,7.961175537109375,-0.266987144947052,-0.0224493313580751,-0.2058773189783096
2024-12-07 20:07:16.525189400,7.971189453125,-0.247171089053154,-0.0224589202553033,-0.2355044484138488
2024-12-07 20:07:16.535203300,7.981203369140625,-0.2161392420530319,-0.012906102463603,-0.2603632509708404
2024-12-07 20:07:16.545216300,7.99121630859375,-0.1782493740320205,-0.0036446941085159,-0.2673622965812683
2024-12-07 20:07:16.555230500,8.00123046875,-0.1435069143772125,-0.0077079962939023,-0.2579002380371094
2024-12-07 20:07:16.565244200,8.011244140625,-0.1339845061302185,0.0210674591362476,-0.2341917306184768
2024-12-07 20:07:16.575257300,8.02125732421875,-0.1436340361833572,0.0885305479168891,-0.1901991218328476
2024-12-07 20:07:16.585271300,8.031271240234375,-0.1520469635725021,0.1366067379713058,-0.1455272585153579
2024-12-07 20:07:16.595285500,8.041285400390626,-0.1596901267766952,0.1332559436559677,-0.1214427128434181
2024-12-07 20:07:16.605298200,8.051298095703125,-0.1671437919139862,0.0965786278247833,-0.1162516772747039
2024-12-07 20:07:16.615312400,8.0613125,-0.1766026318073272,0.0525449141860008,-0.1451747268438339
2024-12-07 20:07:16.625326300,8.071326416015625,-0.1767232865095138,0.0404102206230163,-0.1803614795207977
2024-12-07 20:07:16.635340300,8.08134033203125,-0.1786461472511291,0.0380185693502426,-0.2000977545976638
2024-12-07 20:07:16.645353200,8.091353271484374,-0.1631084531545639,0.0150237698107957,-0.2074802964925766
2024-12-07 20:07:16.655367400,8.101367431640625,-0.135760560631752,-0.0175096560269594,-0.2199566960334777
2024-12-07 20:07:16.665381000,8.111381103515624,-0.1096488013863563,-0.0586765371263027,-0.2376866787672042
2024-12-07 20:07:16.675394300,8.121394287109375,-0.0930131003260612,-0.0871318727731704,-0.2470080256462097
2024-12-07 20:07:16.685408300,8.131408203125,-0.0843887254595756,-0.1080342307686805,-0.2519769370555877
2024-12-07 20:07:16.695422500,8.14142236328125,-0.0791909247636795,-0.1287639588117599,-0.2380598485469818
2024-12-07 20:07:16.705435400,8.151435302734376,-0.0805946737527847,-0.1462343037128448,-0.2018115669488906
2024-12-07 20:07:16.715449300,8.161449462890625,-0.0787871479988098,-0.1734600365161895,-0.1521111577749252
2024-12-07 20:07:16.725463300,8.17146337890625,-0.065038576722145,-0.1866613179445266,-0.1098145693540573
2024-12-07 20:07:16.735476200,8.181476318359374,-0.0443226285278797,-0.1402883380651474,-0.0964128822088241
2024-12-07 20:07:16.745490400,8.191490478515625,-0.0361347422003746,-0.0392541475594043,-0.0887174010276794
2024-12-07 20:07:16.755504400,8.20150439453125,-0.0375581458210945,0.0751270949840545,-0.0762730538845062
2024-12-07 20:07:16.765517300,8.211517333984375,-0.0428450554609298,0.2124524712562561,-0.0826151072978973
2024-12-07 20:07:16.775531300,8.22153125,-0.0537865906953811,0.3666282892227173,-0.1096130162477493
2024-12-07 20:07:16.785545500,8.23154541015625,-0.0629864782094955,0.440241277217865,-0.0730960145592689
2024-12-07 20:07:16.795559400,8.241559326171876,-0.0590561442077159,0.4070145189762115,0.0112325083464384
2024-12-07 20:07:16.805572400,8.251572265625,-0.0371005125343799,0.3910768330097198,0.0496621876955032
2024-12-07 20:07:16.815586300,8.26158642578125,-0.0232527069747447,0.3852235674858093,0.0487606562674045
2024-12-07 20:07:16.825600500,8.2716005859375,-0.0118730198591947,0.3546563386917114,0.0245860759168863
2024-12-07 20:07:16.835613200,8.28161328125,0.0020878498908132,0.3381517827510834,-0.0122572984546422
2024-12-07 20:07:16.845627400,8.29162744140625,0.02203812263906,0.3426900804042816,-0.0486810877919197
2024-12-07 20:07:16.855641300,8.301641357421875,0.0527032576501369,0.3286681771278381,-0.0470585748553276
2024-12-07 20:07:16.865654300,8.311654296875,0.0899542272090911,0.3104255199432373,-0.0155381988734006
2024-12-07 20:07:16.875668200,8.321668212890625,0.1211294382810592,0.3085735142230987,0.0320136398077011
2024-12-07 20:07:16.885682400,8.331682373046876,0.1295160055160522,0.3619616329669952,0.0869775563478469
2024-12-07 20:07:16.895695000,8.341695068359375,0.116895280778408,0.4015567004680633,0.1354004740715026
2024-12-07 20:07:16.905709300,8.351709228515626,0.0972049310803413,0.4040440917015075,0.1565196067094802
2024-12-07 20:07:16.915723300,8.36172314453125,0.0702153965830802,0.4139541387557983,0.1253663152456283
2024-12-07 20:07:16.925736200,8.371736083984375,0.0239925049245357,0.4408038854598999,0.0723718181252479
2024-12-07 20:07:16.935750100,8.381750244140624,-0.0249739084392786,0.4780464470386505,0.0005904627032577
2024-12-07 20:07:16.945764400,8.391764404296875,-0.0757936760783195,0.5461703538894653,-0.0728075951337814
2024-12-07 20:07:16.955778300,8.4017783203125,-0.106193408370018,0.6402502059936523,-0.1238385140895843
2024-12-07 20:07:16.965791200,8.411791259765625,-0.1121248006820678,0.7239195704460144,-0.1520126312971115
2024-12-07 20:07:16.975805200,8.42180517578125,-0.1032849103212356,0.7668794989585876,-0.1675479114055633
2024-12-07 20:07:16.985819400,8.4318193359375,-0.0875711888074874,0.7876766920089722,-0.176761120557785
2024-12-07 20:07:16.995832300,8.441832275390626,-0.0883654579520225,0.7195117473602295,-0.1389828026294708
2024-12-07 20:07:17.005846300,8.45184619140625,-0.1008050814270973,0.5823911428451538,-0.0770083889365196
2024-12-07 20:07:17.015860200,8.461860107421876,-0.1164145618677139,0.4590610563755035,-0.064259149134159
2024-12-07 20:07:17.025873200,8.471873046875,-0.1478614509105682,0.3798296153545379,-0.1167548447847366
2024-12-07 20:07:17.035887400,8.481887451171875,-0.1932516545057296,0.3602614104747772,-0.1999180614948272
2024-12-07 20:07:17.045901300,8.4919013671875,-0.2307947725057602,0.4321528971195221,-0.2741624712944031
2024-12-07 20:07:17.055914500,8.50191455078125,-0.263333648443222,0.5418389439582825,-0.2968038916587829
2024-12-07 20:07:17.065928200,8.51192822265625,-0.279284656047821,0.6134102940559387,-0.2560172975063324
2024-12-07 20:07:17.075942400,8.5219423828125,-0.2936221659183502,0.6328417658805847,-0.1986181437969207
2024-12-07 20:07:17.085955300,8.531955322265626,-0.3243497014045715,0.5738554000854492,-0.1323206126689911
2024-12-07 20:07:17.095969300,8.54196923828125,-0.3868094980716705,0.4108035266399383,-0.061249516904354
2024-12-07 20:07:17.105983200,8.551983154296876,-0.4334920644760132,0.2701438665390014,-0.0205465611070394
2024-12-07 20:07:17.115997400,8.56199755859375,-0.4475206732749939,0.2457063794136047,-0.0501973405480384
2024-12-07 20:07:17.126010000,8.572010009765625,-0.4654006063938141,0.2859949767589569,-0.0914033651351928
2024-12-07 20:07:17.136024300,8.5820244140625,-0.4709945917129516,0.3098798990249634,-0.1070272028446197
2024-12-07 20:07:17.146038300,8.592038330078125,-0.4845852255821228,0.3435097634792328,-0.1418259292840957
2024-12-07 20:07:17.156051500,8.602051513671874,-0.5133046507835388,0.3583601713180542,-0.1857689321041107
2024-12-07 20:07:17.166065200,8.612065185546875,-0.5441762804985046,0.3548136353492737,-0.2394079267978668
2024-12-07 20:07:17.176079400,8.622079345703124,-0.5853018760681152,0.3244058191776275,-0.262992799282074
2024-12-07 20:07:17.186092300,8.63209228515625,-0.614769458770752,0.2743200063705444,-0.2219284474849701
2024-12-07 20:07:17.196106200,8.642106201171876,-0.5950765013694763,0.2259411811828613,-0.1414262950420379
2024-12-07 20:07:17.206120200,8.6521201171875,-0.5161681175231934,0.1327398717403412,-0.0500569753348827
2024-12-07 20:07:17.216133400,8.66213330078125,-0.3799075484275818,-0.0316591374576091,0.0121032819151878
2024-12-07 20:07:17.226147300,8.672147216796875,-0.1847140938043594,-0.1704889237880706,0.0078512793406844
2024-12-07 20:07:17.236161300,8.682161376953125,0.0103997504338622,-0.0679739639163017,-0.0888867452740669
2024-12-07 20:07:17.246174200,8.69217431640625,0.0816430374979972,0.3077562749385834,-0.1797383576631546
2024-12-07 20:07:17.256188400,8.7021884765625,0.0682185143232345,0.7374488115310669,-0.1571372300386428
2024-12-07 20:07:17.266202000,8.7122021484375,0.0273539032787084,1.026063323020935,-0.0345945432782173
2024-12-07 20:07:17.276216300,8.72221630859375,-0.0408698916435241,1.0787869691848757,0.1311518102884292
2024-12-07 20:07:17.286229200,8.732229248046876,-0.1239248290657997,0.9143876433372498,0.3019342124462127
2024-12-07 20:07:17.296243200,8.7422431640625,-0.1853905916213989,0.6395057439804077,0.4525868594646454
2024-12-07 20:07:17.306257200,8.752257080078126,-0.1776991188526153,0.3983205556869507,0.5641722083091736
2024-12-07 20:07:17.316270300,8.762270263671875,-0.133278340101242,0.3056189119815826,0.6294769048690796
2024-12-07 20:07:17.326284300,8.7722841796875,-0.0713417306542396,0.3886421620845794,0.6514343619346619
2024-12-07 20:07:17.336298200,8.78229833984375,0.0047745145857334,0.5072662830352783,0.6597130298614502
2024-12-07 20:07:17.346311400,8.7923115234375,0.0772588327527046,0.5433536767959595,0.726530134677887
2024-12-07 20:07:17.356325400,8.802325439453124,0.1198661029338836,0.4636617302894592,0.8409771919250488
2024-12-07 20:07:17.366339300,8.81233935546875,0.1355763673782348,0.3304013907909393,0.953946888446808
2024-12-07 20:07:17.376352300,8.822352294921876,0.1100455969572067,0.213276982307434,1.0194038152694702
2024-12-07 20:07:17.386366500,8.832366455078125,0.0652773231267929,0.0994071364402771,1.0152394771575928
2024-12-07 20:07:17.396380200,8.842380126953126,0.0289462674409151,-0.0265099760144948,0.9474883079528807
2024-12-07 20:07:17.406394400,8.852394287109375,0.0241645630449056,-0.1313221454620361,0.857292652130127
2024-12-07 20:07:17.416407300,8.8624072265625,0.0453422777354717,-0.1899817734956741,0.7910410165786743
2024-12-07 20:07:17.426421500,8.87242138671875,0.0865299254655838,-0.1571814715862274,0.7586678862571716
2024-12-07 20:07:17.436435200,8.882435302734375,0.1524914801120758,0.0065298797562718,0.7460864186286926
2024-12-07 20:07:17.446448400,8.892448486328124,0.246226504445076,0.2538459300994873,0.7180121541023254
2024-12-07 20:07:17.456461000,8.9024609375,0.3586891293525696,0.5329760909080505,0.651129424571991
2024-12-07 20:07:17.466475000,8.91247509765625,0.4623518586158752,0.7855308651924133,0.5369988679885864
2024-12-07 20:07:17.476488200,8.92248828125,0.517275869846344,0.9593493342399596,0.4197688698768616
2024-12-07 20:07:17.486502000,8.932501953125,0.5429831147193909,1.0579224824905396,0.3640787005424499
2024-12-07 20:07:17.496516000,8.94251611328125,0.573563277721405,1.063391089439392,0.3733004033565521
2024-12-07 20:07:17.506529000,8.952529052734375,0.6118619441986084,0.8918358683586121,0.4085350930690765
2024-12-07 20:07:17.516543000,8.96254296875,0.6530892848968506,0.5901965498924255,0.423195332288742
2024-12-07 20:07:17.526557000,8.972556884765625,0.6681616902351379,0.2963124811649322,0.4124305844306946
2024-12-07 20:07:17.536571100,8.982571044921874,0.6490277051925659,0.1301962286233902,0.386294275522232
2024-12-07 20:07:17.546583800,8.992583740234375,0.5850657820701599,0.0925434008240699,0.4206684827804565
2024-12-07 20:07:17.556598000,9.002597900390626,0.4976431131362915,0.0768599733710289,0.5716533064842224
2024-12-07 20:07:17.566612000,9.012612060546877,0.4021781086921692,-0.0438344851136207,0.635873019695282
2024-12-07 20:07:17.576625200,9.022625244140626,0.3121508359909057,-0.2838038206100464,0.5364611148834229
2024-12-07 20:07:17.586638800,9.032638916015625,0.2509737312793731,-0.4793115556240082,0.3906836807727813
2024-12-07 20:07:17.596653000,9.042653076171876,0.2316751182079315,-0.554944634437561,0.2877944409847259
2024-12-07 20:07:17.606666000,9.052666015625,0.2610862851142883,-0.654766321182251,0.2425737082958221
2024-12-07 20:07:17.616680000,9.062679931640623,0.3183533251285553,-0.8202496767044067,0.2286332845687866
2024-12-07 20:07:17.626694000,9.07269384765625,0.3609005212783813,-0.8586599230766296,0.2369130551815033
2024-12-07 20:07:17.636707000,9.08270703125,0.4028972089290619,-0.7376164197921753,0.2487804293632507
2024-12-07 20:07:17.646721000,9.092720947265626,0.4448683559894562,-0.5020387768745422,0.2630462050437927
2024-12-07 20:07:17.656735000,9.10273486328125,0.4743562042713165,-0.2167226672172546,0.2638789713382721
2024-12-07 20:07:17.666749000,9.1127490234375,0.5035719275474548,0.0304564926773309,0.2470741868019104
2024-12-07 20:07:17.676762000,9.12276220703125,0.5490714311599731,0.1577615886926651,0.2343939393758773
2024-12-07 20:07:17.686775800,9.13277587890625,0.5823820233345032,0.1270367056131363,0.2058927863836288
2024-12-07 20:07:17.696790000,9.1427900390625,0.5806517601013184,-0.0368608236312866,0.167304053902626
2024-12-07 20:07:17.706803200,9.15280322265625,0.5676997303962708,-0.2447932511568069,0.1339170783758163
2024-12-07 20:07:17.716817000,9.16281689453125,0.5481775403022766,-0.434925764799118,0.1520261466503143
2024-12-07 20:07:17.726830800,9.172830810546875,0.5070090889930725,-0.5688430666923523,0.2107131630182266
2024-12-07 20:07:17.736844000,9.182843994140624,0.4811505973339081,-0.6545554399490356,0.2297288328409195
2024-12-07 20:07:17.746858200,9.192858154296877,0.4811287522315979,-0.7057608366012573,0.1925503015518188
2024-12-07 20:07:17.756872000,9.202871826171876,0.5027491450309753,-0.7576047778129578,0.1125973016023635
2024-12-07 20:07:17.766885000,9.212885009765625,0.5431604981422424,-0.8338809013366699,0.0028178107459098
2024-12-07 20:07:17.776899000,9.222899169921876,0.5832228064537048,-0.8831253051757812,-0.0817911550402641
2024-12-07 20:07:17.786913000,9.2329130859375,0.6244863271713257,-0.8444051146507263,-0.1081215664744377
2024-12-07 20:07:17.796927000,9.242927001953126,0.6785504221916199,-0.7373591661453247,-0.0998542606830596
2024-12-07 20:07:17.806940200,9.252940185546874,0.7463697195053101,-0.6533074378967285,-0.0696758478879928
2024-12-07 20:07:17.816953900,9.262953857421875,0.8079754114151001,-0.7335167527198792,-0.0345743037760257
2024-12-07 20:07:17.826968000,9.272968017578124,0.8452609777450562,-0.9638354182243348,-0.0191285014152526
2024-12-07 20:07:17.836981000,9.28298095703125,0.8359286785125732,-1.208297610282898,-0.0124203171581029
2024-12-07 20:07:17.846995200,9.2929951171875,0.8001344203948975,-1.3150355815887451,0.0044199153780937
2024-12-07 20:07:17.857009000,9.3030087890625,0.7519093155860901,-1.3001726865768433,0.0125713981688022
2024-12-07 20:07:17.867022000,9.31302197265625,0.7042363286018372,-1.2518099546432495,-0.0045798914507031
2024-12-07 20:07:17.877036000,9.3230361328125,0.6500260829925537,-1.1737070083618164,-0.0257545597851276
2024-12-07 20:07:17.887050000,9.333050048828126,0.6014633774757385,-1.1097882986068726,-0.0427503213286399
2024-12-07 20:07:17.897063000,9.34306298828125,0.56724613904953,-1.0809024572372437,-0.0642256736755371
2024-12-07 20:07:17.907077000,9.3530771484375,0.5297973155975342,-1.0074235200881958,-0.1060607358813285
2024-12-07 20:07:17.917090800,9.3630908203125,0.4975026249885559,-0.8943526744842529,-0.1513457745313644
2024-12-07 20:07:17.927105000,9.37310498046875,0.4657476246356964,-0.8235911726951599,-0.1826150119304657
2024-12-07 20:07:17.937118000,9.383117919921874,0.4376108944416046,-0.7816951870918274,-0.1804138571023941
2024-12-07 20:07:17.947132200,9.393132080078123,0.4022164046764374,-0.7181044816970825,-0.1522258967161178
2024-12-07 20:07:17.957145900,9.403145751953126,0.3654073774814605,-0.7007868885993958,-0.1561853289604187
2024-12-07 20:07:17.967159000,9.413158935546877,0.3245350420475006,-0.7353312969207764,-0.1997043043375015
2024-12-07 20:07:17.977173000,9.423173095703126,0.2710828781127929,-0.7813841104507446,-0.2541894912719726
2024-12-07 20:07:17.987187000,9.43318701171875,0.2120192945003509,-0.7793023586273193,-0.2910553812980652
2024-12-07 20:07:17.997200100,9.4432001953125,0.1621643453836441,-0.7797589898109436,-0.2948110699653625
2024-12-07 20:07:18.007214000,9.453214111328125,0.1026317700743675,-0.7132830023765564,-0.2781641781330108
2024-12-07 20:07:18.017227800,9.463227783203124,0.0385563857853412,-0.6064225435256958,-0.2855321764945984
2024-12-07 20:07:18.027242000,9.473241943359374,-0.0178371146321296,-0.4895403683185577,-0.3575837314128876
2024-12-07 20:07:18.037255200,9.483255126953123,-0.0652776956558227,-0.3866759538650512,-0.460450530052185
2024-12-07 20:07:18.047269000,9.49326904296875,-0.1033800765872001,-0.2963391244411468,-0.5276985764503479
2024-12-07 20:07:18.057282800,9.50328271484375,-0.1345538794994354,-0.2231665253639221,-0.554721474647522
2024-12-07 20:07:18.067296000,9.5132958984375,-0.1642611622810363,-0.1747276335954666,-0.5731912851333618
2024-12-07 20:07:18.077310200,9.523310302734377,-0.1764602065086364,-0.1467298716306686,-0.6094073057174683
2024-12-07 20:07:18.087324000,9.533323974609376,-0.1544494479894638,-0.1296829879283905,-0.6641294360160828
2024-12-07 20:07:18.097337000,9.543337158203125,-0.0911909043788909,-0.202486515045166,-0.7427284717559814
2024-12-07 20:07:18.107351000,9.55335107421875,-0.024885918945074,-0.3870521187782287,-0.656173050403595
2024-12-07 20:07:18.117365200,9.563365234375,-0.0084948455914855,-0.6942129135131836,-0.3759658336639404
2024-12-07 20:07:18.127378000,9.5733779296875,-0.1011819019913673,-1.0457288026809692,-0.1763531267642974
2024-12-07 20:07:18.137392000,9.58339208984375,-0.1998390257358551,-1.1888995170593262,-0.1488573998212814
2024-12-07 20:07:18.147406000,9.593406005859377,-0.2702799141407013,-1.0013384819030762,-0.2733724415302276
2024-12-07 20:07:18.157420000,9.603419921875,-0.4021056294441223,-0.6313873529434204,-0.3981387615203857
2024-12-07 20:07:18.167433000,9.613432861328125,-0.5589165687561035,-0.2440007627010345,-0.4630232155323028
2024-12-07 20:07:18.177447200,9.623447265625,-0.6742751598358154,0.0690142512321472,-0.5155169367790222
2024-12-07 20:07:18.187460900,9.6334609375,-0.7552576065063477,0.2662831246852875,-0.5496112108230591
2024-12-07 20:07:18.197474000,9.64347412109375,-0.7616288661956787,0.3811289966106415,-0.5805707573890686
2024-12-07 20:07:18.207488000,9.653488037109376,-0.7020464539527893,0.3886782526969909,-0.620962381362915
2024-12-07 20:07:18.217502200,9.663502197265624,-0.6124179363250732,0.3244445919990539,-0.6244211792945862
2024-12-07 20:07:18.227515000,9.673514892578124,-0.4976886808872223,0.2416682243347168,-0.5980625748634338
2024-12-07 20:07:18.237529000,9.683529052734375,-0.3775997161865234,0.1625692248344421,-0.5903940796852112
2024-12-07 20:07:18.247543000,9.69354296875,-0.2934747338294983,0.0302628483623266,-0.5639366507530212
2024-12-07 20:07:18.257557000,9.703556884765623,-0.262951910495758,-0.1243618503212928,-0.4936212301254272
2024-12-07 20:07:18.267570000,9.71356982421875,-0.2607545554637909,-0.1764644533395767,-0.4206924140453338
2024-12-07 20:07:18.277584100,9.723584228515625,-0.2575604319572449,-0.1580499410629272,-0.3841904103755951
2024-12-07 20:07:18.287597800,9.733597900390626,-0.2431657910346985,-0.1298270970582962,-0.3845440745353699
2024-12-07 20:07:18.297611000,9.743611083984376,-0.2252723276615142,-0.0801432728767395,-0.4063555300235748
2024-12-07 20:07:18.307625000,9.753625,-0.217086836695671,0.0020416141487658,-0.4254352152347564
2024-12-07 20:07:18.317639200,9.76363916015625,-0.2066067606210708,0.0667477771639823,-0.4217815101146698
2024-12-07 20:07:18.327652000,9.773652099609375,-0.1881475895643234,0.0717041864991188,-0.3969094455242157
2024-12-07 20:07:18.337666000,9.783666015625,-0.155963197350502,0.0207365173846483,-0.3869240880012512
2024-12-07 20:07:18.347680000,9.793679931640623,-0.1374281346797943,-0.0499312616884708,-0.3597060441970825
2024-12-07 20:07:18.357694000,9.80369384765625,-0.1414534449577331,-0.0972933769226074,-0.3159240186214447
2024-12-07 20:07:18.367707100,9.81370703125,-0.1582254916429519,-0.0916714444756507,-0.2768863439559936
2024-12-07 20:07:18.377721000,9.82372119140625,-0.1783214807510376,-0.0801317319273948,-0.2684475481510162
2024-12-07 20:07:18.387734800,9.83373486328125,-0.201189249753952,-0.0800901874899864,-0.2923637926578522
2024-12-07 20:07:18.397748000,9.843748046875,-0.2296829521656036,-0.0721687823534011,-0.3323491513729095
2024-12-07 20:07:18.407762200,9.85376220703125,-0.2625266313552856,-0.0168096497654914,-0.3681409657001495
2024-12-07 20:07:18.417776000,9.863776123046875,-0.2863028347492218,0.0610532909631729,-0.3931843638420105
2024-12-07 20:07:18.427789000,9.8737890625,-0.3046133816242218,0.1054423302412033,-0.3979237079620361
2024-12-07 20:07:18.437803000,9.883802978515623,-0.3180682957172394,0.1150612086057663,-0.3986452519893646
2024-12-07 20:07:18.447817000,9.89381689453125,-0.3267185091972351,0.1062083318829536,-0.4068680107593536
2024-12-07 20:07:18.457831000,9.903830810546877,-0.3228795230388641,0.0795175731182098,-0.3972430527210235
2024-12-07 20:07:18.467843800,9.91384375,-0.3213253021240234,0.047925554215908,-0.3476174473762512
2024-12-07 20:07:18.477857800,9.92385791015625,-0.3456311225891113,0.0894431844353675,-0.3002949357032776
2024-12-07 20:07:18.487872000,9.9338720703125,-0.3721324801445007,0.1741239875555038,-0.2721687853336334
2024-12-07 20:07:18.497885000,9.943885009765625,-0.3981167078018188,0.2261778265237808,-0.2611152827739715
2024-12-07 20:07:18.507899000,9.95389892578125,-0.4226167201995849,0.2661441266536712,-0.2791680693626404
2024-12-07 20:07:18.517912800,9.963912841796876,-0.4325889647006988,0.2696359753608703,-0.2920848131179809
2024-12-07 20:07:18.527926000,9.973926025390623,-0.4098396897315979,0.2398477345705032,-0.2877545058727264
2024-12-07 20:07:18.537939700,9.983939697265624,-0.3578232824802398,0.2309654951095581,-0.2999304533004761
2024-12-07 20:07:18.547954000,9.993953857421875,-0.3012257814407348,0.2903630435466766,-0.3198730051517486
2024-12-07 20:07:18.557966800,10.003966796875,-0.2559224367141723,0.368861973285675,-0.3060340285301208
2024-12-07 20:07:18.567980800,10.013980712890625,-0.2288513928651809,0.3915736973285675,-0.2502152323722839
2024-12-07 20:07:18.577994800,10.023994873046876,-0.2117923200130462,0.3313341438770294,-0.20008185505867
2024-12-07 20:07:18.588009000,10.034009033203125,-0.2051831483840942,0.2061266899108886,-0.1844573467969894
2024-12-07 20:07:18.598022000,10.04402197265625,-0.2005994766950607,0.0674581080675125,-0.2033339142799377
2024-12-07 20:07:18.608035800,10.054035888671876,-0.1891081929206848,-0.0162317268550395,-0.2320734113454818
2024-12-07 20:07:18.618049800,10.0640498046875,-0.164699837565422,-0.0389825515449047,-0.2295245230197906
2024-12-07 20:07:18.628063000,10.07406298828125,-0.1324268579483032,-0.0417426526546478,-0.1910807341337204
2024-12-07 20:07:18.638076700,10.08407666015625,-0.0988806188106536,-0.0272801909595727,-0.1557396948337555
2024-12-07 20:07:18.648091000,10.0940908203125,-0.0733116045594215,-0.0216401480138301,-0.1481816321611404
2024-12-07 20:07:18.658104000,10.10410400390625,-0.0512162111699581,-0.0389097593724727,-0.1703880727291107
2024-12-07 20:07:18.668118000,10.114117919921876,-0.0344324372708797,-0.0770424902439117,-0.201614424586296
2024-12-07 20:07:18.678131700,10.124131591796877,-0.0312403738498687,-0.1062511503696441,-0.234969824552536
2024-12-07 20:07:18.688146000,10.13414599609375,-0.0342801064252853,-0.1286736279726028,-0.2475663125514984
2024-12-07 20:07:18.698159000,10.1441591796875,-0.0305448565632104,-0.1331647187471389,-0.2322475910186767
2024-12-07 20:07:18.708172800,10.1541728515625,-0.0207044780254364,-0.0517311207950115,-0.2226485013961792
2024-12-07 20:07:18.718186800,10.164186767578125,-0.0053864074870944,0.1204327642917633,-0.2217700332403183
2024-12-07 20:07:18.728200000,10.174199951171875,0.0077131502330303,0.3281372189521789,-0.203508198261261
2024-12-07 20:07:18.738214000,10.1842138671875,0.0165603831410408,0.4803701043128967,-0.1594168394804
2024-12-07 20:07:18.748227800,10.194227783203123,-0.0011981076095253,0.4937879145145416,-0.1107275933027267
2024-12-07 20:07:18.758241000,10.204240966796876,-0.0195766892284154,0.3986614942550659,-0.0800614058971405
2024-12-07 20:07:18.768255000,10.2142548828125,-0.0451480932533741,0.2814544439315796,-0.0979253649711608
2024-12-07 20:07:18.778269000,10.22426904296875,-0.0606383122503757,0.1967435032129287,-0.1602675020694732
2024-12-07 20:07:18.788283000,10.234282958984377,-0.0571554265916347,0.1701507717370987,-0.2328567504882812
2024-12-07 20:07:18.798296000,10.244296142578126,-0.0420881211757659,0.201944813132286,-0.286289781332016
2024-12-07 20:07:18.808309800,10.254309814453125,-0.0120609793812036,0.2809584140777588,-0.3348996639251709
2024-12-07 20:07:18.818324000,10.264323974609376,0.0352840609848499,0.3580386042594909,-0.3639193773269653
2024-12-07 20:07:18.828337000,10.2743369140625,0.0780134201049804,0.4479812681674957,-0.3428969085216522
2024-12-07 20:07:18.838350800,10.284350830078123,0.1029258966445922,0.5298635959625244,-0.2877220809459686
2024-12-07 20:07:18.848364800,10.29436474609375,0.1102693006396293,0.5858528017997742,-0.2252158224582672
2024-12-07 20:07:18.858378000,10.3043779296875,0.1019340306520462,0.5825749039649963,-0.1713857352733612
2024-12-07 20:07:18.868392000,10.314391845703126,0.0796068832278251,0.5616440176963806,-0.1173765659332275
2024-12-07 20:07:18.878406000,10.324406005859377,0.0530514419078826,0.5692905187606812,-0.0788528770208358
2024-12-07 20:07:18.888419800,10.334419921875,0.0331741385161876,0.6012100577354431,-0.0355927497148513
2024-12-07 20:07:18.898433000,10.34443310546875,0.0223151091486215,0.6642120480537415,0.0033792844042181
2024-12-07 20:07:18.908446700,10.35444677734375,0.0103087788447737,0.7446525692939758,0.0216520316898822
2024-12-07 20:07:18.918461000,10.3644609375,-0.0111090159043669,0.8064380288124084,0.0286230687052011
2024-12-07 20:07:18.928473900,10.374473876953124,-0.0409926138818264,0.8228641152381897,0.0383651778101921
2024-12-07 20:07:18.938487800,10.38448779296875,-0.0814223662018776,0.8197441697120667,0.0233820416033267
2024-12-07 20:07:18.948501800,10.394501708984375,-0.124754399061203,0.7899612188339233,-0.0186399780213832
2024-12-07 20:07:18.958515000,10.404514892578124,-0.1707828789949417,0.701389729976654,-0.0549898967146873
2024-12-07 20:07:18.968529000,10.41452880859375,-0.2121084779500961,0.6174899935722351,-0.0753327161073684
2024-12-07 20:07:18.978542800,10.42454296875,-0.2325365245342254,0.5687044858932495,-0.0760497748851776
2024-12-07 20:07:18.988556800,10.434556884765623,-0.2316643297672271,0.5405660271644592,-0.0436244532465934
2024-12-07 20:07:18.998570000,10.444570068359376,-0.2261855751276016,0.5287561416625977,0.0012385086156427
2024-12-07 20:07:19.008583700,10.454583740234376,-0.220237135887146,0.5383389592170715,0.0278698522597551
2024-12-07 20:07:19.018598000,10.464597900390626,-0.2324082106351852,0.5370495915412903,0.0258561223745346
2024-12-07 20:07:19.028611000,10.474611083984374,-0.254681259393692,0.5016415119171143,0.0119965011253952
2024-12-07 20:07:19.038624800,10.484624755859375,-0.2888706922531128,0.5001001358032227,-0.0330482721328735
2024-12-07 20:07:19.048638700,10.494638671875,-0.323371946811676,0.5304562449455261,-0.0648016780614852
2024-12-07 20:07:19.058652000,10.50465185546875,-0.3487328290939331,0.4765583574771881,-0.006043299101293
2024-12-07 20:07:19.068665900,10.514665771484376,-0.3874954283237457,0.4132715463638305,0.0401042215526104
2024-12-07 20:07:19.078679800,10.5246796875,-0.436048299074173,0.4216700494289398,0.0233162213116884
2024-12-07 20:07:19.088693800,10.53469384765625,-0.4678560495376587,0.4643014073371887,0.0011081211268901
2024-12-07 20:07:19.098707000,10.54470703125,-0.453898936510086,0.468670517206192,0.0291512720286846
2024-12-07 20:07:19.108721000,10.554720947265626,-0.3680021464824676,0.4093326032161712,0.0829303488135337
2024-12-07 20:07:19.118734800,10.56473486328125,-0.2375418245792389,0.3784086406230926,0.0934805870056152
2024-12-07 20:07:19.128748000,10.574748046875,-0.075298324227333,0.4363523721694946,0.0348977036774158
2024-12-07 20:07:19.138762000,10.584761962890624,0.067803606390953,0.5267840623855591,0.0160826817154884
2024-12-07 20:07:19.148776000,10.59477587890625,0.1417459994554519,0.601282000541687,0.0831298902630806
2024-12-07 20:07:19.158788900,10.604788818359374,0.1332105249166488,0.6202516555786133,0.1771256923675537
2024-12-07 20:07:19.168803000,10.614802978515623,0.0460282154381275,0.5958613157272339,0.2580085694789886
2024-12-07 20:07:19.178816800,10.624816650390626,-0.0651249960064888,0.5725231766700745,0.3639164865016937
2024-12-07 20:07:19.188831000,10.6348310546875,-0.1390263885259628,0.5023949146270752,0.4995278418064117
2024-12-07 20:07:19.198844000,10.644843994140626,-0.1601340174674987,0.3827121257781982,0.649040699005127
2024-12-07 20:07:19.208857900,10.65485791015625,-0.1484224945306778,0.2888708412647247,0.7761911749839783
2024-12-07 20:07:19.218871800,10.664871826171876,-0.1195753067731857,0.2940457761287689,0.8762803673744202
2024-12-07 20:07:19.228885000,10.674885009765624,-0.0786662250757217,0.4135181009769439,0.963408589363098
2024-12-07 20:07:19.238899000,10.68489892578125,-0.0338822305202484,0.5684418082237244,1.0487529039382937
2024-12-07 20:07:19.248913000,10.694912841796874,0.0181849673390388,0.6846293807029724,1.131493330001831
2024-12-07 20:07:19.258925800,10.70492578125,0.0686758309602737,0.7419056296348572,1.212680697441101
2024-12-07 20:07:19.268940000,10.71493994140625,0.1204591393470764,0.7485129237174988,1.2756003141403198
2024-12-07 20:07:19.278953700,10.72495361328125,0.1806841790676117,0.7026568651199341,1.3000611066818235
2024-12-07 20:07:19.288968000,10.734968017578124,0.2634642720222473,0.6266675591468811,1.2713836431503296
2024-12-07 20:07:19.298980900,10.74498095703125,0.3718653917312622,0.585143506526947,1.193662166595459
2024-12-07 20:07:19.308994800,10.754994873046876,0.5083936452865601,0.6710150241851807,1.0758329629898071
2024-12-07 20:07:19.319008800,10.7650087890625,0.661916196346283,0.8738966584205627,0.929802656173706
2024-12-07 20:07:19.329022000,10.77502197265625,0.773920476436615,1.0736210346221924,0.8165019154548645
2024-12-07 20:07:19.339036000,10.785035888671874,0.8028249144554138,1.1134111881256104,0.7525782585144043
2024-12-07 20:07:19.349049900,10.7950498046875,0.7620708346366882,0.9224494099617004,0.7368488311767578
2024-12-07 20:07:19.359062800,10.805062744140624,0.7371770143508911,0.6816689372062683,0.7528713345527649
2024-12-07 20:07:19.369077000,10.815076904296877,0.7452570796012878,0.5486863851547241,0.7302645444869995
2024-12-07 20:07:19.379090700,10.825090576171876,0.7821506261825562,0.5073612332344055,0.6412857174873352
2024-12-07 20:07:19.389105000,10.83510498046875,0.8276538848876953,0.4788646101951599,0.5224863886833191
2024-12-07 20:07:19.399117800,10.845117919921876,0.8598364591598511,0.4080206751823425,0.4345220327377319
2024-12-07 20:07:19.409131800,10.8551318359375,0.8850947022438049,0.2841514647006988,0.3917255401611328
2024-12-07 20:07:19.419145700,10.865145751953126,0.8964037299156189,0.1457538902759552,0.3650065958499908
2024-12-07 20:07:19.429159000,10.875158935546876,0.9221532940864564,-0.0009474020916968,0.3333615958690643
2024-12-07 20:07:19.439172900,10.8851728515625,0.9841458797454834,-0.182898461818695,0.2704491019248962
2024-12-07 20:07:19.449186800,10.895186767578124,1.0681928396224976,-0.3498246073722839,0.2079156786203384
2024-12-07 20:07:19.459201300,10.905201171875,1.1483579874038696,-0.487672209739685,0.1751302927732467
2024-12-07 20:07:19.469214500,10.91521435546875,1.216041922569275,-0.6018528342247009,0.1648262590169906
2024-12-07 20:07:19.479228400,10.925228515625,1.264800786972046,-0.7201959490776062,0.1689898371696472
2024-12-07 20:07:19.489242400,10.935242431640624,1.3044880628585815,-0.8880472779273987,0.1506633013486862
2024-12-07 20:07:19.499255300,10.94525537109375,1.329400658607483,-1.1452842950820925,0.0883923694491386
2024-12-07 20:07:19.509269500,10.95526953125,1.304226040840149,-1.4102935791015625,0.0145580964162945
2024-12-07 20:07:19.519283200,10.965283203125,1.2342911958694458,-1.5346661806106567,-0.0196681432425975
2024-12-07 20:07:19.529296400,10.97529638671875,1.1449089050292969,-1.511482000350952,0.035874743014574
2024-12-07 20:07:19.539310300,10.985310302734376,1.0808649063110352,-1.4184274673461914,0.1557266563177108
2024-12-07 20:07:19.549324300,10.99532421875,1.058551549911499,-1.3477084636688232,0.2586743235588074
2024-12-07 20:07:19.559338200,11.005338134765625,1.0471361875534058,-1.4040600061416626,0.2396965026855468
2024-12-07 20:07:19.569351400,11.015351318359375,1.016607642173767,-1.5210859775543213,0.0960527881979942
2024-12-07 20:07:19.579365400,11.025365478515624,0.969040036201477,-1.4553968906402588,-0.0292067416012287
2024-12-07 20:07:19.589379300,11.03537939453125,0.9212000370025636,-1.1592198610305786,-0.023940872400999
2024-12-07 20:07:19.599392500,11.045392578125,0.8706441521644592,-0.8711257576942444,0.0271111596375703
2024-12-07 20:07:19.609406500,11.055406494140623,0.7760380506515503,-0.7973650097846985,0.0066034877672791
2024-12-07 20:07:19.619420400,11.06542041015625,0.6702084541320801,-0.7862464189529419,-0.0774435624480247
2024-12-07 20:07:19.629433300,11.075433349609376,0.617760956287384,-0.7807904481887817,-0.1409575641155243
2024-12-07 20:07:19.639447600,11.085447509765626,0.5908672213554382,-0.8004507422447205,-0.1953611373901367
2024-12-07 20:07:19.649461200,11.095461181640625,0.5492159128189087,-0.8299465775489807,-0.2961519360542297
2024-12-07 20:07:19.659475200,11.10547509765625,0.5106268525123596,-0.8545804619789124,-0.3299693465232849
2024-12-07 20:07:19.669488400,11.11548828125,0.4595783054828644,-0.8405663967132568,-0.3098422288894653
2024-12-07 20:07:19.679502600,11.125502685546875,0.3734438419342041,-0.7078619599342346,-0.3175578415393829
2024-12-07 20:07:19.689516300,11.135516357421874,0.2418943494558334,-0.4528672397136688,-0.2616753876209259
2024-12-07 20:07:19.699529500,11.145529541015623,0.1006509289145469,-0.3490691184997558,-0.1706645786762237
2024-12-07 20:07:19.709543400,11.15554345703125,-0.0028323244769126,-0.3295383155345917,-0.1472801715135574
2024-12-07 20:07:19.719557400,11.165557373046877,-0.0833363309502601,-0.1684630066156387,-0.1827415972948074
2024-12-07 20:07:19.729570300,11.1755703125,-0.1350474655628204,0.0112313795834779,-0.2228967398405075
2024-12-07 20:07:19.739584500,11.18558447265625,-0.1655681878328323,0.0579328909516334,-0.2696440815925598
2024-12-07 20:07:19.749598200,11.19559814453125,-0.2099897116422653,-0.0415305793285369,-0.3383443057537079
2024-12-07 20:07:19.759612400,11.2056123046875,-0.2826822400093078,-0.2325941324234008,-0.395371526479721
2024-12-07 20:07:19.769625300,11.215625244140623,-0.368257075548172,-0.3931670486927032,-0.4563153088092804
2024-12-07 20:07:19.779639600,11.2256396484375,-0.4810279905796051,-0.4193216860294342,-0.5145756006240845
2024-12-07 20:07:19.789653200,11.2356533203125,-0.5908191800117493,-0.4428011775016784,-0.5795740485191345
2024-12-07 20:07:19.799666400,11.24566650390625,-0.6676583886146545,-0.4774133563041687,-0.6313039660453796
2024-12-07 20:07:19.809680400,11.255680419921877,-0.6935365796089172,-0.5303860306739807,-0.7014777064323425
2024-12-07 20:07:19.819694300,11.2656943359375,-0.6359958052635193,-0.5559161305427551,-0.7519833445549011
2024-12-07 20:07:19.829707300,11.275707275390625,-0.4754348993301391,-0.5039136409759521,-0.6502753496170044
2024-12-07 20:07:19.839721500,11.285721435546876,-0.1975640058517456,-0.4364229440689087,-0.4055782854557037
2024-12-07 20:07:19.849735400,11.2957353515625,0.0960641652345657,-0.4777781069278717,-0.2494717836380005
2024-12-07 20:07:19.859749400,11.305749267578124,0.1412282288074493,-0.5955677032470703,-0.227277398109436
2024-12-07 20:07:19.869762300,11.31576220703125,-0.0125386975705623,-0.7955111861228943,-0.278236985206604
2024-12-07 20:07:19.879776500,11.325776611328124,-0.198654294013977,-0.8572403788566589,-0.3498959839344024
2024-12-07 20:07:19.889790200,11.335790283203124,-0.3764013946056366,-0.7605577707290649,-0.3984989523887634
2024-12-07 20:07:19.899803400,11.345803466796877,-0.5654481649398804,-0.5607199668884277,-0.4364570081233978
2024-12-07 20:07:19.909817300,11.3558173828125,-0.7770115733146667,-0.3918824791908264,-0.4709808826446533
2024-12-07 20:07:19.919831300,11.365831298828123,-0.971811056137085,-0.3450953364372253,-0.508888840675354
2024-12-07 20:07:19.929845200,11.37584521484375,-1.020572543144226,-0.3231783211231231,-0.5698797106742859
2024-12-07 20:07:19.939858400,11.3858583984375,-0.939659595489502,-0.2213963121175766,-0.6121938228607178
2024-12-07 20:07:19.949872400,11.395872314453126,-0.7984068989753723,-0.0445126108825206,-0.5900968313217163
2024-12-07 20:07:19.959886300,11.40588623046875,-0.645647406578064,0.1193780153989791,-0.5124613642692566
