time,seconds_elapsed,z,y,x
2024-12-07 17:59:51.833280500,0.018280517578125,-0.1705328375101089,0.0981088876724243,-0.0355688333511352
2024-12-07 17:59:51.843253500,0.02825341796875,-0.2025392204523086,0.1128674522042274,-0.0500724092125892
2024-12-07 17:59:51.853226800,0.038226806640625,-0.2250029742717743,0.1650046855211258,-0.0605178549885749
2024-12-07 17:59:51.863199500,0.048199462890625,-0.2430979609489441,0.2650684714317322,-0.0598142631351947
2024-12-07 17:59:51.873172500,0.05817236328125,-0.2768822908401489,0.355485200881958,-0.0374980382621288
2024-12-07 17:59:51.883146500,0.068146484375,-0.3342891037464142,0.4361518621444702,-0.048218298703432
2024-12-07 17:59:51.893119500,0.078119384765625,-0.4433846771717071,0.4783624112606048,-0.0679214224219322
2024-12-07 17:59:51.903092700,0.0880927734375,-0.5435218214988708,0.5395689010620117,-0.0664023458957672
2024-12-07 17:59:51.913065700,0.098065673828125,-0.6544816493988037,0.5513677597045898,-0.0523365996778011
2024-12-07 17:59:51.923038500,0.10803857421875,-0.752770185470581,0.5406878590583801,-0.0526362136006355
2024-12-07 17:59:51.933011500,0.118011474609375,-0.8613947033882141,0.4532362818717956,-0.0673360601067543
2024-12-07 17:59:51.942984700,0.127984619140625,-0.9505378603935242,0.3916975557804107,-0.0601457953453063
2024-12-07 17:59:51.952957700,0.137957763671875,-1.011241436004639,0.3917362689971924,-0.0449831187725067
2024-12-07 17:59:51.962930700,0.1479306640625,-1.0492501258850098,0.3999426662921905,-0.0480449609458446
2024-12-07 17:59:51.972903400,0.1579033203125,-1.0440785884857178,0.3926946222782135,-0.0583372823894023
2024-12-07 17:59:51.982877400,0.16787744140625,-1.0366464853286743,0.3429327607154846,-0.0834231898188591
2024-12-07 17:59:51.992850400,0.177850341796875,-1.0538913011550903,0.3511416912078857,-0.160114511847496
2024-12-07 17:59:52.002823700,0.18782373046875,-1.1354749202728271,0.3813108205795288,-0.2788805961608886
2024-12-07 17:59:52.012796700,0.197796630859375,-1.2395685911178589,0.3707543015480041,-0.3630883991718292
2024-12-07 17:59:52.022769700,0.207769775390625,-1.4684497117996216,0.4750692546367645,-0.3134891092777252
2024-12-07 17:59:52.032742400,0.217742431640625,-1.5998210906982422,0.4764620959758758,-0.296062171459198
2024-12-07 17:59:52.042715600,0.227715576171875,-1.6893808841705322,0.4970201551914215,-0.314222514629364
2024-12-07 17:59:52.052688600,0.237688720703125,-1.8371883630752563,0.4817735552787781,-0.3195576071739197
2024-12-07 17:59:52.062661600,0.24766162109375,-2.018507719039917,0.4764588475227356,-0.2638385593891144
2024-12-07 17:59:52.072634600,0.257634521484375,-2.179565906524658,0.5006576180458069,-0.1605195999145507
2024-12-07 17:59:52.082607600,0.267607666015625,-2.15377426147461,0.439984530210495,-0.1082664430141449
2024-12-07 17:59:52.092581600,0.27758154296875,-2.021254301071167,0.4019814729690552,-0.1165712475776672
2024-12-07 17:59:52.102554600,0.2875546875,-1.8680315017700195,0.367050290107727,-0.1655811518430709
2024-12-07 17:59:52.112527600,0.297527587890625,-1.7726341485977173,0.322822630405426,-0.2783012986183166
2024-12-07 17:59:52.122500600,0.30750048828125,-1.7401899099349976,0.2955258190631866,-0.389951080083847
2024-12-07 17:59:52.132473600,0.3174736328125,-1.7801189422607422,0.2635503113269806,-0.4335283935070038
2024-12-07 17:59:52.142446600,0.327446533203125,-1.809852123260498,0.2557349503040313,-0.3879156708717346
2024-12-07 17:59:52.152419600,0.337419677734375,-1.745392918586731,0.2851215898990631,-0.2753853797912597
2024-12-07 17:59:52.162392600,0.347392578125,-1.5560165643692017,0.3566755652427673,-0.1154050752520561
2024-12-07 17:59:52.172365600,0.357365478515625,-1.2852559089660645,0.4939695298671722,0.0566388592123985
2024-12-07 17:59:52.182338600,0.367338623046875,-0.9546687602996826,0.5543434023857117,0.1319746077060699
2024-12-07 17:59:52.192312600,0.3773125,-0.6183850169181824,0.5031912922859192,0.0715179219841957
2024-12-07 17:59:52.202285600,0.38728564453125,-0.3044952154159546,0.4179418981075287,-0.0557460114359855
2024-12-07 17:59:52.212258600,0.397258544921875,-0.0502541400492191,0.3860377371311188,-0.1493076533079147
2024-12-07 17:59:52.222231600,0.4072314453125,0.1130380481481552,0.3976044356822967,-0.1763147860765457
2024-12-07 17:59:52.232204800,0.417204833984375,0.1799616813659668,0.4134350419044494,-0.1364999860525131
2024-12-07 17:59:52.242177500,0.427177490234375,0.1853293925523758,0.4048367142677307,-0.0795724540948867
2024-12-07 17:59:52.252150500,0.437150634765625,0.1885507553815841,0.3620714247226715,-0.0254402421414852
2024-12-07 17:59:52.262123500,0.44712353515625,0.2138206660747528,0.2816161513328552,0.0041693095117807
2024-12-07 17:59:52.272096500,0.457096435546875,0.2296275943517685,0.1648447811603546,0.0001111850142478
2024-12-07 17:59:52.282069800,0.46706982421875,0.2199627012014389,0.0668523013591766,-0.0218953713774681
2024-12-07 17:59:52.292043800,0.477043701171875,0.1567339301109314,0.0241032447665929,-0.0404919609427452
2024-12-07 17:59:52.302016500,0.4870166015625,0.0848656296730041,0.0197169426828622,-0.021114557981491
2024-12-07 17:59:52.311989500,0.496989501953125,0.0485374480485916,0.008840593509376,0.0304932445287704
2024-12-07 17:59:52.321962500,0.50696240234375,0.0467355586588382,-0.0159762054681777,0.0980838015675544
2024-12-07 17:59:52.331935700,0.516935791015625,0.061409842222929,-0.0238533020019531,0.1613527834415435
2024-12-07 17:59:52.341908700,0.52690869140625,0.094824194908142,-0.0167112220078706,0.1919684708118438
2024-12-07 17:59:52.351881500,0.536881591796875,0.141228437423706,-0.0491266846656799,0.1772403866052627
2024-12-07 17:59:52.361854500,0.5468544921875,0.1710190623998642,-0.1387853324413299,0.1303192228078842
2024-12-07 17:59:52.371827700,0.55682763671875,0.1235311701893806,-0.24569633603096,0.0444543771445751
2024-12-07 17:59:52.381800700,0.56680078125,0.0370708145201206,-0.3415995836257934,-0.0319610089063644
2024-12-07 17:59:52.391773700,0.576773681640625,-0.0029216089751571,-0.4129709899425506,-0.0581052601337432
2024-12-07 17:59:52.401747700,0.586747802734375,0.0202421955764293,-0.4210692048072815,-0.0210743099451065
2024-12-07 17:59:52.411720400,0.596720458984375,0.0625409185886383,-0.3751341998577118,0.0546942204236984
2024-12-07 17:59:52.421693400,0.606693359375,0.0942860394716262,-0.3218019902706146,0.1446979343891143
2024-12-07 17:59:52.431666700,0.616666748046875,0.1058833077549934,-0.3008106648921966,0.2149372100830078
2024-12-07 17:59:52.441639700,0.6266396484375,0.0430788695812225,-0.3128364682197571,0.2435046285390854
2024-12-07 17:59:52.451612400,0.6366123046875,0.0079840002581477,-0.3199630677700043,0.2640889883041382
2024-12-07 17:59:52.461585400,0.64658544921875,0.031392753124237,-0.2687048614025116,0.3005684614181518
2024-12-07 17:59:52.471558700,0.65655859375,0.0767906010150909,-0.1511209607124328,0.3506356179714203
2024-12-07 17:59:52.481531600,0.66653173828125,0.1455233991146087,-0.0174053218215703,0.4211423099040985
2024-12-07 17:59:52.491504600,0.676504638671875,0.1901196241378784,0.1005724444985389,0.5136924982070923
2024-12-07 17:59:52.501478700,0.686478759765625,0.1861372292041778,0.184635043144226,0.5920267105102539
2024-12-07 17:59:52.511451400,0.696451416015625,0.1702093929052353,0.2225725650787353,0.6363190412521362
2024-12-07 17:59:52.521424600,0.706424560546875,0.1653383672237396,0.2943808734416961,0.6565824747085571
2024-12-07 17:59:52.531397600,0.716397705078125,-0.68397456407547,0.5280047655105591,0.7583527565002441
2024-12-07 17:59:52.541371000,0.726370849609375,-1.7853018045425415,0.3717368841171264,0.7212014198303223
2024-12-07 17:59:52.551343900,0.73634375,-1.7622833251953125,-0.2867065370082855,0.357243150472641
2024-12-07 17:59:52.561316600,0.746316650390625,-1.4086878299713137,-0.9999983310699464,0.0531277433037757
2024-12-07 17:59:52.571289900,0.756289794921875,-1.0978718996047974,-1.4830565452575684,-0.1640280038118362
2024-12-07 17:59:52.581262800,0.766262939453125,-0.9527854919433594,-1.6640050411224363,-0.3003136217594147
2024-12-07 17:59:52.591235800,0.77623583984375,-0.91618674993515,-1.6093080043792725,-0.4052466750144958
2024-12-07 17:59:52.601209900,0.7862099609375,-0.8305799961090088,-1.4490680694580078,-0.4474061131477356
2024-12-07 17:59:52.611182800,0.796182861328125,-0.7502204775810242,-1.2476931810379028,-0.3406160175800323
2024-12-07 17:59:52.621155800,0.80615576171875,-0.5842147469520569,-0.9910909533500672,-0.074991874396801
2024-12-07 17:59:52.631128800,0.81612890625,-0.3656901121139526,-0.6933727264404297,0.2998144924640655
2024-12-07 17:59:52.641101800,0.826101806640625,-0.0663871690630912,-0.4223668873310089,0.6889672875404358
2024-12-07 17:59:52.651074800,0.83607470703125,0.4078278243541717,-0.1016003191471099,0.8609491586685181
2024-12-07 17:59:52.661047800,0.8460478515625,0.5726975798606873,0.3153167068958282,0.7387268543243408
2024-12-07 17:59:52.671020800,0.856020751953125,0.4484017193317413,0.7017430067062378,0.4737921357154846
2024-12-07 17:59:52.680993800,0.865993896484375,0.316306471824646,0.8927121162414551,0.2324520647525787
2024-12-07 17:59:52.690966800,0.875966796875,0.3350178599357605,0.8472203016281128,0.1137086302042007
2024-12-07 17:59:52.700940800,0.88594091796875,0.4308027625083923,0.6955435276031494,0.1281522363424301
2024-12-07 17:59:52.710913800,0.895913818359375,0.479840338230133,0.5927015542984009,0.2218180000782013
2024-12-07 17:59:52.720887000,0.905886962890625,0.4758731424808502,0.5119568705558777,0.324389636516571
2024-12-07 17:59:52.730859800,0.91585986328125,0.4398539066314697,0.4270882904529571,0.4142822325229645
2024-12-07 17:59:52.740832800,0.925832763671875,0.3835109770298004,0.3435133695602417,0.4716272950172424
2024-12-07 17:59:52.750805800,0.9358056640625,0.304381787776947,0.2749979794025421,0.494110494852066
2024-12-07 17:59:52.760779000,0.945779052734375,0.2266982942819595,0.2513264417648315,0.4928332567214966
2024-12-07 17:59:52.770752000,0.955751953125,0.183507427573204,0.263060063123703,0.4856885075569153
2024-12-07 17:59:52.780724700,0.965724853515625,0.1682654619216919,0.2914654314517975,0.4764982461929321
2024-12-07 17:59:52.790697700,0.97569775390625,0.1787393987178802,0.3272378146648407,0.4646876454353332
2024-12-07 17:59:52.800671700,0.985671630859375,0.1928638964891433,0.3529228866100311,0.4375191330909729
2024-12-07 17:59:52.810645000,0.99564501953125,0.18694369494915,0.3655958175659179,0.3861563205718994
2024-12-07 17:59:52.820618000,1.005617919921875,0.1503061652183532,0.3557270467281341,0.3181413412094116
2024-12-07 17:59:52.830590700,1.0155908203125,0.0874515622854232,0.3797306418418884,0.2386973649263382
2024-12-07 17:59:52.840563700,1.025563720703125,0.0487766377627849,0.4383352398872375,0.1857089847326278
2024-12-07 17:59:52.850536700,1.03553662109375,0.0526211783289909,0.3996174037456512,0.1610710173845291
2024-12-07 17:59:52.860510000,1.045510009765625,0.0703661888837814,0.4038064181804657,0.1424134671688079
2024-12-07 17:59:52.870483000,1.05548291015625,0.0798214748501777,0.4351086616516113,0.1093934625387191
2024-12-07 17:59:52.880455700,1.06545556640625,0.0914793312549591,0.4529364109039306,0.0498105399310588
2024-12-07 17:59:52.890428700,1.0754287109375,0.1069134101271629,0.4600286781787872,-0.0284344647079706
2024-12-07 17:59:52.900402000,1.08540185546875,0.1253837347030639,0.4730831086635589,-0.1336698085069656
2024-12-07 17:59:52.910376000,1.0953759765625,0.1413749605417251,0.4803884327411651,-0.2150892913341522
2024-12-07 17:59:52.920349000,1.105348876953125,0.1623031347990036,0.4662749469280243,-0.2649617493152618
2024-12-07 17:59:52.930322000,1.115322021484375,0.1833642125129699,0.4238198697566986,-0.2630751729011535
2024-12-07 17:59:52.940294700,1.125294677734375,0.2055660635232925,0.3473864793777466,-0.2100844383239746
2024-12-07 17:59:52.950268000,1.135267822265625,0.2158423960208892,0.2437170594930648,-0.1553655266761779
2024-12-07 17:59:52.960241000,1.145240966796875,0.1992211043834686,0.1141050681471824,-0.1242089122533798
2024-12-07 17:59:52.970214000,1.1552138671875,0.1608569473028183,-0.0329616144299507,-0.137098878622055
2024-12-07 17:59:52.980187000,1.165186767578125,0.135831207036972,-0.1755519807338714,-0.189710721373558
2024-12-07 17:59:52.990160000,1.175159912109375,0.1262598186731338,-0.3026193976402282,-0.2554625868797302
2024-12-07 17:59:53.000132900,1.1851328125,0.114790603518486,-0.4205946028232574,-0.2928954362869262
2024-12-07 17:59:53.010107000,1.19510693359375,0.1084584072232246,-0.3955917954444885,-0.3371507823467254
2024-12-07 17:59:53.020079900,1.205079833984375,0.1047540828585624,-0.3095410764217376,-0.3592584431171417
2024-12-07 17:59:53.030052900,1.215052978515625,0.1026872098445892,-0.1976265609264373,-0.3693254590034485
2024-12-07 17:59:53.040025900,1.22502587890625,0.0981683284044265,-0.0782636627554893,-0.3873353004455566
2024-12-07 17:59:53.049998800,1.234998779296875,0.0760827362537384,0.0031185450498014,-0.3993346989154815
2024-12-07 17:59:53.059971800,1.244971923828125,0.0351205132901668,0.0184155758470296,-0.388522058725357
2024-12-07 17:59:53.069944800,1.25494482421875,-0.0060386396944522,-0.0113785397261381,-0.3374434411525726
2024-12-07 17:59:53.079917800,1.264917724609375,-0.0388828366994857,-0.0169290415942668,-0.2642922401428222
2024-12-07 17:59:53.089891000,1.27489111328125,-0.0503288395702838,0.0199482832103967,-0.2198158502578735
2024-12-07 17:59:53.099863800,1.28486376953125,-0.0287301689386367,0.0612745769321918,-0.2014301717281341
2024-12-07 17:59:53.109836800,1.2948369140625,-0.0054144598543643,0.0742910429835319,-0.1939933001995086
2024-12-07 17:59:53.119810800,1.304810791015625,-0.0019928661640733,0.0436015129089355,-0.2046289294958114
2024-12-07 17:59:53.129783800,1.31478369140625,-0.0179728977382183,-0.038088820874691,-0.2409706860780716
2024-12-07 17:59:53.139756800,1.3247568359375,-0.0451723262667655,-0.1713439971208572,-0.2872737050056457
2024-12-07 17:59:53.149729800,1.334729736328125,-0.0530419684946537,-0.2821120619773865,-0.3150720596313476
2024-12-07 17:59:53.159702800,1.344702880859375,-0.0452830791473388,-0.3317553997039795,-0.3247116208076477
2024-12-07 17:59:53.169675800,1.35467578125,-0.0300905462354421,-0.3378354012966156,-0.3219142556190491
2024-12-07 17:59:53.179648800,1.364648681640625,-0.0045249010436236,-0.3279758393764496,-0.293695718050003
2024-12-07 17:59:53.189622000,1.3746220703125,0.0155057990923523,-0.2677077054977417,-0.2587851285934448
2024-12-07 17:59:53.199594800,1.3845947265625,0.0215090997517108,-0.1599587649106979,-0.2427443265914917
2024-12-07 17:59:53.209567700,1.394567626953125,0.021128000691533,-0.0642458125948906,-0.2304479777812957
2024-12-07 17:59:53.219541800,1.404541748046875,0.0255942232906818,-0.0357801765203475,-0.1992059201002121
2024-12-07 17:59:53.229514800,1.4145146484375,0.0281873419880867,-0.0772831439971923,-0.165231704711914
2024-12-07 17:59:53.239488000,1.424488037109375,0.0275535117834806,-0.1921257078647613,-0.1527110636234283
2024-12-07 17:59:53.249461000,1.4344609375,0.0263708028942346,-0.3288862109184265,-0.1687086671590805
2024-12-07 17:59:53.259433700,1.444433837890625,0.0513212233781814,-0.4154628217220306,-0.2083877027034759
2024-12-07 17:59:53.269406700,1.45440673828125,0.1170893162488937,-0.4234067499637604,-0.2251800000667572
2024-12-07 17:59:53.279380000,1.4643798828125,0.1947246193885803,-0.3637355268001556,-0.1727495491504669
2024-12-07 17:59:53.289353000,1.47435302734375,0.2240351140499115,-0.2641396820545196,-0.0735649168491363
2024-12-07 17:59:53.299326000,1.484325927734375,0.1738861799240112,-0.0988206565380096,0.026336595416069
2024-12-07 17:59:53.309298700,1.494298583984375,0.0473234467208385,0.1671101003885269,0.0680129379034042
2024-12-07 17:59:53.319271700,1.504271728515625,-0.049126386642456,0.4458256661891937,0.0324142836034297
2024-12-07 17:59:53.329245700,1.51424560546875,-0.0381554961204528,0.5582124590873718,-0.0126983355730772
2024-12-07 17:59:53.339219000,1.524218994140625,-0.0064087538048624,0.3304595351219177,-0.0329290963709354
2024-12-07 17:59:53.349192000,1.53419189453125,-0.0001609781756997,-0.1199254766106605,-0.0730365663766861
2024-12-07 17:59:53.359165000,1.5441650390625,-0.0254299473017454,-0.4944433867931366,-0.1734896302223205
2024-12-07 17:59:53.369137700,1.5541376953125,-0.0403748080134391,-0.6172702312469482,-0.2785659730434418
2024-12-07 17:59:53.379111000,1.56411083984375,-0.0361565612256526,-0.5825697183609009,-0.3114075660705566
2024-12-07 17:59:53.389084000,1.574083984375,-0.0255233570933341,-0.4710575938224792,-0.2794302105903625
2024-12-07 17:59:53.399057000,1.584056884765625,-0.0142906755208969,-0.2556063234806061,-0.1971845626831054
2024-12-07 17:59:53.409029600,1.594029541015625,-0.0090019041672348,0.0490678176283836,-0.0953300967812538
2024-12-07 17:59:53.419003000,1.6040029296875,-0.0098378714174032,0.3337115943431854,-0.0423015318810939
2024-12-07 17:59:53.428977000,1.613976806640625,-0.0141703020781278,0.5012025833129883,-0.0672489628195762
2024-12-07 17:59:53.438950000,1.623949951171875,-0.0366760119795799,0.5063938498497009,-0.1397351324558258
2024-12-07 17:59:53.448923000,1.6339228515625,-0.0816450864076614,0.3780843615531921,-0.2222371995449066
2024-12-07 17:59:53.458896000,1.643895751953125,-0.1405234187841415,0.197996899485588,-0.2676476240158081
2024-12-07 17:59:53.468868600,1.65386865234375,-0.1948777288198471,0.04047492146492,-0.2549904286861419
2024-12-07 17:59:53.478841900,1.663841796875,-0.2405442595481872,-0.0533617660403251,-0.1887109726667404
2024-12-07 17:59:53.488814800,1.67381494140625,-0.2841596305370331,-0.0727615654468536,-0.1033952683210372
2024-12-07 17:59:53.498787800,1.683787841796875,-0.3013416528701782,-0.0237758867442607,-0.0550220943987369
2024-12-07 17:59:53.508760800,1.6937607421875,-0.2785287499427795,0.0091897863894701,-0.0757433548569679
2024-12-07 17:59:53.518733800,1.70373388671875,-0.2418474406003952,-0.0696178749203682,-0.138887733221054
2024-12-07 17:59:53.528706800,1.713706787109375,-0.205659881234169,-0.1628191918134689,-0.2164259403944015
2024-12-07 17:59:53.538680800,1.723680908203125,-0.1755001097917556,-0.1518024355173111,-0.2569076120853424
2024-12-07 17:59:53.548653800,1.73365380859375,-0.1532390117645263,-0.0442504025995731,-0.2323090583086013
2024-12-07 17:59:53.558626800,1.743626708984375,-0.1317369192838668,0.0822408944368362,-0.1682674586772918
2024-12-07 17:59:53.568600000,1.75360009765625,-0.1105501353740692,0.1628627628087997,-0.1129645258188247
2024-12-07 17:59:53.578573000,1.763572998046875,-0.0953870564699173,0.209447368979454,-0.0690750554203987
2024-12-07 17:59:53.588545800,1.7735458984375,-0.0766317471861839,0.1973254531621933,-0.0488912239670753
2024-12-07 17:59:53.598518800,1.783518798828125,-0.0646734535694122,0.13271065056324,-0.0518121868371963
2024-12-07 17:59:53.608491800,1.79349169921875,-0.0621927231550216,0.0240595452487468,-0.0685746595263481
2024-12-07 17:59:53.618465000,1.803465087890625,-0.0622380003333091,-0.1006500273942947,-0.1054696142673492
2024-12-07 17:59:53.628438000,1.81343798828125,-0.0598531365394592,-0.2400803714990615,-0.1455187648534774
2024-12-07 17:59:53.638412000,1.823412109375,-0.056032333523035,-0.3905051946640014,-0.1803899109363556
2024-12-07 17:59:53.648384800,1.833384765625,-0.0689872801303863,-0.5089285373687744,-0.2189474105834961
2024-12-07 17:59:53.658357800,1.843357666015625,-0.0870297625660896,-0.6111000180244446,-0.2530611753463745
2024-12-07 17:59:53.668331000,1.8533310546875,-0.0916402265429496,-0.7049945592880249,-0.2882021069526672
2024-12-07 17:59:53.678304000,1.863303955078125,-0.0815976783633232,-0.8097437620162964,-0.3233246803283691
2024-12-07 17:59:53.688276700,1.87327685546875,-0.0677873268723487,-0.8924439549446106,-0.3605556786060333
2024-12-07 17:59:53.698249700,1.883249755859375,-0.0485543087124824,-0.94372820854187,-0.3984055817127228
2024-12-07 17:59:53.708223000,1.893222900390625,-0.0301822237670421,-0.9639583826065063,-0.4397493004798889
2024-12-07 17:59:53.718196000,1.903196044921875,-0.006811121944338,-0.959501326084137,-0.4811659753322601
2024-12-07 17:59:53.728169000,1.9131689453125,-0.002526095835492,-0.9513446092605592,-0.5139324069023132
2024-12-07 17:59:53.738143000,1.92314306640625,-0.0151835680007934,-0.9583947658538818,-0.5295050144195557
2024-12-07 17:59:53.748115700,1.93311572265625,-0.0395866446197032,-0.9568448066711426,-0.5287635922431946
2024-12-07 17:59:53.758088700,1.943088623046875,-0.0806574523448944,-0.9280993938446044,-0.5162128806114197
2024-12-07 17:59:53.768062000,1.95306201171875,-0.140125036239624,-0.8837301135063171,-0.4728675782680511
2024-12-07 17:59:53.778035000,1.963034912109375,-0.1802179813385009,-0.8391141891479492,-0.4065034389495849
2024-12-07 17:59:53.788008000,1.973008056640625,-0.186969369649887,-0.8073791861534119,-0.3521360754966736
2024-12-07 17:59:53.797980700,1.982980712890625,-0.1830687373876571,-0.7678759694099426,-0.3153668344020843
2024-12-07 17:59:53.807954000,1.992953857421875,-0.1910555511713028,-0.6787573099136353,-0.2985250055789947
2024-12-07 17:59:53.817927000,2.002927001953125,-0.1941208839416504,-0.5918260812759399,-0.2962781488895416
2024-12-07 17:59:53.827900000,2.01289990234375,-0.1920055449008941,-0.5224019885063171,-0.3085857033729553
2024-12-07 17:59:53.837873000,2.022872802734375,-0.1849367022514343,-0.4488676786422729,-0.3421750366687774
2024-12-07 17:59:53.847847000,2.032846923828125,-0.1902100294828415,-0.3545395731925964,-0.397422581911087
2024-12-07 17:59:53.857820000,2.04281982421875,-0.2117079794406891,-0.2309106141328811,-0.4540755152702331
2024-12-07 17:59:53.867793000,2.05279296875,-0.2588339447975158,-0.0884741097688674,-0.4887035191059112
2024-12-07 17:59:53.877766000,2.062765869140625,-0.3124864101409912,0.0490935184061527,-0.484865665435791
2024-12-07 17:59:53.887739000,2.07273876953125,-0.3474031090736389,0.2209779322147369,-0.4406276345252991
2024-12-07 17:59:53.897711900,2.0827119140625,-0.3493274748325348,0.4755215942859649,-0.3733894526958465
2024-12-07 17:59:53.907684900,2.092684814453125,-0.3193424344062805,0.7716653943061829,-0.2930855453014374
2024-12-07 17:59:53.917657900,2.102657958984375,-0.2916125953197479,1.005570650100708,-0.1861056089401245
2024-12-07 17:59:53.927630800,2.112630859375,-0.2731041610240936,1.1602156162261963,-0.0566189885139465
2024-12-07 17:59:53.937603800,2.122603759765625,-0.257168561220169,1.2819160223007202,0.0718055665493011
2024-12-07 17:59:53.947577900,2.132577880859375,-0.2226337641477584,1.325649976730347,0.1964636147022247
2024-12-07 17:59:53.957550800,2.14255078125,-0.1862517148256302,1.2909682989120483,0.2888862490653991
2024-12-07 17:59:53.967523800,2.15252392578125,-0.1480204463005066,1.1658942699432373,0.3495101630687713
2024-12-07 17:59:53.977496800,2.162496826171875,-0.0962315127253532,0.9236673712730408,0.4196533560752868
2024-12-07 17:59:53.987469800,2.1724697265625,-0.0152040384709835,0.5567508935928345,0.5449374914169312
2024-12-07 17:59:53.997443000,2.182443115234375,0.0710306465625763,0.1851570755243301,0.6561021208763123
2024-12-07 17:59:54.007415800,2.192415771484375,0.195755273103714,-0.2085335105657577,0.7258481383323669
2024-12-07 17:59:54.017388800,2.202388916015625,0.297192245721817,-0.4790445864200592,0.7104014754295349
2024-12-07 17:59:54.027361800,2.21236181640625,0.3396323621273041,-0.5504351258277893,0.642912745475769
2024-12-07 17:59:54.037335000,2.2223349609375,0.3858705759048462,-0.466234803199768,0.5809425711631775
2024-12-07 17:59:54.047308000,2.23230810546875,0.4449743926525116,-0.2012265771627426,0.6020606160163879
2024-12-07 17:59:54.057282000,2.242281982421875,0.4817468523979187,0.1181737035512924,0.6885444521903992
2024-12-07 17:59:54.067254800,2.2522548828125,0.4675521850585937,0.3391369879245758,0.8004414439201355
2024-12-07 17:59:54.077227800,2.262227783203125,0.4071653187274933,0.4231666624546051,0.9054259061813354
2024-12-07 17:59:54.087200800,2.27220068359375,0.3377707898616791,0.4058143198490143,0.9746137857437134
2024-12-07 17:59:54.097174000,2.282174072265625,0.2842218279838562,0.3448039889335632,1.0068821907043457
2024-12-07 17:59:54.107147000,2.29214697265625,0.2511248588562011,0.2607458233833313,1.0166525840759275
2024-12-07 17:59:54.117119700,2.30211962890625,0.2363897114992141,0.12327840924263,1.048615336418152
2024-12-07 17:59:54.127092700,2.3120927734375,0.2089591473340988,-0.0598650462925434,1.115772724151611
2024-12-07 17:59:54.137066000,2.32206591796875,0.1639889776706695,-0.2896345257759094,1.1886237859725952
2024-12-07 17:59:54.147039000,2.3320390625,0.1280394941568374,-0.5262260437011719,1.1919140815734863
2024-12-07 17:59:54.157012000,2.342011962890625,0.1099365651607513,-0.6218312382698059,1.0560712814331057
2024-12-07 17:59:54.166986000,2.351986083984375,0.1052928119897842,-0.471308559179306,0.8336904048919678
2024-12-07 17:59:54.176958700,2.361958740234375,0.087731659412384,-0.1278782188892364,0.6346737146377563
2024-12-07 17:59:54.186932000,2.371931884765625,0.065504290163517,0.3221667408943176,0.5184140205383301
2024-12-07 17:59:54.196905000,2.381905029296875,0.063413105905056,0.7376301884651184,0.4965289533138275
2024-12-07 17:59:54.206878000,2.3918779296875,0.0731576159596443,1.0113277435302734,0.5246931910514832
2024-12-07 17:59:54.216851000,2.401850830078125,0.0631832107901573,1.115243911743164,0.5393912196159363
2024-12-07 17:59:54.226823700,2.41182373046875,0.0380019545555114,1.0861999988555908,0.5009766817092896
2024-12-07 17:59:54.236797000,2.421796875,0.0160164646804332,1.0095479488372805,0.4066185355186462
2024-12-07 17:59:54.246770000,2.43177001953125,0.0096637606620788,0.9086202383041382,0.2970592677593231
2024-12-07 17:59:54.256743000,2.441742919921875,0.0107992654666304,0.8002730011940002,0.2088266015052795
2024-12-07 17:59:54.266717000,2.451717041015625,0.0017181519651785,0.6644185185432434,0.1605296432971954
2024-12-07 17:59:54.276689700,2.461689697265625,-0.0328000821173191,0.5105749368667603,0.1519661843776703
2024-12-07 17:59:54.286663000,2.471662841796875,-0.0795830264687538,0.3838436305522918,0.1417915821075439
2024-12-07 17:59:54.296636000,2.481635986328125,-0.1236323043704032,0.2982175350189209,0.130250334739685
2024-12-07 17:59:54.306609000,2.49160888671875,-0.1618611812591552,0.220695286989212,0.1106611788272857
2024-12-07 17:59:54.316582000,2.501581787109375,-0.1827049851417541,0.1599475294351577,0.1003003567457199
2024-12-07 17:59:54.326555000,2.511554931640625,-0.1722494065761566,0.1247677057981491,0.0789545848965644
2024-12-07 17:59:54.336528000,2.52152783203125,-0.1330445259809494,0.0915140882134437,0.0077695907093584
2024-12-07 17:59:54.346500900,2.5315009765625,-0.0972628220915794,0.0684591010212898,-0.0783099010586738
2024-12-07 17:59:54.356473900,2.541473876953125,-0.0629582852125167,0.0588342808187007,-0.1353846341371536
2024-12-07 17:59:54.366446800,2.55144677734375,-0.0378771647810936,0.0396270304918289,-0.1755482852458953
2024-12-07 17:59:54.376420900,2.5614208984375,-0.0322900488972663,-0.0098189003765583,-0.2114700376987457
2024-12-07 17:59:54.386393900,2.571393798828125,-0.0359431095421314,-0.0893840342760086,-0.2509660422801971
2024-12-07 17:59:54.396366800,2.581366943359375,-0.0432082451879978,-0.1578497588634491,-0.3188066184520721
2024-12-07 17:59:54.406339800,2.59133984375,-0.0446817725896835,-0.2092407792806625,-0.3962137699127197
2024-12-07 17:59:54.416312800,2.601312744140625,-0.0453622788190841,-0.2589621841907501,-0.4472485184669494
2024-12-07 17:59:54.426286000,2.6112861328125,-0.0572594180703163,-0.2828169167041778,-0.4666853547096252
2024-12-07 17:59:54.436258800,2.6212587890625,-0.0680609941482544,-0.2853232622146606,-0.4595696032047272
2024-12-07 17:59:54.446231800,2.631231689453125,-0.0640635937452316,-0.238856703042984,-0.4177193641662597
2024-12-07 17:59:54.456204800,2.641204833984375,-0.0361187420785427,-0.1509925723075866,-0.3735867738723755
2024-12-07 17:59:54.466178000,2.651177978515625,0.0049671749584376,-0.0699949190020561,-0.3306707143783569
2024-12-07 17:59:54.476152000,2.661152099609375,0.0486059300601482,-0.0473188869655132,-0.281537801027298
2024-12-07 17:59:54.486125000,2.671125,0.0841588675975799,-0.0984715521335601,-0.2276929467916488
2024-12-07 17:59:54.496097800,2.681097900390625,0.1076283380389213,-0.1697279810905456,-0.1764281690120697
2024-12-07 17:59:54.506070800,2.69107080078125,0.1282329559326172,-0.2305295467376709,-0.1049404144287109
2024-12-07 17:59:54.516043800,2.701043701171875,0.1368133127689361,-0.2449796497821808,-0.0297753307968378
2024-12-07 17:59:54.526017000,2.71101708984375,0.114177256822586,-0.1936767846345901,0.0226607117801904
2024-12-07 17:59:54.535989200,2.7209892578125,0.0754449293017387,-0.1172933652997016,0.0422692634165287
2024-12-07 17:59:54.545962200,2.730962158203125,0.0515193603932857,-0.0438585579395294,0.0414279699325561
2024-12-07 17:59:54.555935200,2.740935302734375,0.0619724951684474,0.0395158976316452,0.0339564383029937
2024-12-07 17:59:54.565908200,2.750908203125,0.0883412584662437,0.1161558106541633,0.0206496883183717
2024-12-07 17:59:54.575882200,2.76088232421875,0.1126312538981437,0.1359103918075561,-0.0020832812879234
2024-12-07 17:59:54.585855200,2.770855224609375,0.1426538676023483,0.0432102791965007,-0.035185307264328
2024-12-07 17:59:54.595828200,2.780828125,0.1945079714059829,-0.1070759519934654,-0.0707728937268257
2024-12-07 17:59:54.605801200,2.79080126953125,0.2386418879032135,-0.1967533826828003,-0.1068707108497619
2024-12-07 17:59:54.615774200,2.800774169921875,0.2391826957464218,-0.0923617109656333,-0.1412878185510635
2024-12-07 17:59:54.625747200,2.810747314453125,0.2019221484661102,0.1952972412109375,-0.1785848587751388
2024-12-07 17:59:54.635720200,2.82072021484375,0.2084615379571914,0.451750248670578,-0.2132429331541061
2024-12-07 17:59:54.645693200,2.830693115234375,0.2557989656925201,0.56251060962677,-0.2446988672018051
2024-12-07 17:59:54.655666400,2.84066650390625,0.2566398680210113,0.4928045272827148,-0.2773409783840179
2024-12-07 17:59:54.665639200,2.85063916015625,0.1814694702625274,0.2088148742914199,-0.29310342669487
2024-12-07 17:59:54.675612200,2.860612060546875,0.054775808006525,-0.2874385118484497,-0.2833136320114136
2024-12-07 17:59:54.685586200,2.870586181640625,-0.0896069332957267,-0.806486189365387,-0.2891749739646911
2024-12-07 17:59:54.695559200,2.88055908203125,-0.2036372125148773,-1.150687575340271,-0.3151208460330963
2024-12-07 17:59:54.705532400,2.890532470703125,-0.2542361915111542,-1.2524431943893433,-0.3411157131195068
2024-12-07 17:59:54.715505400,2.90050537109375,-0.2319011241197586,-1.1104413270950315,-0.3466084599494934
2024-12-07 17:59:54.725478100,2.91047802734375,-0.1588088124990463,-0.7959020137786865,-0.3183227777481079
2024-12-07 17:59:54.735451100,2.920451171875,-0.0958137288689613,-0.4318251013755798,-0.2537019252777099
2024-12-07 17:59:54.745424400,2.93042431640625,-0.0757318958640098,-0.1043346002697944,-0.1784114241600036
2024-12-07 17:59:54.755397400,2.9403974609375,-0.0655511021614074,0.1727995872497558,-0.1310814917087555
2024-12-07 17:59:54.765370400,2.950370361328125,-0.0271075740456581,0.3776925504207611,-0.132011741399765
2024-12-07 17:59:54.775343000,2.960343017578125,0.0368015728890895,0.4771393537521362,-0.1821741461753845
2024-12-07 17:59:54.785317000,2.970317138671875,0.0861784443259239,0.4749273061752319,-0.2641862034797668
2024-12-07 17:59:54.795290000,2.9802900390625,0.0929543226957321,0.4047432243824005,-0.3442341983318329
2024-12-07 17:59:54.805263400,2.990263427734375,0.0831248611211776,0.314264714717865,-0.385172039270401
2024-12-07 17:59:54.815236400,3.000236328125,0.0737325176596641,0.2496654689311981,-0.3714991509914398
2024-12-07 17:59:54.825209000,3.010208984375,0.0608382932841777,0.2097031325101852,-0.3161538541316986
2024-12-07 17:59:54.835182000,3.02018212890625,0.0330610573291778,0.1733059585094452,-0.2569707036018371
2024-12-07 17:59:54.845155300,3.0301552734375,-0.0038815126754343,0.0812090635299682,-0.2307982146739959
2024-12-07 17:59:54.855128300,3.04012841796875,-0.0356849804520607,-0.0714015886187553,-0.2618362605571747
2024-12-07 17:59:54.865101300,3.050101318359375,-0.0668655410408973,-0.2106257826089859,-0.3276259303092956
2024-12-07 17:59:54.875074000,3.060073974609375,-0.0889795273542404,-0.3325190246105194,-0.4044307172298431
2024-12-07 17:59:54.885047300,3.07004736328125,-0.0971405133605003,-0.451906144618988,-0.4637323915958404
2024-12-07 17:59:54.895021300,3.080021240234375,-0.102586455643177,-0.5696381330490112,-0.4965401887893677
2024-12-07 17:59:54.904994300,3.089994384765625,-0.0990380570292472,-0.6590436697006226,-0.5067036151885986
2024-12-07 17:59:54.914967300,3.09996728515625,-0.0973245427012443,-0.7012368440628052,-0.494095891714096
2024-12-07 17:59:54.924940300,3.109940185546875,-0.1023717671632766,-0.6905722618103027,-0.4671524167060852
2024-12-07 17:59:54.934913300,3.119913330078125,-0.114652395248413,-0.6247804164886475,-0.4226821660995483
2024-12-07 17:59:54.944886300,3.12988623046875,-0.1092616245150566,-0.4994035959243774,-0.3770134747028351
2024-12-07 17:59:54.954859300,3.139859375,-0.0910250321030616,-0.360542893409729,-0.3301013708114624
2024-12-07 17:59:54.964832300,3.149832275390625,-0.074839137494564,-0.238178089261055,-0.2919422686100006
2024-12-07 17:59:54.974805200,3.15980517578125,-0.0700187906622886,-0.1503863334655761,-0.2753180265426636
2024-12-07 17:59:54.984778200,3.1697783203125,-0.0845681726932525,-0.0901735946536064,-0.2729565799236297
2024-12-07 17:59:54.994752300,3.179752197265625,-0.1087177470326423,-0.0460804291069507,-0.2751484215259552
2024-12-07 17:59:55.004725200,3.189725341796875,-0.1289583146572113,-8.39091371744e-05,-0.2674643993377685
2024-12-07 17:59:55.014698200,3.1996982421875,-0.1531769633293151,0.0474188663065433,-0.2459262460470199
2024-12-07 17:59:55.024671200,3.209671142578125,-0.1754854619503021,0.111337125301361,-0.2203705459833145
2024-12-07 17:59:55.034644500,3.21964453125,-0.2042236626148224,0.1519950181245803,-0.1891865581274032
2024-12-07 17:59:55.044617200,3.2296171875,-0.2195115387439727,0.1491286605596542,-0.1712230145931244
2024-12-07 17:59:55.054590200,3.239590087890625,-0.2130609601736068,0.1153199896216392,-0.1878547966480255
2024-12-07 17:59:55.064563200,3.249563232421875,-0.213105171918869,0.0749161094427108,-0.2171109467744827
2024-12-07 17:59:55.074536400,3.259536376953125,-0.2152659296989441,0.0633781999349594,-0.254842609167099
2024-12-07 17:59:55.084509400,3.269509521484375,-0.2218431383371353,0.077891893684864,-0.2908245623111725
2024-12-07 17:59:55.094482200,3.279482177734375,-0.2199468314647674,0.1125541627407074,-0.3141671419143677
2024-12-07 17:59:55.104456200,3.289456298828125,-0.2168410569429397,0.1609680354595184,-0.3263026475906372
2024-12-07 17:59:55.114429200,3.29942919921875,-0.2219668328762054,0.2085354328155517,-0.2962333559989929
2024-12-07 17:59:55.124402200,3.309402099609375,-0.2342517375946045,0.2467254251241684,-0.2477912455797195
2024-12-07 17:59:55.134375400,3.31937548828125,-0.2505696713924408,0.2680665850639343,-0.1965638101100921
2024-12-07 17:59:55.144348200,3.32934814453125,-0.2653869688510895,0.294985294342041,-0.1672948747873306
2024-12-07 17:59:55.154321200,3.339321044921875,-0.2789094746112823,0.3144711852073669,-0.1641366779804229
2024-12-07 17:59:55.164294100,3.349294189453125,-0.2889597117900848,0.3307521641254425,-0.1774468868970871
2024-12-07 17:59:55.174267400,3.359267333984375,-0.2715588808059692,0.3239025473594665,-0.2051685005426406
2024-12-07 17:59:55.184240400,3.369240478515625,-0.2628545761108398,0.2569741010665893,-0.2041085660457611
2024-12-07 17:59:55.194213000,3.379213134765625,-0.2437772005796432,0.2000374495983123,-0.1976005882024765
2024-12-07 17:59:55.204187100,3.389187255859375,-0.2239142805337906,0.1045063957571983,-0.1529063433408737
2024-12-07 17:59:55.214160100,3.39916015625,-0.1961887031793594,0.0315216146409511,-0.0842404440045356
2024-12-07 17:59:55.224133400,3.40913330078125,-0.136647880077362,-0.0136780869215726,-0.0039016662631183
2024-12-07 17:59:55.234106400,3.4191064453125,-0.0588215552270412,-0.0800555050373077,0.1287581622600555
2024-12-07 17:59:55.244079400,3.429079345703125,0.0213803388178348,-0.1093699857592582,0.2742115259170532
2024-12-07 17:59:55.254052000,3.439052001953125,0.1115523055195808,-0.159703254699707,0.4121961891651153
2024-12-07 17:59:55.264025000,3.449025146484375,0.1928495466709137,-0.2146365493535995,0.5234811305999756
2024-12-07 17:59:55.273998300,3.458998291015625,0.2474228292703628,-0.256852388381958,0.6031190156936646
2024-12-07 17:59:55.283971300,3.468971435546875,0.2754344642162323,-0.279821366071701,0.6622393727302551
2024-12-07 17:59:55.293944300,3.4789443359375,0.2900193631649017,-0.2830748260021209,0.7241132855415344
2024-12-07 17:59:55.303918300,3.48891845703125,0.3039263784885406,-0.2775357365608215,0.8077144622802734
2024-12-07 17:59:55.313891000,3.49889111328125,0.3266878128051758,-0.2554210722446441,0.9479895234107972
2024-12-07 17:59:55.323864300,3.5088642578125,0.3531577587127685,-0.1881493628025055,1.170901656150818
2024-12-07 17:59:55.333837300,3.51883740234375,0.3835349380970001,-0.0396987199783325,1.4731111526489258
2024-12-07 17:59:55.343810300,3.528810302734375,0.3957023918628692,0.1904820203781128,1.7722632884979248
2024-12-07 17:59:55.353783300,3.538783203125,0.3733189404010772,0.4482319355010986,2.006277561187744
2024-12-07 17:59:55.363756300,3.54875634765625,0.3137421607971191,0.5577717423439026,2.1822848320007324
2024-12-07 17:59:55.373729300,3.558729248046875,0.19269859790802,0.3231371641159057,2.2754921913146973
2024-12-07 17:59:55.383702300,3.568702392578125,0.0572598092257976,-0.138852059841156,2.1771790981292725
2024-12-07 17:59:55.393675300,3.57867529296875,-0.0439988784492015,-0.3651756048202514,1.8287158012390137
2024-12-07 17:59:55.403648300,3.588648193359375,-0.0756896883249282,-0.2585101425647735,1.2705001831054688
2024-12-07 17:59:55.413622000,3.5986220703125,-0.0631730705499649,0.0361797325313091,0.7494018077850342
2024-12-07 17:59:55.423595300,3.60859521484375,0.0336895585060119,0.1753482818603515,0.4344843626022339
2024-12-07 17:59:55.433568300,3.618568359375,0.1939347237348556,0.2442075461149215,0.3860966265201568
2024-12-07 17:59:55.443541200,3.628541259765625,0.3387936353683471,0.4183748066425323,0.5991524457931519
2024-12-07 17:59:55.453514200,3.63851416015625,0.3920367062091827,0.6969286203384399,0.930741548538208
2024-12-07 17:59:55.463487200,3.6484873046875,0.3574001789093017,1.0373369455337524,1.1237133741378784
2024-12-07 17:59:55.473460200,3.658460205078125,0.3107024431228637,1.192355751991272,1.026195764541626
2024-12-07 17:59:55.483433200,3.66843310546875,0.2801719605922699,1.0277873277664185,0.6872407793998718
2024-12-07 17:59:55.493406200,3.67840625,0.2593715190887451,0.6110352277755737,0.2709666192531585
2024-12-07 17:59:55.503379500,3.68837939453125,0.255223661661148,0.1846340894699096,-0.1043664962053299
2024-12-07 17:59:55.513353500,3.698353515625,0.2591650784015655,-0.108830526471138,-0.3647299110889435
2024-12-07 17:59:55.523326200,3.708326171875,0.2465874850749969,-0.25629723072052,-0.4785632789134979
2024-12-07 17:59:55.533299200,3.71829931640625,0.2067853212356567,-0.2744146585464477,-0.4724305272102356
2024-12-07 17:59:55.543273000,3.72827294921875,0.1466111838817596,-0.2208776473999023,-0.3819997012615204
2024-12-07 17:59:55.553246000,3.738245849609375,0.0721073970198631,-0.1548205614089965,-0.2545203268527984
2024-12-07 17:59:55.563219000,3.748218994140625,-0.0104958722367882,-0.081967644393444,-0.1456010192632675
2024-12-07 17:59:55.573192000,3.75819189453125,-0.0969047620892524,-0.0122552188113331,-0.0985317975282669
2024-12-07 17:59:55.583165000,3.7681650390625,-0.1715971231460571,0.024032212793827,-0.1155408769845962
2024-12-07 17:59:55.593138000,3.778137939453125,-0.2170896381139755,-0.0111218113452196,-0.1667340099811554
2024-12-07 17:59:55.603111000,3.78811083984375,-0.2363549321889877,-0.1334152370691299,-0.2444866001605987
2024-12-07 17:59:55.613085000,3.7980849609375,-0.2335405498743057,-0.387427270412445,-0.3317880034446716
2024-12-07 17:59:55.623058200,3.80805810546875,-0.2129292786121368,-0.6646724343299866,-0.4226625263690948
2024-12-07 17:59:55.633031000,3.818031005859375,-0.1693875193595886,-0.7387159466743469,-0.5306698679924011
2024-12-07 17:59:55.643004000,3.82800390625,-0.1675786972045898,-0.6019772887229919,-0.6296899318695068
2024-12-07 17:59:55.652977000,3.837976806640625,-0.1989580988883972,-0.3024667501449585,-0.6977244019508362
2024-12-07 17:59:55.662950100,3.8479501953125,-0.2319498658180236,-0.0633604303002357,-0.7145465612411499
2024-12-07 17:59:55.672923000,3.8579228515625,-0.2572038471698761,0.0185546744614839,-0.6816836595535278
2024-12-07 17:59:55.682896000,3.867895751953125,-0.2980146408081054,0.002672913018614,-0.6673060655593872
2024-12-07 17:59:55.692868900,3.877868896484375,-0.3411854207515716,-0.0484490320086479,-0.6824682950973511
2024-12-07 17:59:55.702842000,3.887842041015625,-0.3722453415393829,-0.1466845124959945,-0.6823652386665344
2024-12-07 17:59:55.712815900,3.89781591796875,-0.3773292005062103,-0.2033625990152359,-0.626066267490387
2024-12-07 17:59:55.722789000,3.9077890625,-0.3381261527538299,-0.2026517987251281,-0.4806965291500091
2024-12-07 17:59:55.735256000,3.920256103515625,-0.1927118897438049,-0.1311589926481247,-0.1835556626319885
2024-12-07 17:59:55.745229000,3.93022900390625,-0.0162401814013719,-0.0136563340201973,0.0715269669890403
2024-12-07 17:59:55.755202000,3.9402021484375,0.1616244614124298,0.1403176337480545,0.2472196966409683
2024-12-07 17:59:55.765174800,3.9501748046875,0.2463934123516082,0.2056718617677688,0.3225663900375366
2024-12-07 17:59:55.775148000,3.96014794921875,0.2322893291711807,0.1131346672773361,0.305428683757782
2024-12-07 17:59:55.785121000,3.97012109375,0.191431924700737,-0.0491676889359951,0.2233063578605651
2024-12-07 17:59:55.795094000,3.980093994140625,0.17178775370121,-0.1702220290899276,0.1251266300678253
2024-12-07 17:59:55.805067000,3.99006689453125,0.1723914891481399,-0.1566620022058487,0.0585979335010051
2024-12-07 17:59:55.815040000,4.0000400390625,0.1616263836622238,-0.0477209314703941,0.0643879324197769
2024-12-07 17:59:55.825013800,4.010013671875,0.1327803581953048,0.0392366014420986,0.1428049802780151
2024-12-07 17:59:55.834987000,4.019987060546875,0.0901679247617721,0.0279675014317035,0.2499377876520156
2024-12-07 17:59:55.844960000,4.0299599609375,0.0911224037408828,-0.0455338805913925,0.3338840901851654
2024-12-07 17:59:55.854933000,4.03993310546875,0.2045971304178238,-0.0758090540766716,0.3403632938861847
2024-12-07 17:59:55.864906000,4.049906005859375,0.4069166779518127,0.0482809394598007,0.2533529996871948
2024-12-07 17:59:55.874879000,4.05987890625,0.5450209379196167,0.3096732795238495,0.1044884249567985
2024-12-07 17:59:55.884852000,4.06985205078125,0.495274931192398,0.5209924578666687,-0.0362441912293434
2024-12-07 17:59:55.894825000,4.079824951171875,0.3224953711032867,0.8290745615959167,-0.0716663151979446
2024-12-07 17:59:55.904798000,4.0897978515625,0.1636308878660202,1.2435436248779297,0.1463616341352462
2024-12-07 17:59:55.914772000,4.09977197265625,-0.0092853344976902,1.416706919670105,0.6106325387954712
2024-12-07 17:59:55.924745000,4.109744873046875,-0.1244785040616989,1.0526522397994995,0.8267979025840759
2024-12-07 17:59:55.934718000,4.119718017578125,-0.1313717514276504,0.2310175150632858,0.5376885533332825
2024-12-07 17:59:55.944691000,4.12969091796875,-0.1643946915864944,-0.4979106783866882,-0.0888192653656005
2024-12-07 17:59:55.954664000,4.139663818359375,-0.2160228043794632,-0.9159802198410034,-0.6740789413452148
2024-12-07 17:59:55.964637000,4.149636962890625,-0.2392404973506927,-1.0341545343399048,-1.0067338943481443
2024-12-07 17:59:55.974610000,4.15960986328125,-0.2445904016494751,-0.7647640109062195,-1.0890967845916748
2024-12-07 17:59:55.984583000,4.1695830078125,-0.2201175540685653,-0.2272054702043533,-0.9496443867683412
2024-12-07 17:59:55.994556000,4.179555908203125,-0.145598366856575,0.2975198328495025,-0.6886963248252869
2024-12-07 17:59:56.004529000,4.18952880859375,-0.0692948102951049,0.6178491115570068,-0.4538614153861999
2024-12-07 17:59:56.014503000,4.1995029296875,-0.0544673614203929,0.6792261004447937,-0.3520522713661194
2024-12-07 17:59:56.024476200,4.20947607421875,-0.0713960081338882,0.4723733067512512,-0.3911117911338806
2024-12-07 17:59:56.034449000,4.219448974609375,-0.0853472426533699,0.1062933504581451,-0.5021682381629944
2024-12-07 17:59:56.044422000,4.229421875,-0.1004716008901596,-0.2543079853057861,-0.6189475655555725
2024-12-07 17:59:56.054395000,4.239394775390625,-0.1311649233102798,-0.4974325597286224,-0.6759794354438782
2024-12-07 17:59:56.064368000,4.2493681640625,-0.1834491789340973,-0.6175627708435059,-0.6732643246650696
2024-12-07 17:59:56.074341000,4.259341064453125,-0.2354688644409179,-0.6401442289352417,-0.6433296203613281
2024-12-07 17:59:56.084312800,4.269312744140625,-0.2650238275527954,-0.5797898173332214,-0.6310087442398071
2024-12-07 17:59:56.094286000,4.2792861328125,-0.2625207006931305,-0.4907597303390503,-0.642062783241272
2024-12-07 17:59:56.104259000,4.289259033203125,-0.2350845336914062,-0.4272468090057373,-0.6721444725990295
2024-12-07 17:59:56.114232000,4.299232177734375,-0.2061262875795364,-0.3744010031223297,-0.688092827796936
2024-12-07 17:59:56.124206000,4.3092060546875,-0.1918450891971588,-0.2854391634464264,-0.6503760814666748
2024-12-07 17:59:56.134178800,4.3191787109375,-0.1846490055322647,-0.1897140890359878,-0.5570389628410339
2024-12-07 17:59:56.144151800,4.32915185546875,-0.1600541770458221,-0.1317410618066787,-0.4396531879901886
2024-12-07 17:59:56.154125000,4.339125,-0.1281676441431045,-0.127816766500473,-0.3456177711486816
2024-12-07 17:59:56.164098000,4.34909814453125,-0.0963540598750114,-0.1497516334056854,-0.294298380613327
2024-12-07 17:59:56.174071000,4.359071044921875,-0.0838148966431617,-0.2091904282569885,-0.2924821376800537
2024-12-07 17:59:56.184043800,4.369043701171875,-0.0921119749546051,-0.3134534657001495,-0.2950941622257232
2024-12-07 17:59:56.194017000,4.37901708984375,-0.1019226238131523,-0.4436257481575012,-0.3009174168109894
2024-12-07 17:59:56.203990000,4.388989990234375,-0.1120383739471435,-0.5787965655326843,-0.3050841987133026
2024-12-07 17:59:56.213963000,4.398962890625,-0.1088740080595016,-0.6657240390777588,-0.3161893188953399
2024-12-07 17:59:56.223937000,4.40893701171875,-0.0866581872105598,-0.6930616497993469,-0.3107764422893524
2024-12-07 17:59:56.233909800,4.41890966796875,-0.0711463764309883,-0.6292705535888672,-0.2858250141143799
2024-12-07 17:59:56.243883000,4.428883056640625,-0.0589879788458347,-0.5059661865234375,-0.2516028583049774
2024-12-07 17:59:56.253856000,4.43885595703125,-0.0330884046852588,-0.3537543416023254,-0.2174201309680938
2024-12-07 17:59:56.263829000,4.4488291015625,-0.0094666965305805,-0.2033072859048843,-0.2066428363323211
2024-12-07 17:59:56.273802000,4.458802001953125,0.0133480979129672,-0.100250095129013,-0.2163197845220565
2024-12-07 17:59:56.283775000,4.46877490234375,0.0138580938801169,-0.054437331855297,-0.2231718301773071
2024-12-07 17:59:56.293748000,4.478748046875,-0.0152193950489163,-0.023249240592122,-0.2201291471719741
2024-12-07 17:59:56.303721000,4.488720947265625,-0.0662666037678718,0.012982266023755,-0.2088613212108612
2024-12-07 17:59:56.313694000,4.49869384765625,-0.113598458468914,0.0195803232491016,-0.1856494396924972
2024-12-07 17:59:56.323668000,4.50866796875,-0.1418825536966323,-0.0102915549650788,-0.1514342129230499
2024-12-07 17:59:56.333641000,4.518640869140625,-0.1409870982170105,-0.0450094826519489,-0.1390941739082336
2024-12-07 17:59:56.343614000,4.528614013671875,-0.1267911195755005,-0.0482356362044811,-0.1648322939872741
2024-12-07 17:59:56.353587000,4.5385869140625,-0.1116392984986305,-0.0391282960772514,-0.2121737152338028
2024-12-07 17:59:56.363560000,4.548559814453125,-0.1056684926152229,-0.0096087539568543,-0.2581803798675537
2024-12-07 17:59:56.373533000,4.558532958984375,-0.100928708910942,0.0277047529816627,-0.2816644310951233
2024-12-07 17:59:56.383506200,4.568506103515625,-0.1154037863016128,0.0540562011301517,-0.2811389863491058
2024-12-07 17:59:56.393479000,4.57847900390625,-0.134295105934143,0.1057177782058715,-0.2685931026935577
2024-12-07 17:59:56.403452000,4.588451904296875,-0.1481342315673828,0.1649869531393051,-0.2660156786441803
2024-12-07 17:59:56.413426000,4.598426025390625,-0.1644722670316696,0.2124687433242797,-0.2722693085670471
2024-12-07 17:59:56.423399000,4.60839892578125,-0.1766969710588455,0.2872577607631683,-0.3233431577682495
2024-12-07 17:59:56.433372000,4.618371826171875,-0.1957842409610748,0.339447945356369,-0.3655512928962707
2024-12-07 17:59:56.443345200,4.62834521484375,-0.2155190706253051,0.4110907316207886,-0.3851505517959595
2024-12-07 17:59:56.453318000,4.63831787109375,-0.2377667427062988,0.4763239026069641,-0.3352445363998413
2024-12-07 17:59:56.463291000,4.648290771484375,-0.2541079223155975,0.5615237355232239,-0.2447652220726013
2024-12-07 17:59:56.473263900,4.658263916015625,-0.2631658613681793,0.6401423811912537,-0.134241372346878
2024-12-07 17:59:56.483237000,4.668237060546875,-0.251088410615921,0.7135955691337585,-0.043078176677227
2024-12-07 17:59:56.493210000,4.678210205078125,-0.2488577216863632,0.6920297145843506,0.0548569113016128
2024-12-07 17:59:56.503182800,4.688182861328125,-0.2613220810890198,0.6356010437011719,0.128943383693695
2024-12-07 17:59:56.513156900,4.698156982421875,-0.2573080360889435,0.551117479801178,0.1543616503477096
2024-12-07 17:59:56.523129900,4.7081298828125,-0.2400936186313629,0.3959867358207702,0.1859842836856842
2024-12-07 17:59:56.533103000,4.71810302734375,-0.2233515232801437,0.2730512619018554,0.2171813547611236
2024-12-07 17:59:56.543075300,4.728075439453125,-0.1835639029741287,0.1884918957948684,0.2539257705211639
2024-12-07 17:59:56.553048300,4.73804833984375,-0.1140906885266304,0.1409787386655807,0.3282844126224518
2024-12-07 17:59:56.563021300,4.748021240234375,-0.0455635525286197,0.1744466871023178,0.400885134935379
2024-12-07 17:59:56.572994300,4.757994384765625,0.0638814866542816,0.2307092100381851,0.4550250768661499
2024-12-07 17:59:56.582967300,4.76796728515625,0.1429198533296585,0.3952369391918182,0.4369134604930877
2024-12-07 17:59:56.592940300,4.777940185546875,0.2658952474594116,0.3917332589626312,0.4881172478199005
2024-12-07 17:59:56.602914300,4.787914306640625,0.3631157875061035,0.3066407442092895,0.5583285689353943
2024-12-07 17:59:56.612887300,4.79788720703125,0.4307605326175689,0.1280060410499572,0.6252156496047974
2024-12-07 17:59:56.622860500,4.807860595703125,0.464757889509201,-0.1558869183063507,0.7077161073684692
2024-12-07 17:59:56.632833300,4.817833251953125,0.4584705531597137,-0.447176843881607,0.8167086839675903
2024-12-07 17:59:56.642806300,4.82780615234375,0.4361497759819031,-0.6372445225715637,0.9547070264816284
2024-12-07 17:59:56.652779300,4.837779296875,0.4086540043354034,-0.6804371476173401,1.1300573348999023
2024-12-07 17:59:56.662752500,4.84775244140625,0.3794553875923157,-0.6277531385421753,1.3247439861297607
2024-12-07 17:59:56.672725500,4.8577255859375,0.3282642662525177,-0.6016712188720703,1.5092711448669434
2024-12-07 17:59:56.682698200,4.8676982421875,0.2292418032884597,-0.735593318939209,1.678447961807251
2024-12-07 17:59:56.692672300,4.87767236328125,0.0974606424570083,-0.9018304347991944,1.7865915298461914
2024-12-07 17:59:56.702645200,4.887645263671875,-0.0090215886011719,-0.8950271010398865,1.7051671743392944
2024-12-07 17:59:56.712618200,4.8976181640625,-0.0729645788669586,-0.5388870239257812,1.4427757263183594
2024-12-07 17:59:56.722591500,4.907591552734375,-0.0482379309833049,0.1276188045740127,1.0645384788513184
2024-12-07 17:59:56.732564500,4.917564453125,0.0882458761334419,0.7118716239929199,0.7251734733581543
2024-12-07 17:59:56.742537200,4.927537109375,0.2434754371643066,1.0668563842773438,0.5562797784805298
2024-12-07 17:59:56.752510200,4.93751025390625,0.328443318605423,1.3415566682815552,0.5858901143074036
2024-12-07 17:59:56.762483500,4.9474833984375,0.3333390057086944,1.6100232601165771,0.7461791634559631
2024-12-07 17:59:56.772456400,4.95745654296875,0.296401709318161,1.7977112531661987,0.890934407711029
2024-12-07 17:59:56.782429400,4.967429443359375,0.2490848004817962,1.7547204494476318,0.8707367181777954
2024-12-07 17:59:56.792403200,4.9774033203125,0.2046669572591781,1.5256117582321167,0.6446700692176819
2024-12-07 17:59:56.802376200,4.987376220703125,0.1951264441013336,1.1917482614517212,0.3059846758842468
2024-12-07 17:59:56.812349400,4.997349365234375,0.2225201576948166,0.8303068280220032,-0.0077364626340568
2024-12-07 17:59:56.822322400,5.007322509765625,0.258256047964096,0.5285717248916626,-0.2222887128591537
2024-12-07 17:59:56.832295400,5.01729541015625,0.2823124527931213,0.3371050953865051,-0.3017864525318146
2024-12-07 17:59:56.842268200,5.02726806640625,0.2684571146965027,0.2287535667419433,-0.2574972808361053
2024-12-07 17:59:56.852241200,5.0372412109375,0.1851063966751098,0.1405369788408279,-0.1148286014795303
2024-12-07 17:59:56.862214400,5.04721435546875,0.0537302754819393,0.0820963159203529,0.0349760763347148
2024-12-07 17:59:56.872187400,5.0571875,-0.0765953660011291,0.0348655208945274,0.1309551298618316
2024-12-07 17:59:56.882161400,5.067161376953125,-0.1555940508842468,0.0163397714495658,0.1415065824985504
2024-12-07 17:59:56.892134400,5.077134521484375,-0.1860883384943008,-0.0181316453963518,0.0859311521053314
2024-12-07 17:59:56.902107100,5.087107177734375,-0.1773193478584289,-0.0785635635256767,-0.0071290209889411
2024-12-07 17:59:56.912080400,5.097080322265625,-0.1437945514917373,-0.1749902069568634,-0.1011604592204094
2024-12-07 17:59:56.922053400,5.107053466796875,-0.1054831147193908,-0.3379266560077667,-0.1867478042840957
2024-12-07 17:59:56.932026400,5.1170263671875,-0.1101559624075889,-0.601438045501709,-0.2468643486499786
2024-12-07 17:59:56.941999400,5.126999267578125,-0.1584055125713348,-0.861380398273468,-0.285718560218811
2024-12-07 17:59:56.951972400,5.136972412109375,-0.2054837793111801,-0.954028308391571,-0.3237141668796539
2024-12-07 17:59:56.961945300,5.1469453125,-0.2202494144439697,-0.8417268395423889,-0.3653798401355743
2024-12-07 17:59:56.971919400,5.15691943359375,-0.2201841622591018,-0.5984131097793579,-0.4003607034683227
2024-12-07 17:59:56.981892400,5.166892333984375,-0.2233924716711044,-0.3787901997566223,-0.4069719910621643
2024-12-07 17:59:56.991865300,5.176865234375,-0.2530871629714966,-0.255118191242218,-0.422881156206131
2024-12-07 17:59:57.001838300,5.18683837890625,-0.2956008017063141,-0.2441308051347732,-0.4669663310050964
2024-12-07 17:59:57.011811300,5.196811279296875,-0.3137869238853454,-0.3882125616073608,-0.5248589515686035
2024-12-07 17:59:57.021784300,5.206784423828125,-0.299846887588501,-0.568485677242279,-0.551935076713562
2024-12-07 17:59:57.031757300,5.21675732421875,-0.2557752430438995,-0.6690345406532288,-0.5246296525001526
2024-12-07 17:59:57.041730300,5.226730224609375,-0.1743243336677551,-0.6796025037765503,-0.4053229689598083
2024-12-07 17:59:57.051703600,5.23670361328125,-0.0562237948179245,-0.5790026783943176,-0.1764035820960998
2024-12-07 17:59:57.061677600,5.246677490234375,0.0950823724269867,-0.3777849078178406,0.0940633192658424
2024-12-07 17:59:57.071650300,5.256650390625,0.2068981230258941,-0.2209832370281219,0.2617722451686859
2024-12-07 17:59:57.081623300,5.266623291015625,0.2408182770013809,-0.2689717710018158,0.2800852060317993
2024-12-07 17:59:57.091596300,5.27659619140625,0.2419925928115844,-0.4362042844295501,0.1817167550325393
2024-12-07 17:59:57.101569500,5.286569580078125,0.2471218407154083,-0.5248827934265137,0.0398315265774726
2024-12-07 17:59:57.111542300,5.296542236328125,0.2913752198219299,-0.4689056873321533,-0.0970538705587387
2024-12-07 17:59:57.121515300,5.306515380859375,0.373033344745636,-0.3186908960342407,-0.1789348870515823
2024-12-07 17:59:57.131488300,5.31648828125,0.430141419172287,-0.1718375533819198,-0.1936323344707489
2024-12-07 17:59:57.141461200,5.326461181640625,0.4325513243675232,-0.0919001102447509,-0.2122712731361389
2024-12-07 17:59:57.151435300,5.336435302734375,0.4086213111877441,-0.0464263893663883,-0.2432078123092651
2024-12-07 17:59:57.161408500,5.346408447265625,0.3703029453754425,0.049390684813261,-0.2022862136363983
2024-12-07 17:59:57.171381200,5.35638134765625,0.3087480664253235,0.2967812120914459,-0.0725053921341896
2024-12-07 17:59:57.181354200,5.366354248046875,0.2362810373306274,0.6523007154464722,0.0010745548643171
2024-12-07 17:59:57.191327200,5.3763271484375,0.2297680228948593,0.8402044177055359,-0.0360210910439491
2024-12-07 17:59:57.201300500,5.386300537109375,0.1983086317777633,0.8646125197410583,-0.0838301554322242
2024-12-07 17:59:57.211273500,5.3962734375,0.1091852784156799,0.7572627067565918,-0.0756433457136154
2024-12-07 17:59:57.221246200,5.40624609375,-0.000300201238133,0.4669451415538788,-0.0110430503264069
2024-12-07 17:59:57.231219200,5.41621923828125,-0.1166854277253151,-0.0431678555905818,5.4633244872e-05
2024-12-07 17:59:57.241193200,5.426193115234375,-0.2411258965730667,-0.648524284362793,-0.1336033046245575
2024-12-07 17:59:57.251166500,5.43616650390625,-0.3099142014980316,-1.182197093963623,-0.3622243106365204
2024-12-07 17:59:57.261139500,5.446139404296875,-0.3065058887004852,-1.5037438869476318,-0.580312967300415
2024-12-07 17:59:57.271112400,5.456112548828125,-0.2526910006999969,-1.5059512853622437,-0.7112967371940613
2024-12-07 17:59:57.281085200,5.466085205078125,-0.1852435320615768,-1.2023687362670898,-0.740007758140564
2024-12-07 17:59:57.291058200,5.47605810546875,-0.136968731880188,-0.6819685697555542,-0.6752783060073853
2024-12-07 17:59:57.301031400,5.486031494140625,-0.1078744977712631,-0.0886990949511528,-0.5784180760383606
2024-12-07 17:59:57.311004400,5.49600439453125,-0.0385680273175239,0.3326937854290008,-0.4971413016319275
2024-12-07 17:59:57.320977400,5.505977294921875,0.0633327737450599,0.4706607162952423,-0.4317511320114136
2024-12-07 17:59:57.330951400,5.515951416015625,0.133713498711586,0.4224033653736114,-0.3849780261516571
2024-12-07 17:59:57.340924200,5.525924072265625,0.1571237444877624,0.2734863460063934,-0.3670980930328369
2024-12-07 17:59:57.350897400,5.5358974609375,0.1506145447492599,0.0657672584056854,-0.3906478583812713
2024-12-07 17:59:57.360870400,5.545870361328125,0.1310640126466751,-0.1701856255531311,-0.4475055634975433
2024-12-07 17:59:57.370843400,5.555843505859375,0.0958265885710716,-0.4043565988540649,-0.5220403075218201
2024-12-07 17:59:57.380816100,5.565816162109375,0.0392591878771781,-0.5491465926170349,-0.5842152833938599
2024-12-07 17:59:57.390789400,5.575789306640625,-0.0254580564796924,-0.5317680239677429,-0.6076934337615967
2024-12-07 17:59:57.400762400,5.585762451171875,-0.0886292979121208,-0.3829061090946197,-0.5998315215110779
2024-12-07 17:59:57.410735400,5.5957353515625,-0.1304969042539596,-0.1702400892972946,-0.5308688282966614
2024-12-07 17:59:57.420709400,5.60570947265625,-0.1633877456188202,0.0545661114156246,-0.4212616980075836
2024-12-07 17:59:57.430682400,5.615682373046875,-0.1938778162002563,0.2580357789993286,-0.2825488746166229
2024-12-07 17:59:57.440655000,5.625655029296875,-0.2336270958185196,0.377478539943695,-0.1308578848838806
2024-12-07 17:59:57.450628400,5.63562841796875,-0.2774118781089782,0.4192894101142883,-0.0222467500716447
2024-12-07 17:59:57.460601300,5.645601318359375,-0.310977041721344,0.3308245241641998,0.0440776795148849
2024-12-07 17:59:57.470574300,5.65557421875,-0.3160433173179626,0.1333608478307724,0.0364695712924003
2024-12-07 17:59:57.480547300,5.66554736328125,-0.2780482470989227,-0.1677981913089752,-0.0419341586530208
2024-12-07 17:59:57.490520300,5.675520263671875,-0.2206971347332,-0.4739745557308197,-0.159298837184906
2024-12-07 17:59:57.500493300,5.685493408203125,-0.1493499726057052,-0.6593545079231262,-0.2799885272979736
2024-12-07 17:59:57.510467300,5.69546728515625,-0.1052124053239822,-0.6625183820724487,-0.3694995045661926
2024-12-07 17:59:57.520440300,5.7054404296875,-0.0929392278194427,-0.4936201274394989,-0.4083576798439026
2024-12-07 17:59:57.530413300,5.715413330078125,-0.0711215436458587,-0.2659029066562652,-0.391148567199707
2024-12-07 17:59:57.540386600,5.725386474609375,-0.0387862399220466,-0.0483322218060493,-0.3415298759937286
2024-12-07 17:59:57.550359600,5.735359619140625,-0.0145426206290721,0.1305177211761474,-0.2752555608749389
2024-12-07 17:59:57.560332300,5.745332275390625,-0.018251871690154,0.2356654554605484,-0.2080879509449005
2024-12-07 17:59:57.570305300,5.75530517578125,-0.0410408414900302,0.2335651665925979,-0.1554183512926101
2024-12-07 17:59:57.580278300,5.7652783203125,-0.0625485330820083,0.1555270850658416,-0.1305417567491531
2024-12-07 17:59:57.590251500,5.77525146484375,-0.1194493025541305,0.0354829542338848,-0.102674975991249
2024-12-07 17:59:57.600225500,5.7852255859375,-0.1696421504020691,-0.0798590779304504,-0.0857641696929931
2024-12-07 17:59:57.610198500,5.795198486328125,-0.2007684260606765,-0.1336742490530014,-0.0844980999827385
2024-12-07 17:59:57.620171300,5.805171142578125,-0.2097459435462951,-0.0931382626295089,-0.0993375033140182
2024-12-07 17:59:57.630144300,5.815144287109375,-0.2400833070278167,0.0199062582105398,-0.1037922278046608
2024-12-07 17:59:57.640117500,5.825117431640625,-0.2682209312915802,0.156338945031166,-0.0972698852419853
2024-12-07 17:59:57.650090500,5.835090576171875,-0.2949607074260711,0.2546494007110595,-0.0730310678482055
2024-12-07 17:59:57.660063200,5.845063232421875,-0.2890722155570984,0.3024904429912567,-0.0566816553473472
2024-12-07 17:59:57.670036200,5.8550361328125,-0.2612647712230682,0.2811810076236725,-0.0633075982332229
2024-12-07 17:59:57.680009500,5.865009521484375,-0.251224935054779,0.223499596118927,-0.0891778096556663
2024-12-07 17:59:57.689983500,5.8749833984375,-0.2597332894802093,0.1455822587013244,-0.1135481670498848
2024-12-07 17:59:57.699956500,5.88495654296875,-0.2726024687290191,0.036346573382616,-0.1222782731056213
2024-12-07 17:59:57.709929500,5.894929443359375,-0.2906922996044159,-0.0997716411948204,-0.1148907020688057
2024-12-07 17:59:57.719902200,5.904902099609375,-0.2937746345996856,-0.2129011303186416,-0.1160092279314994
2024-12-07 17:59:57.729875200,5.914875244140625,-0.3216977119445801,-0.2875556349754333,-0.1209392175078392
2024-12-07 17:59:57.739848400,5.924848388671875,-0.337239921092987,-0.274657666683197,-0.1314914673566818
2024-12-07 17:59:57.749821400,5.934821533203125,-0.3178852796554565,-0.1621625125408172,-0.1524409800767898
2024-12-07 17:59:57.759794400,5.94479443359375,-0.2973621487617492,0.0155131984502077,-0.1852607131004333
2024-12-07 17:59:57.769767200,5.95476708984375,-0.2609614729881286,0.1958689242601394,-0.2192242294549942
2024-12-07 17:59:57.779741200,5.9647412109375,-0.2234881520271301,0.2799073755741119,-0.2053105384111404
2024-12-07 17:59:57.789714400,5.97471435546875,-0.1914136707782745,0.28269824385643,-0.1511370688676834
2024-12-07 17:59:57.799687400,5.9846875,-0.175793170928955,0.2397201508283615,-0.0684001073241233
2024-12-07 17:59:57.809660400,5.994660400390625,-0.1525858789682388,0.2388483732938766,0.0010170456953346
2024-12-07 17:59:57.819633400,6.00463330078125,-0.1154342517256736,0.228153109550476,0.0716904178261756
2024-12-07 17:59:57.829606400,6.0146064453125,-0.091589868068695,0.1873239874839782,0.1390266120433807
2024-12-07 17:59:57.839579400,6.024579345703125,-0.0670927762985229,0.0561244264245033,0.2124078869819641
2024-12-07 17:59:57.849552400,6.034552490234375,-0.0401819385588169,-0.106715589761734,0.331931859254837
2024-12-07 17:59:57.859525400,6.044525390625,0.0203868672251701,-0.1998399496078491,0.4608642756938934
2024-12-07 17:59:57.869499400,6.05449951171875,0.1058987751603126,-0.2031353116035461,0.5933363437652588
2024-12-07 17:59:57.879472400,6.064472412109375,0.1934786885976791,-0.0998099967837333,0.7059640884399414
2024-12-07 17:59:57.889445400,6.0744453125,0.2706491351127624,0.1009981334209442,0.8072906136512756
2024-12-07 17:59:57.899418400,6.08441845703125,0.3431534469127655,0.4048344492912292,0.9271403551101683
2024-12-07 17:59:57.909391400,6.094391357421875,0.4091542363166809,0.7845125198364258,1.0882840156555176
2024-12-07 17:59:57.919364400,6.1043642578125,0.4675754904747009,1.1739351749420166,1.263532280921936
2024-12-07 17:59:57.929337300,6.11433740234375,0.5259907841682434,1.4296128749847412,1.4263482093811035
2024-12-07 17:59:57.939310300,6.124310302734375,0.5932105779647827,1.4351767301559448,1.5851922035217283
2024-12-07 17:59:57.949284400,6.134284423828125,0.5721601843833923,1.033860683441162,1.695364236831665
2024-12-07 17:59:57.959257300,6.14425732421875,0.4272983074188232,0.2886118590831756,1.6924680471420288
2024-12-07 17:59:57.969230300,6.154230224609375,0.2724491953849792,-0.3027627766132355,1.52117657661438
2024-12-07 17:59:57.979203600,6.16420361328125,0.1661762595176696,-0.3536533713340759,1.1803569793701172
2024-12-07 17:59:57.989176300,6.17417626953125,0.0809720456600189,-0.0934585481882095,0.7699110507965088
2024-12-07 17:59:57.999149300,6.1841494140625,0.0300196502357721,0.2085953205823898,0.4751299917697906
2024-12-07 17:59:58.009122300,6.194122314453125,0.0193360522389411,0.3583793044090271,0.3627273738384247
2024-12-07 17:59:58.019095300,6.20409521484375,0.0202023796737194,0.3355847895145416,0.4059052169322967
2024-12-07 17:59:58.029068500,6.214068603515625,0.0250293239951133,0.1866154819726944,0.5358580946922302
2024-12-07 17:59:58.039042600,6.22404248046875,0.018641198053956,0.0698411986231803,0.6710705161094666
2024-12-07 17:59:58.049015300,6.234015380859375,-0.0081404829397797,-0.0060615260154008,0.646518349647522
2024-12-07 17:59:58.058988300,6.24398828125,-0.0197673104703426,-0.0830111727118492,0.4317849576473236
2024-12-07 17:59:58.068961300,6.253961181640625,-0.0055418061092495,-0.1593376845121383,0.1387804746627807
2024-12-07 17:59:58.078934500,6.2639345703125,0.0435173511505126,-0.2009855359792709,-0.0951515883207321
2024-12-07 17:59:58.088907500,6.273907470703125,0.1049392074346542,-0.1553770452737808,-0.2237648963928222
2024-12-07 17:59:58.098880300,6.28388037109375,0.1678313463926315,0.0103679820895195,-0.2773021459579468
2024-12-07 17:59:58.108853200,6.293853271484375,0.2148621380329132,0.2090916782617569,-0.2736155688762665
2024-12-07 17:59:58.118826500,6.303826416015625,0.244466632604599,0.3832592368125915,-0.2484061121940612
2024-12-07 17:59:58.128800500,6.313800537109375,0.2393359243869781,0.4858920872211456,-0.2246866524219513
2024-12-07 17:59:58.138773500,6.3237734375,0.2080877274274826,0.4704891741275787,-0.2014753371477127
2024-12-07 17:59:58.148746500,6.33374658203125,0.1524269580841064,0.3042995035648346,-0.1799540519714355
2024-12-07 17:59:58.158719200,6.34371923828125,0.0967269390821456,0.0689754039049148,-0.1942602843046188
2024-12-07 17:59:58.168692200,6.353692138671875,0.0628365278244018,-0.1254337280988693,-0.2668673396110534
2024-12-07 17:59:58.178665500,6.36366552734375,0.0546579584479332,-0.2960997521877289,-0.3492484986782074
2024-12-07 17:59:58.188638500,6.373638427734375,0.063236728310585,-0.4540071487426758,-0.4099130034446716
2024-12-07 17:59:58.198611500,6.383611572265625,0.0715122297406196,-0.6197191476821899,-0.4476606249809265
2024-12-07 17:59:58.208584200,6.393584228515625,0.0371243022382259,-0.8552761077880859,-0.4617327451705932
2024-12-07 17:59:58.218558200,6.40355810546875,-0.0544341094791889,-1.139882206916809,-0.434141606092453
2024-12-07 17:59:58.228531500,6.413531494140625,-0.1526082158088684,-1.2859035730361938,-0.357631653547287
2024-12-07 17:59:58.238504400,6.42350439453125,-0.2036676853895187,-1.1690064668655396,-0.26023930311203
2024-12-07 17:59:58.248477400,6.4334775390625,-0.1953083723783493,-0.8717387914657593,-0.1834833025932312
2024-12-07 17:59:58.258450200,6.4434501953125,-0.1683041900396347,-0.5149776935577393,-0.1358193755149841
2024-12-07 17:59:58.268423400,6.45342333984375,-0.1531112492084503,-0.1883373260498047,-0.1383656114339828
2024-12-07 17:59:58.278396400,6.463396484375,-0.1433768570423126,-0.0396945886313915,-0.1689429581165313
2024-12-07 17:59:58.288369400,6.473369384765625,-0.1272247284650802,-0.0533831231296062,-0.2043894082307815
2024-12-07 17:59:58.298342400,6.48334228515625,-0.0909237191081047,-0.0958235189318656,-0.2089380919933319
2024-12-07 17:59:58.308316400,6.49331640625,-0.0415664166212081,-0.080105111002922,-0.1475061029195785
2024-12-07 17:59:58.318289200,6.5032890625,0.0269886739552021,-0.0074034766294062,-0.0515484288334846
2024-12-07 17:59:58.328262400,6.513262451171875,0.0972831398248672,0.1135736554861068,0.0349619127810001
2024-12-07 17:59:58.338235400,6.5232353515625,0.163681611418724,0.2168478518724441,0.0877295136451721
2024-12-07 17:59:58.348208400,6.53320849609375,0.1934067904949188,0.2012496441602707,0.0904582887887954
2024-12-07 17:59:58.358181400,6.543181396484375,0.2057380229234695,0.0549334436655044,0.0564390644431114
2024-12-07 17:59:58.368154400,6.553154296875,0.2097906023263931,-0.1604896187782287,0.0084637943655252
2024-12-07 17:59:58.378127400,6.56312744140625,0.194178894162178,-0.3128194808959961,-0.0385005176067352
2024-12-07 17:59:58.388101400,6.573101318359375,0.1795237213373184,-0.308134377002716,-0.0316165499389171
2024-12-07 17:59:58.398074400,6.583074462890625,0.1893164366483688,-0.1918868571519851,0.0263687223196029
2024-12-07 17:59:58.408047400,6.59304736328125,0.2157114148139953,-0.0772001966834068,0.0845987275242805
2024-12-07 17:59:58.418020600,6.6030205078125,0.2600581049919128,-0.0812074542045593,0.0711955726146698
2024-12-07 17:59:58.427993300,6.612993408203125,0.3185777366161346,-0.2313748747110366,-0.0472141504287719
2024-12-07 17:59:58.437966300,6.62296630859375,0.3706273436546325,-0.3830714821815491,-0.1957040280103683
2024-12-07 17:59:58.447939300,6.632939208984375,0.3923253715038299,-0.332893431186676,-0.2540288269519806
2024-12-07 17:59:58.457912300,6.642912353515625,0.3461597263813019,-0.0297798886895179,-0.2065902054309845
2024-12-07 17:59:58.467885600,6.652885498046875,0.2352607548236847,0.4435917735099792,-0.1891771256923675
2024-12-07 17:59:58.477859600,6.662859619140625,0.1637884378433227,0.7442541122436523,-0.2190591245889663
2024-12-07 17:59:58.487832300,6.672832275390625,0.13649483025074,0.7319234609603882,-0.1724234223365783
2024-12-07 17:59:58.497805300,6.682805419921875,0.0693653300404548,0.6009025573730469,-0.0432713069021701
2024-12-07 17:59:58.507778300,6.6927783203125,-0.050952959805727,0.3881233930587768,0.0817396268248558
2024-12-07 17:59:58.517751600,6.70275146484375,-0.2097407430410385,0.0623298585414886,0.0686179623007774
2024-12-07 17:59:58.527724300,6.712724365234375,-0.309722751379013,-0.3081708252429962,-0.1123896986246109
2024-12-07 17:59:58.537697500,6.722697509765625,-0.3243895769119262,-0.6136106848716736,-0.3475577533245086
2024-12-07 17:59:58.547670300,6.732670166015625,-0.2918891906738281,-0.7156280279159546,-0.501797080039978
2024-12-07 17:59:58.557643500,6.7426435546875,-0.2529612183570862,-0.499651551246643,-0.561783492565155
2024-12-07 17:59:58.567617500,6.752617431640625,-0.2137888371944427,-0.0260371305048465,-0.5353164076805115
2024-12-07 17:59:58.577590500,6.762590576171875,-0.1801925301551818,0.5202712416648865,-0.4196792840957641
2024-12-07 17:59:58.587563500,6.7725634765625,-0.1539907604455948,0.956271231174469,-0.2681374549865722
2024-12-07 17:59:58.597536500,6.78253662109375,-0.1071412339806556,1.1807644367218018,-0.1581571698188781
2024-12-07 17:59:58.607509200,6.79250927734375,-0.0482997931540012,1.1590213775634766,-0.1345754414796829
2024-12-07 17:59:58.617482500,6.802482421875,-0.0176598560065031,0.9467732906341552,-0.202522799372673
2024-12-07 17:59:58.627455500,6.81245556640625,-0.0292024575173854,0.6378057599067688,-0.322887510061264
2024-12-07 17:59:58.637428500,6.822428466796875,-0.071110762655735,0.3354198038578033,-0.4377930760383606
2024-12-07 17:59:58.647401500,6.8324013671875,-0.1475982367992401,0.0784437656402587,-0.5321837067604065
2024-12-07 17:59:58.657375500,6.84237548828125,-0.2261742800474167,-0.1463504582643509,-0.6060470342636108
2024-12-07 17:59:58.667348500,6.852348388671875,-0.2787187993526459,-0.3083426654338836,-0.6594415903091431
2024-12-07 17:59:58.677321500,6.862321533203125,-0.2797358632087707,-0.4002377092838287,-0.6906448006629944
2024-12-07 17:59:58.687294500,6.87229443359375,-0.2696345746517181,-0.4182669818401336,-0.7224266529083252
2024-12-07 17:59:58.697267500,6.882267333984375,-0.2349139153957367,-0.4321005344390869,-0.7223275303840637
2024-12-07 17:59:58.707240700,6.89224072265625,-0.2015409022569656,-0.4375980198383331,-0.7343781590461731
2024-12-07 17:59:58.717213400,6.90221337890625,-0.1639858037233352,-0.4796684980392456,-0.7250677347183228
2024-12-07 17:59:58.727186400,6.9121865234375,-0.1446507573127746,-0.5253918170928955,-0.7079406976699829
2024-12-07 17:59:58.737160400,6.922160400390625,-0.11992197483778,-0.6056320667266846,-0.6725155711174011
2024-12-07 17:59:58.747133400,6.932133544921875,-0.1043652519583702,-0.7075596451759338,-0.6308311820030212
2024-12-07 17:59:58.757106400,6.9421064453125,-0.1060108169913292,-0.7964360117912292,-0.5891103744506836
2024-12-07 17:59:58.767079400,6.952079345703125,-0.1080927178263664,-0.8218647241592407,-0.5479129552841187
2024-12-07 17:59:58.777052400,6.962052490234375,-0.11912352591753,-0.7381849884986877,-0.516139566898346
2024-12-07 17:59:58.787025400,6.972025390625,-0.0930178239941597,-0.63152676820755,-0.4729960560798645
2024-12-07 17:59:58.796998400,6.981998291015625,-0.0475265048444271,-0.4805092513561249,-0.4362934231758117
2024-12-07 17:59:58.806971600,6.9919716796875,-0.0191615782678127,-0.3076596856117248,-0.4094138741493225
2024-12-07 17:59:58.816944400,7.0019443359375,-0.0104799373075366,-0.1638053059577942,-0.3732708096504211
2024-12-07 17:59:58.826918400,7.01191845703125,-0.0081263994798064,-0.0752088278532028,-0.3172828555107116
2024-12-07 17:59:58.836891400,7.021891357421875,-0.0193311162292957,-0.0620107352733612,-0.2211968153715133
2024-12-07 17:59:58.846864400,7.031864501953125,-0.0276337601244449,-0.139468252658844,-0.0921435505151748
2024-12-07 17:59:58.856837600,7.041837646484375,-0.0266289487481117,-0.2448932081460952,0.0286574382334947
2024-12-07 17:59:58.866810600,7.051810546875,-0.0235151201486587,-0.360961377620697,0.0833595097064971
2024-12-07 17:59:58.876783400,7.061783447265625,-0.0230005960911512,-0.4700284898281097,0.0544532984495162
2024-12-07 17:59:58.886756400,7.07175634765625,-0.047490756958723,-0.5135651230812073,-0.0078457314521074
2024-12-07 17:59:58.896729300,7.081729248046875,-0.1218267753720283,-0.4423335194587707,-0.0558279044926166
2024-12-07 17:59:58.906703400,7.091703369140625,-0.1751932948827743,-0.2803256511688232,-0.0781233236193656
2024-12-07 17:59:58.916676600,7.101676513671875,-0.1989694684743881,-0.1170861348509788,-0.0559096336364746
2024-12-07 17:59:58.926649600,7.111649658203125,-0.2028127312660217,-0.0068076886236667,-0.017031006515026
2024-12-07 17:59:58.936622300,7.121622314453125,-0.2050646990537643,0.0963072478771209,0.0004507806152105
2024-12-07 17:59:58.946595300,7.13159521484375,-0.2283109277486801,0.1994480192661285,0.0085076969116926
2024-12-07 17:59:58.956568600,7.141568603515625,-0.2306571751832962,0.2790909111499786,-0.0067926961928606
2024-12-07 17:59:58.966541600,7.15154150390625,-0.2384438514709472,0.3181352317333221,-0.0165544990450143
2024-12-07 17:59:58.976514600,7.1615146484375,-0.2512885630130768,0.308025062084198,-0.0038331106770783
2024-12-07 17:59:58.986487300,7.1714873046875,-0.2369239926338195,0.2634320259094238,0.0062565417028963
2024-12-07 17:59:58.996461300,7.18146142578125,-0.2301909923553466,0.1994083076715469,0.0280257519334554
2024-12-07 17:59:59.006434600,7.1914345703125,-0.246435597538948,0.209720030426979,0.0267993807792663
2024-12-07 17:59:59.016407600,7.201407470703125,-0.25773486495018,0.2717463970184326,0.0058701308444142
2024-12-07 17:59:59.026380500,7.211380615234375,-0.2544684112071991,0.3065072298049927,-0.008936209604144
2024-12-07 17:59:59.036353300,7.221353271484375,-0.2570745944976806,0.3111286163330078,0.0056901378557085
2024-12-07 17:59:59.046326300,7.231326171875,-0.2185726463794708,0.2179847806692123,0.1153124570846557
2024-12-07 17:59:59.056299500,7.241299560546875,-0.1228570416569709,0.0356168337166309,0.3356901109218597
2024-12-07 17:59:59.066272500,7.2512724609375,0.0231823194772005,-0.15823894739151,0.5918383002281189
2024-12-07 17:59:59.076245500,7.26124560546875,0.196958377957344,-0.3231296241283417,0.80433189868927
2024-12-07 17:59:59.086219500,7.271219482421875,0.3307518064975738,-0.3384794890880584,0.8979247212409973
2024-12-07 17:59:59.096192300,7.281192138671875,0.3966458737850189,-0.2255646586418151,0.8482008576393127
2024-12-07 17:59:59.106165500,7.29116552734375,0.387516438961029,-0.0593480877578258,0.7045400142669678
2024-12-07 17:59:59.116138500,7.301138427734375,0.2955894470214844,0.1693516820669174,0.5883271098136902
2024-12-07 17:59:59.126111500,7.311111572265625,0.2151278555393219,0.4306711554527282,0.5930076837539673
2024-12-07 17:59:59.136084500,7.32108447265625,0.1980159729719162,0.6446055769920349,0.6824867129325867
2024-12-07 17:59:59.146057500,7.331057373046875,0.2115546613931656,0.74900221824646,0.8048072457313538
2024-12-07 17:59:59.156030500,7.341030517578125,0.222316488623619,0.7361854910850525,0.941978394985199
2024-12-07 17:59:59.166004500,7.35100439453125,0.2217571139335632,0.6387053728103638,1.0556514263153076
2024-12-07 17:59:59.175977500,7.3609775390625,0.2145543396472931,0.4962154030799866,1.1042345762252808
2024-12-07 17:59:59.185950500,7.370950439453125,0.1925302296876907,0.2984925210475921,1.0741530656814575
2024-12-07 17:59:59.195923500,7.38092333984375,0.1314572840929031,0.044966522604227,0.9685328006744384
2024-12-07 17:59:59.205896400,7.390896484375,0.0593061372637748,-0.0179373435676097,0.8236531019210815
2024-12-07 17:59:59.215869400,7.400869384765625,-0.0030001164413988,0.0807434245944023,0.6944628953933716
2024-12-07 17:59:59.225842400,7.410842529296875,-0.0611191838979721,0.1670404523611068,0.6258012652397156
2024-12-07 17:59:59.235815400,7.4208154296875,-0.1069854721426963,0.2504898011684418,0.6559690237045288
2024-12-07 17:59:59.245788700,7.43078857421875,-0.1381656974554062,0.3007164597511291,0.7110059261322021
2024-12-07 17:59:59.255762700,7.4407626953125,-0.120150476694107,0.3323012888431549,0.7124037742614746
2024-12-07 17:59:59.265735400,7.4507353515625,-0.0615413561463356,0.3174029588699341,0.6207234859466553
2024-12-07 17:59:59.275708400,7.46070849609375,0.0014051190810278,0.2594003677368164,0.4618227481842041
2024-12-07 17:59:59.285681400,7.470681396484375,0.0607960075139999,0.2287697494029998,0.2939264178276062
2024-12-07 17:59:59.295654700,7.480654541015625,0.1067781448364257,0.2664069235324859,0.1874036788940429
2024-12-07 17:59:59.305627400,7.49062744140625,0.1515957862138748,0.3280062973499298,0.1719770282506942
2024-12-07 17:59:59.315600400,7.500600341796875,0.2056033611297607,0.4699658155441284,0.2311351597309112
2024-12-07 17:59:59.325573400,7.510573486328125,0.2254244238138198,0.6559706926345825,0.3054648041725158
2024-12-07 17:59:59.335546400,7.52054638671875,0.1948779672384262,0.7877255082130432,0.3483129441738128
2024-12-07 17:59:59.345520400,7.530520263671875,0.1668418794870376,0.8445449471473694,0.3478535115718841
2024-12-07 17:59:59.355493600,7.54049365234375,0.1358336359262466,0.8528105616569519,0.300268143415451
2024-12-07 17:59:59.365466400,7.55046630859375,0.1125009134411811,0.7711445093154907,0.2315117716789245
2024-12-07 17:59:59.375439400,7.560439453125,0.0869516059756279,0.6089851260185242,0.1567784249782562
2024-12-07 17:59:59.385412400,7.570412353515625,0.0745244026184082,0.4166670739650726,0.0903064087033271
2024-12-07 17:59:59.395385600,7.580385498046875,0.0824158787727356,0.2215870469808578,0.037893533706665
2024-12-07 17:59:59.405358600,7.590358642578125,0.0990804806351661,0.0917869508266449,-0.0359798818826675
2024-12-07 17:59:59.415331300,7.600331298828125,0.1276567280292511,0.0547322556376457,-0.1179804727435112
2024-12-07 17:59:59.425305300,7.610305419921875,0.1705043166875839,0.0962836891412735,-0.163224920630455
2024-12-07 17:59:59.435278300,7.6202783203125,0.1902165114879608,0.1452057063579559,-0.1574940532445907
2024-12-07 17:59:59.445251600,7.63025146484375,0.1905318945646286,0.1597974151372909,-0.1258668899536132
2024-12-07 17:59:59.455224600,7.640224609375,0.17574043571949,0.0668967589735984,-0.1336076408624649
2024-12-07 17:59:59.465197600,7.650197509765625,0.1736555844545364,-0.1037525087594986,-0.2012630999088287
2024-12-07 17:59:59.475170300,7.66017041015625,0.212783008813858,-0.2503368854522705,-0.2818681895732879
2024-12-07 17:59:59.485143300,7.670143310546875,0.2587565779685974,-0.3454670906066894,-0.3602373003959656
2024-12-07 17:59:59.495116500,7.680116455078125,0.2553637027740478,-0.3811976611614227,-0.435659646987915
2024-12-07 17:59:59.505090600,7.690090576171875,0.2154709547758102,-0.3381228744983673,-0.4991875290870666
2024-12-07 17:59:59.515063600,7.7000634765625,0.1775265038013458,-0.2418099194765091,-0.5228627920150757
2024-12-07 17:59:59.525036500,7.71003662109375,0.1706148386001587,-0.1072010472416877,-0.4862135946750641
2024-12-07 17:59:59.535009300,7.72000927734375,0.1993474215269088,0.0415737777948379,-0.3892851769924164
2024-12-07 17:59:59.544982800,7.729982666015625,0.2011415064334869,0.1616970002651214,-0.2577261626720428
2024-12-07 17:59:59.554956000,7.7399560546875,0.1660977602005005,0.2359528541564941,-0.1245289593935012
2024-12-07 17:59:59.564928800,7.7499287109375,0.1129789426922798,0.2118269354104995,0.0124691408127546
2024-12-07 17:59:59.574901800,7.75990185546875,0.0510138496756553,0.1775384694337844,0.1216882988810539
2024-12-07 17:59:59.584874800,7.769874755859375,-0.0169252920895814,0.1370114982128143,0.2191176116466522
2024-12-07 17:59:59.594848800,7.779848876953125,-0.0924269706010818,0.0887912437319755,0.2923345863819122
2024-12-07 17:59:59.604822000,7.789822021484375,-0.1737450212240219,-0.0141782751306891,0.3214704394340515
2024-12-07 17:59:59.614795000,7.799794921875,-0.2230537086725235,-0.2061759382486343,0.3041851818561554
2024-12-07 17:59:59.624767700,7.809767822265625,-0.2188287824392318,-0.4517062902450561,0.2702890336513519
2024-12-07 17:59:59.634740700,7.81974072265625,-0.1573473215103149,-0.6612424850463867,0.2309400290250778
2024-12-07 17:59:59.644714000,7.8297138671875,-0.0998094528913497,-0.7923799157142639,0.17256560921669
2024-12-07 17:59:59.654687000,7.83968701171875,-0.0979843884706497,-0.919546604156494,0.1057586148381233
2024-12-07 17:59:59.664660000,7.849659912109375,-0.122347317636013,-1.1166447401046753,0.0600153766572475
2024-12-07 17:59:59.674634000,7.859634033203125,-0.1376879215240478,-1.3234128952026367,0.0426414497196674
2024-12-07 17:59:59.684606700,7.869606689453125,-0.1477517783641815,-1.435742735862732,0.0631104707717895
2024-12-07 17:59:59.694579700,7.879579833984375,-0.1783512234687805,-1.396958827972412,0.1294748485088348
2024-12-07 17:59:59.704553000,7.889552978515625,-0.1906115561723709,-1.273707151412964,0.2171052098274231
2024-12-07 17:59:59.714526000,7.89952587890625,-0.1465945690870285,-1.1449127197265625,0.3131084740161896
2024-12-07 17:59:59.724499000,7.9094990234375,-0.012116253376007,-1.072171926498413,0.3001205921173095
2024-12-07 17:59:59.743199700,7.92819970703125,0.2710520029067993,-0.7161679267883301,-0.0415467396378517
2024-12-07 17:59:59.753173000,7.938173095703125,0.3196323215961456,-0.2301053404808044,-0.1913588792085647
2024-12-07 17:59:59.763146000,7.94814599609375,0.4316894710063934,0.4042721390724182,-0.3408636152744293
2024-12-07 17:59:59.773119000,7.958118896484375,0.5658784508705139,1.0475298166275024,-0.3810320794582367
2024-12-07 17:59:59.783091700,7.968091796875,0.6110414266586304,1.3285671472549438,-0.2428076416254043
2024-12-07 17:59:59.793065000,7.97806494140625,0.5506259799003601,1.333154559135437,-0.1085811182856559
2024-12-07 17:59:59.803038000,7.988037841796875,0.4157028794288635,1.2371984720230105,-0.035532496869564
2024-12-07 17:59:59.813012000,7.998011962890625,0.215982586145401,0.9743143916130066,0.0502612367272377
2024-12-07 17:59:59.822985000,8.00798486328125,0.0049619725905358,0.3010891675949096,0.122436985373497
2024-12-07 17:59:59.832958000,8.0179580078125,-0.1777226328849792,-0.744756281375885,0.0403847247362136
2024-12-07 17:59:59.842930700,8.0279306640625,-0.3326488137245178,-1.614324688911438,-0.1643000990152359
2024-12-07 17:59:59.852904000,8.037904052734374,-0.4441175460815429,-2.0009889602661133,-0.3661498725414276
2024-12-07 17:59:59.862877000,8.047876953125,-0.4695063531398773,-1.8193668127059937,-0.5276077389717102
2024-12-07 17:59:59.872850000,8.057849853515625,-0.3768395185470581,-1.253800630569458,-0.6052796244621277
2024-12-07 17:59:59.882823000,8.067822998046875,-0.2504661083221435,-0.5643913149833679,-0.5637661814689636
2024-12-07 17:59:59.892797000,8.077796875,-0.16110160946846,0.1073053330183029,-0.4502484202384949
2024-12-07 17:59:59.902770000,8.08777001953125,-0.1158351302146911,0.6932377815246582,-0.3341210186481476
2024-12-07 17:59:59.912743000,8.097742919921876,-0.0631325021386146,1.0748738050460815,-0.2753549218177795
2024-12-07 17:59:59.922716000,8.1077158203125,-0.0315422192215919,1.208250880241394,-0.2971537411212921
2024-12-07 17:59:59.932689000,8.11768896484375,-0.0585621185600757,1.149082064628601,-0.373812586069107
2024-12-07 17:59:59.942662000,8.127661865234375,-0.1172302514314651,0.976217806339264,-0.461382508277893
2024-12-07 17:59:59.952635000,8.137634765625,-0.1689176857471466,0.7198283672332764,-0.5539369583129883
2024-12-07 17:59:59.962607900,8.14760791015625,-0.2069078981876373,0.4076489806175232,-0.646520733833313
2024-12-07 17:59:59.972582000,8.157581787109375,-0.2433841526508331,0.0986282676458358,-0.7209667563438416
2024-12-07 17:59:59.982555000,8.167554931640625,-0.2759405672550201,-0.1725612878799438,-0.7684178948402405
2024-12-07 17:59:59.992528000,8.17752783203125,-0.3012235462665558,-0.3867374956607818,-0.7792790532112122
2024-12-07 18:00:00.002500900,8.1875009765625,-0.3105020821094513,-0.5826528072357178,-0.7668919563293457
2024-12-07 18:00:00.012473900,8.197473876953126,-0.287062257528305,-0.7735604643821716,-0.7496107220649719
2024-12-07 18:00:00.022446800,8.20744677734375,-0.2319244146347046,-0.8899632096290588,-0.7406759858131409
2024-12-07 18:00:00.032419800,8.217419921875,-0.1860213726758957,-0.8753888010978699,-0.7294113636016846
2024-12-07 18:00:00.042393000,8.22739306640625,-0.1630610525608062,-0.7765241861343384,-0.6999701261520386
2024-12-07 18:00:00.052365800,8.23736572265625,-0.1440570056438446,-0.6511982083320618,-0.6675639748573303
2024-12-07 18:00:00.062339800,8.24733984375,-0.1236651837825775,-0.534911036491394,-0.6410154700279236
2024-12-07 18:00:00.072312800,8.257312744140625,-0.120460107922554,-0.4438276290893554,-0.6039309501647949
2024-12-07 18:00:00.082285800,8.267285888671875,-0.131649374961853,-0.3761170208454132,-0.5591202974319458
2024-12-07 18:00:00.092258800,8.2772587890625,-0.1443521678447723,-0.3186419904232025,-0.4998733103275299
2024-12-07 18:00:00.102232000,8.287232177734374,-0.1550093293190002,-0.2490562498569488,-0.4446398615837097
2024-12-07 18:00:00.112204800,8.297204833984376,-0.1790861934423446,-0.1754755824804306,-0.3935843110084533
2024-12-07 18:00:00.122177800,8.307177734375,-0.1880751699209213,-0.1093135923147201,-0.3516701757907867
2024-12-07 18:00:00.132150800,8.31715087890625,-0.1863041371107101,-0.0460301116108894,-0.3037986159324646
2024-12-07 18:00:00.142124800,8.327124755859375,-0.1737886220216751,0.0145823704078793,-0.2419770807027816
2024-12-07 18:00:00.152098000,8.33709814453125,-0.1569990217685699,0.0514377988874912,-0.1855955868959427
2024-12-07 18:00:00.162071000,8.347071044921876,-0.1525065302848816,0.0422035530209541,-0.15801402926445
2024-12-07 18:00:00.172043800,8.357043701171875,-0.1543391495943069,0.0026475167833268,-0.1787847131490707
2024-12-07 18:00:00.182016800,8.367016845703125,-0.1724662184715271,-0.0557156577706337,-0.2273812741041183
2024-12-07 18:00:00.191990000,8.376989990234375,-0.229161188006401,-0.088184654712677,-0.2427839338779449
2024-12-07 18:00:00.201963000,8.386962890625,-0.2520300149917602,-0.0600299797952175,-0.2157581746578216
2024-12-07 18:00:00.211936000,8.39693603515625,-0.2811719179153442,-0.0088742524385452,-0.1306886225938797
2024-12-07 18:00:00.221909800,8.40690966796875,-0.2869379222393036,0.0663975998759269,-0.0373663939535617
2024-12-07 18:00:00.231882800,8.4168828125,-0.2573696672916412,0.1553784161806106,0.0170582570135593
2024-12-07 18:00:00.241855700,8.426855712890625,-0.2143939882516861,0.2241321802139282,0.0251782350242137
2024-12-07 18:00:00.251829000,8.4368291015625,-0.1818137168884277,0.3033658862113952,-0.001705580856651
2024-12-07 18:00:00.261802000,8.446802001953126,-0.1476237773895263,0.3720983266830444,-0.0490408726036548
2024-12-07 18:00:00.271774700,8.456774658203125,-0.1482179015874862,0.4203249812126159,-0.0546090640127658
2024-12-07 18:00:00.281747700,8.466747802734375,-0.1402878165245056,0.4614827930927276,-0.0411406606435775
2024-12-07 18:00:00.291721000,8.476720947265624,-0.1159112006425857,0.4421454071998596,-0.005751225631684
2024-12-07 18:00:00.301694000,8.48669384765625,-0.0873794257640838,0.3824482560157776,0.0422778204083442
2024-12-07 18:00:00.311668000,8.49666796875,-0.0616357997059822,0.2608695328235626,0.0934276580810546
2024-12-07 18:00:00.321641000,8.506640869140625,-0.0772158280014991,0.1339326351881027,0.0901724770665168
2024-12-07 18:00:00.331613700,8.51661376953125,-0.1000012829899787,0.0022299119736999,0.0431654155254364
2024-12-07 18:00:00.341587000,8.5265869140625,-0.1070200428366661,-0.0973187834024429,0.0173772256821393
2024-12-07 18:00:00.351560000,8.536559814453126,-0.0792034417390823,-0.1087410449981689,0.03181779012084
2024-12-07 18:00:00.361533000,8.546532958984375,0.0038773259148001,-0.1401535719633102,0.1283464580774307
2024-12-07 18:00:00.371506000,8.556505859375,0.1165975481271743,-0.2171761244535446,0.2769004702568054
2024-12-07 18:00:00.381480000,8.56647998046875,0.2277197986841201,-0.3264770209789276,0.4083048403263092
2024-12-07 18:00:00.391452700,8.57645263671875,0.3131194710731506,-0.3714123070240021,0.467862457036972
2024-12-07 18:00:00.401426000,8.586426025390624,0.3414989113807678,-0.2762503921985626,0.4660760164260864
2024-12-07 18:00:00.411399000,8.59639892578125,0.3285327553749084,-0.078572116792202,0.4640350043773651
2024-12-07 18:00:00.421372000,8.606371826171875,0.3019192516803741,0.1493880897760391,0.4738615453243255
2024-12-07 18:00:00.431345000,8.616344970703125,0.2723694145679474,0.3617876768112182,0.497641921043396
2024-12-07 18:00:00.441318000,8.62631787109375,0.2483453154563903,0.53873610496521,0.5271822214126587
2024-12-07 18:00:00.451291000,8.636290771484376,0.2265653610229492,0.68994140625,0.5650014877319336
2024-12-07 18:00:00.461264000,8.646263916015625,0.2114719003438949,0.8451855778694153,0.6335283517837524
2024-12-07 18:00:00.471238000,8.65623779296875,0.2329334169626236,1.0030779838562012,0.7599523663520813
2024-12-07 18:00:00.481211000,8.6662109375,0.291913092136383,1.0902427434921265,0.9608436226844788
2024-12-07 18:00:00.491183900,8.676183837890624,0.3701381087303161,1.0680623054504397,1.208146095275879
2024-12-07 18:00:00.501156900,8.686156982421876,0.4314826726913452,0.8646023869514465,1.415926218032837
2024-12-07 18:00:00.511129900,8.6961298828125,0.4130244851112366,0.4786588847637176,1.4975733757019043
2024-12-07 18:00:00.521102800,8.706102783203125,0.2878601849079132,0.1134417951107025,1.4228624105453491
2024-12-07 18:00:00.531075800,8.716075927734375,0.1423592269420623,0.0632280707359314,1.1996066570281982
2024-12-07 18:00:00.541048800,8.726048828125,0.0426092073321342,0.327308714389801,0.9321646094322203
2024-12-07 18:00:00.551022800,8.73602294921875,0.0218352228403091,0.624182403087616,0.7451039552688599
2024-12-07 18:00:00.560995800,8.745995849609375,0.055978812277317,0.8215756416320801,0.699000358581543
2024-12-07 18:00:00.570968600,8.755968505859375,0.1270390748977661,0.9836850762367249,0.7539706230163574
2024-12-07 18:00:00.580941600,8.765941650390625,0.2083355188369751,1.158074975013733,0.8304004073143005
2024-12-07 18:00:00.590914800,8.775914794921874,0.2777632772922516,1.282691478729248,0.8542360663414001
2024-12-07 18:00:00.600887800,8.7858876953125,0.3429777026176452,1.2838627099990845,0.7799825668334961
2024-12-07 18:00:00.610860800,8.79586083984375,0.4059746265411377,1.1733204126358032,0.5871549844741821
2024-12-07 18:00:00.620833500,8.80583349609375,0.4302280247211456,0.9942063689231871,0.2930453717708587
2024-12-07 18:00:00.630807600,8.8158076171875,0.4349419772624969,0.8517706394195557,-0.0051058973185718
2024-12-07 18:00:00.640780800,8.82578076171875,0.4233620166778564,0.7786492705345154,-0.2324655503034591
2024-12-07 18:00:00.650753800,8.83575390625,0.4243733584880829,0.7140877842903137,-0.3547256886959076
2024-12-07 18:00:00.660726800,8.845726806640625,0.4373030066490173,0.6482054591178894,-0.3801833987236023
2024-12-07 18:00:00.670699500,8.855699462890625,0.4307950139045715,0.5551014542579651,-0.3590186834335327
2024-12-07 18:00:00.680672800,8.8656728515625,0.38644540309906,0.457278162240982,-0.3389996886253357
2024-12-07 18:00:00.690645800,8.875645751953124,0.3016356527805328,0.3461605012416839,-0.3361085951328277
2024-12-07 18:00:00.700618800,8.88561865234375,0.2060249596834182,0.1300338208675384,-0.3169751167297363
2024-12-07 18:00:00.710592800,8.8955927734375,0.1424658298492431,-0.1487939208745956,-0.2889274656772613
2024-12-07 18:00:00.720565800,8.905565673828125,0.1121231094002723,-0.4281312823295593,-0.2715199887752533
2024-12-07 18:00:00.730538500,8.91553857421875,0.0875146314501762,-0.7172213792800903,-0.2469078600406646
2024-12-07 18:00:00.740511700,8.92551171875,0.0231063477694988,-1.0523394346237185,-0.1968468278646469
2024-12-07 18:00:00.750484700,8.935484619140626,-0.0428640507161617,-1.3542375564575195,-0.1756728738546371
2024-12-07 18:00:00.760457700,8.945457763671875,-0.0919956415891647,-1.5480585098266602,-0.2161425352096557
2024-12-07 18:00:00.770430700,8.9554306640625,-0.1225683093070983,-1.555190086364746,-0.2966715395450592
2024-12-07 18:00:00.780403700,8.96540380859375,-0.1559233367443084,-1.381114482879639,-0.3760667741298675
2024-12-07 18:00:00.790377700,8.975377685546874,-0.1767290085554123,-1.089702844619751,-0.4285077452659607
2024-12-07 18:00:00.800350700,8.985350830078126,-0.1720785945653915,-0.7693226337432861,-0.4366881847381592
2024-12-07 18:00:00.810323700,8.99532373046875,-0.1654619723558426,-0.45692178606987,-0.3995594978332519
2024-12-07 18:00:00.820296700,9.005296630859375,-0.1699430048465728,-0.1966380029916763,-0.341272234916687
2024-12-07 18:00:00.830269700,9.015269775390625,-0.189830794930458,-0.0649842694401741,-0.2972962260246277
2024-12-07 18:00:00.840242700,9.02524267578125,-0.2145561277866363,-0.0875377804040908,-0.2542659342288971
2024-12-07 18:00:00.850215700,9.035215576171876,-0.2342378944158554,-0.2236934304237365,-0.1650833189487457
2024-12-07 18:00:00.860189700,9.045189697265624,-0.2063591331243515,-0.3368988037109375,-0.0001585355494171
2024-12-07 18:00:00.870162700,9.05516259765625,-0.1248666048049926,-0.3231548070907593,0.188208982348442
2024-12-07 18:00:00.880135700,9.0651357421875,-0.0219322331249713,-0.2210481166839599,0.3082381784915924
2024-12-07 18:00:00.890109000,9.07510888671875,0.070777490735054,-0.1427147090435028,0.3217081427574157
2024-12-07 18:00:00.900081700,9.08508154296875,0.1143614500761032,-0.1317605972290039,0.271592766046524
2024-12-07 18:00:00.910054700,9.0950546875,0.0990299731492996,-0.1317633390426635,0.2163982689380645
2024-12-07 18:00:00.920027600,9.105027587890625,0.0607193335890769,-0.1263073235750198,0.1927595138549804
2024-12-07 18:00:00.930001000,9.1150009765625,0.0221449360251426,-0.1546113938093185,0.2063143998384475
2024-12-07 18:00:00.939975000,9.124974853515624,-0.0197332724928855,-0.2237872630357742,0.2511777281761169
2024-12-07 18:00:00.949947600,9.13494775390625,-0.0761251375079155,-0.2612419724464416,0.3094368577003479
2024-12-07 18:00:00.959920600,9.144920654296875,-0.1238620281219482,-0.2230468988418579,0.3666516542434692
2024-12-07 18:00:00.969893600,9.1548935546875,-0.0943133905529975,-0.04311203956604,0.3700985908508301
2024-12-07 18:00:00.979866600,9.16486669921875,-0.0032684374600648,0.2417159676551818,0.2389509826898574
2024-12-07 18:00:00.989840000,9.17483984375,0.0852059051394462,0.5549771785736084,-0.0124032134190201
2024-12-07 18:00:00.999812600,9.1848125,0.1344826370477676,0.7404019236564636,-0.2666237652301788
2024-12-07 18:00:01.009785600,9.19478564453125,0.1374245285987854,0.6409611105918884,-0.4131500720977783
2024-12-07 18:00:01.019759600,9.204759521484377,0.1069779470562934,0.2848189771175384,-0.4190841317176819
2024-12-07 18:00:01.029732600,9.214732666015625,0.0781300142407417,-0.0283215772360563,-0.3285449743270874
2024-12-07 18:00:01.039705900,9.224705810546874,0.0768461003899574,-0.024040013551712,-0.2278844118118286
2024-12-07 18:00:01.049678800,9.234678955078126,0.1253402382135391,0.1636950373649597,-0.1710370779037475
2024-12-07 18:00:01.059651600,9.244651611328123,0.1815148293972015,0.3201243281364441,-0.1681936234235763
2024-12-07 18:00:01.069624600,9.25462451171875,0.2013275474309921,0.362788051366806,-0.2320379167795181
2024-12-07 18:00:01.079597800,9.264597900390624,0.1765023618936538,0.1802781671285629,-0.3533190786838531
2024-12-07 18:00:01.089570800,9.27457080078125,0.1337875574827194,-0.2537376880645752,-0.5010752081871033
2024-12-07 18:00:01.099544800,9.284544921875,0.0747244954109191,-0.7348347902297974,-0.6300185322761536
2024-12-07 18:00:01.109517800,9.294517822265624,-0.0364428721368312,-0.9678322076797484,-0.6566706299781799
2024-12-07 18:00:01.119490600,9.304490478515625,-0.1567908525466919,-0.9621101021766664,-0.5938363075256348
2024-12-07 18:00:01.129463600,9.314463623046874,-0.229122906923294,-0.8576952219009399,-0.4750556349754333
2024-12-07 18:00:01.139436800,9.324436767578124,-0.2615546286106109,-0.6468546390533447,-0.3290188014507293
2024-12-07 18:00:01.149409800,9.334409912109376,-0.2659075856208801,-0.358735978603363,-0.2030371278524398
2024-12-07 18:00:01.159382800,9.3443828125,-0.2548682689666748,-0.0685089230537414,-0.1413990706205368
2024-12-07 18:00:01.169355500,9.35435546875,-0.2427573949098587,0.2072600275278091,-0.1513789892196655
2024-12-07 18:00:01.179329500,9.36432958984375,-0.2223658412694931,0.3807601928710937,-0.2163393348455429
2024-12-07 18:00:01.189302800,9.374302734375,-0.1665017306804657,0.4466330409049988,-0.2873905897140503
2024-12-07 18:00:01.199275800,9.38427587890625,-0.1025512516498565,0.4710140228271484,-0.3267854154109955
2024-12-07 18:00:01.209248800,9.394248779296875,-0.0758504569530487,0.4756968319416046,-0.3265148103237152
2024-12-07 18:00:01.219221800,9.4042216796875,-0.0785761997103691,0.4556370973587036,-0.2967057824134826
2024-12-07 18:00:01.229194800,9.41419482421875,-0.1119496449828147,0.4227707684040069,-0.2583081126213074
2024-12-07 18:00:01.239167700,9.424167724609376,-0.1734739989042282,0.3573954999446869,-0.2150620818138122
2024-12-07 18:00:01.249140700,9.434140625,-0.2436269074678421,0.2415604293346405,-0.1893108934164047
2024-12-07 18:00:01.259114800,9.44411474609375,-0.2983732521533966,0.0996317788958549,-0.2078017443418502
2024-12-07 18:00:01.269087700,9.454087646484377,-0.325217604637146,-0.0472735911607742,-0.287259042263031
2024-12-07 18:00:01.279060500,9.464060546875,-0.3194806277751922,-0.1864256113767624,-0.4125280082225799
2024-12-07 18:00:01.289033700,9.47403369140625,-0.2964086830615997,-0.2963373959064483,-0.5530108213424683
2024-12-07 18:00:01.299006700,9.4840068359375,-0.2584993839263916,-0.3852376937866211,-0.6605077385902405
2024-12-07 18:00:01.308979700,9.493979736328123,-0.2111207991838455,-0.4313009679317474,-0.7068712115287781
2024-12-07 18:00:01.318952700,9.50395263671875,-0.158290609717369,-0.4629891216754913,-0.7006250619888306
2024-12-07 18:00:01.328925700,9.51392578125,-0.125284194946289,-0.549744188785553,-0.6521544456481934
2024-12-07 18:00:01.338899700,9.523899658203124,-0.103347472846508,-0.6291292905807495,-0.5784072875976562
2024-12-07 18:00:01.348872700,9.533872802734376,-0.103556290268898,-0.6530027985572815,-0.4762864708900451
2024-12-07 18:00:01.358845700,9.543845703125,-0.1154715418815612,-0.5855798125267029,-0.3754924833774566
2024-12-07 18:00:01.368818700,9.553818603515625,-0.1203652322292327,-0.4625191688537597,-0.3172121345996856
2024-12-07 18:00:01.378792000,9.5637919921875,-0.1190373823046684,-0.3319851458072662,-0.2967020869255066
2024-12-07 18:00:01.388764700,9.5737646484375,-0.1095909774303436,-0.2256335467100143,-0.2869660556316376
2024-12-07 18:00:01.398737700,9.583737548828124,-0.136756032705307,-0.1430380046367645,-0.2432918101549148
2024-12-07 18:00:01.408711700,9.593711669921875,-0.1662676483392715,-0.0570795498788356,-0.1582987010478973
2024-12-07 18:00:01.418684700,9.6036845703125,-0.1675709933042526,0.0229548327624797,-0.0623167753219604
2024-12-07 18:00:01.428657700,9.61365771484375,-0.1428558677434921,0.0693257451057434,0.0109148509800434
2024-12-07 18:00:01.438631000,9.623630859375,-0.1184629127383232,0.0510370172560215,0.0213746838271617
2024-12-07 18:00:01.448603600,9.633603759765624,-0.1195917204022407,-0.0066392188891768,-0.0336225107312202
2024-12-07 18:00:01.458576600,9.64357666015625,-0.1210633814334869,-0.0360362567007541,-0.130853459239006
2024-12-07 18:00:01.468549600,9.653549560546876,-0.1732629388570785,-0.0187991466373205,-0.2046901583671569
2024-12-07 18:00:01.478523000,9.66352294921875,-0.2483840584754943,0.0423608794808387,-0.2233932763338089
2024-12-07 18:00:01.488497000,9.673496826171874,-0.3046953678131103,0.1041319370269775,-0.1852031946182251
2024-12-07 18:00:01.498470000,9.683469970703126,-0.3133714199066162,0.1542121469974517,-0.1288725584745407
2024-12-07 18:00:01.508442600,9.693442626953123,-0.2719728052616119,0.1597927808761596,-0.0860431790351867
2024-12-07 18:00:01.518415600,9.70341552734375,-0.2400489747524261,0.1316101402044296,-0.0378495492041111
2024-12-07 18:00:01.528388900,9.713388916015624,-0.201266810297966,0.1229627653956413,-0.0091448873281478
2024-12-07 18:00:01.538361900,9.72336181640625,-0.1597105860710144,0.1371491551399231,-0.0107001736760139
2024-12-07 18:00:01.548334600,9.73333447265625,-0.1156637296080589,0.1789451986551284,-0.0458032973110675
2024-12-07 18:00:01.558307600,9.7433076171875,-0.0691505521535873,0.2289015650749206,-0.1046993657946586
2024-12-07 18:00:01.568281600,9.753281494140625,-0.0433915853500366,0.2708368897438049,-0.1714628785848617
2024-12-07 18:00:01.578254600,9.763254638671874,-0.0468422435224056,0.306961327791214,-0.239866703748703
2024-12-07 18:00:01.588227600,9.7732275390625,-0.0758091509342193,0.3426896929740906,-0.2797038853168487
2024-12-07 18:00:01.598200600,9.78320068359375,-0.0891404002904892,0.3750266134738922,-0.2753030061721802
2024-12-07 18:00:01.608173600,9.793173583984377,-0.050679262727499,0.3831472396850586,-0.2180136442184448
2024-12-07 18:00:01.618146600,9.803146484375,0.0254759602248668,0.3488656878471374,-0.1115870550274849
2024-12-07 18:00:01.628119800,9.813119873046874,0.1066779717803001,0.2694323062896728,0.0142709854990243
2024-12-07 18:00:01.638092500,9.823092529296876,0.1753560900688171,0.1067933142185211,0.1319467425346374
2024-12-07 18:00:01.648066600,9.833066650390624,0.2183998823165893,-0.0759452432394027,0.2142839878797531
2024-12-07 18:00:01.658039600,9.84303955078125,0.2703450918197632,-0.2785074114799499,0.3052035272121429
2024-12-07 18:00:01.668012500,9.853012451171876,0.3335993587970733,-0.4243856966495514,0.3915610313415527
2024-12-07 18:00:01.677985800,9.86298583984375,0.39302459359169,-0.4976186156272888,0.4569680094718933
2024-12-07 18:00:01.687958500,9.87295849609375,0.4375398755073547,-0.489417165517807,0.5194591283798218
2024-12-07 18:00:01.697931500,9.882931640625,0.4682493209838867,-0.3781473636627197,0.6186866164207458
2024-12-07 18:00:01.707904500,9.892904541015625,0.4672793745994568,-0.1793646812438964,0.7933582663536072
2024-12-07 18:00:01.717877500,9.90287744140625,0.4151328206062317,-0.0377167426049709,1.1036373376846311
2024-12-07 18:00:01.727851500,9.9128515625,0.2962003648281097,-0.0844636261463165,1.5516587495803833
2024-12-07 18:00:01.737824800,9.92282470703125,0.1474138051271438,-0.1905959248542785,1.9338644742965696
2024-12-07 18:00:01.747797500,9.932797607421875,0.0026409453712403,-0.0924977287650108,2.033893346786499
2024-12-07 18:00:01.757770500,9.9427705078125,-0.0736234709620475,0.3409599661827087,1.899181246757507
2024-12-07 18:00:01.767743500,9.952743408203125,-0.1056332290172576,0.8734951019287109,1.6201411485671997
2024-12-07 18:00:01.777716700,9.962716796875,-0.1129103153944015,1.2460581064224243,1.327677607536316
2024-12-07 18:00:01.787689700,9.972689697265626,-0.0724102929234504,1.301831603050232,1.143257975578308
2024-12-07 18:00:01.797663700,9.982663818359375,0.0156431347131729,1.0814859867095947,1.0324701070785522
2024-12-07 18:00:01.807636500,9.992636474609377,0.0898748859763145,0.9757723212242126,0.9841164946556092
2024-12-07 18:00:01.817609500,10.002609375,0.132583737373352,1.0072888135910034,0.9108587503433228
2024-12-07 18:00:01.827582700,10.012582763671874,0.1371476948261261,1.1118699312210083,0.8338198661804199
2024-12-07 18:00:01.837555700,10.0225556640625,0.1672019958496093,1.2018011808395386,0.6975208520889282
2024-12-07 18:00:01.847528700,10.03252880859375,0.2577244341373443,1.1836813688278198,0.5303105711936951
2024-12-07 18:00:01.857501400,10.04250146484375,0.3532406389713287,1.009711503982544,0.3946773707866668
2024-12-07 18:00:01.867474400,10.052474365234374,0.4154284596443176,0.7400468587875366,0.322068452835083
2024-12-07 18:00:01.877448400,10.062448486328124,0.4256456792354584,0.4860475957393646,0.2657591104507446
2024-12-07 18:00:01.887421700,10.072421630859376,0.377440333366394,0.3121255934238434,0.1962977647781372
2024-12-07 18:00:01.897394700,10.082394775390624,0.2865192294120788,0.1364256888628006,0.1254496872425079
2024-12-07 18:00:01.907367700,10.09236767578125,0.1783888041973114,-0.1508854627609253,0.1037015244364738
2024-12-07 18:00:01.917340400,10.10234033203125,0.0740133970975875,-0.4875551164150238,0.1165853589773178
2024-12-07 18:00:01.927313700,10.112313720703124,-0.0129785621538758,-0.7548836469650269,0.145328551530838
2024-12-07 18:00:01.937286700,10.12228662109375,-0.0706799402832984,-0.9026528596878052,0.1889127790927887
2024-12-07 18:00:01.947259600,10.132259765625,-0.0935106202960014,-0.9294528365135192,0.2226353287696838
2024-12-07 18:00:01.957233700,10.142233642578123,-0.0887060165405273,-0.9042744636535645,0.2414377778768539
2024-12-07 18:00:01.967206400,10.152206298828125,-0.0866215527057647,-0.8555302023887634,0.2455385476350784
2024-12-07 18:00:01.977179600,10.1621796875,-0.0871286243200302,-0.7938545346260071,0.2403885275125503
2024-12-07 18:00:01.987152600,10.172152587890626,-0.0839065611362457,-0.7400301694869995,0.2459042221307754
2024-12-07 18:00:01.997125600,10.182125732421875,-0.083716943860054,-0.7193951606750488,0.2637814879417419
2024-12-07 18:00:02.007098600,10.1920986328125,-0.0921801105141639,-0.7175053358078003,0.2613419592380523
2024-12-07 18:00:02.017071400,10.2020712890625,-0.1023629754781723,-0.7125332355499268,0.2078734040260315
2024-12-07 18:00:02.027044600,10.212044677734376,-0.1085358709096908,-0.6851388216018677,0.0816143006086349
2024-12-07 18:00:02.037018600,10.2220185546875,-0.1125388741493225,-0.6088376641273499,-0.0999464392662048
2024-12-07 18:00:02.046991600,10.23199169921875,-0.1222261860966682,-0.5570910573005676,-0.2884572148323059
2024-12-07 18:00:02.056964600,10.241964599609377,-0.1262361109256744,-0.5640073418617249,-0.417520135641098
2024-12-07 18:00:02.066937600,10.2519375,-0.1183668598532676,-0.5601690411567688,-0.4212237298488617
2024-12-07 18:00:02.076910600,10.26191064453125,-0.1102341040968895,-0.4688892066478729,-0.3170390129089355
2024-12-07 18:00:02.086883600,10.271883544921875,-0.0749821662902832,-0.2841998338699341,-0.16566863656044
2024-12-07 18:00:02.096856600,10.281856689453123,0.0008140599820762,-0.0760248154401779,0.0095636341720819
2024-12-07 18:00:02.106829600,10.29182958984375,0.0651023238897323,0.0035752428229898,0.151987537741661
2024-12-07 18:00:02.116803600,10.301803466796876,0.0652868822216987,-0.1379659175872802,0.21120585501194
2024-12-07 18:00:02.126776600,10.311776611328124,0.0061887106858193,-0.4291803240776062,0.1854339241981506
2024-12-07 18:00:02.136749600,10.32174951171875,-0.083844244480133,-0.7117446660995483,0.1108339875936508
2024-12-07 18:00:02.146722600,10.33172265625,-0.166457325220108,-0.8766684532165527,0.0414157696068286
2024-12-07 18:00:02.156695600,10.341695556640625,-0.1953784674406051,-0.9519938230514526,0.0408620983362197
2024-12-07 18:00:02.166668500,10.35166845703125,-0.1634653359651565,-0.9190441966056824,0.1405729949474334
2024-12-07 18:00:02.176641800,10.361641845703126,-0.0841774344444274,-0.7293126583099365,0.3405753374099731
2024-12-07 18:00:02.186615800,10.37161572265625,0.0199651755392551,-0.4421893358230591,0.5444070100784302
2024-12-07 18:00:02.196588500,10.381588623046875,0.1376537233591079,-0.1487734019756317,0.6058530807495117
2024-12-07 18:00:02.206561500,10.3915615234375,0.2708096504211426,0.0703397020697593,0.4857288002967834
2024-12-07 18:00:02.216534500,10.401534423828124,0.4057429730892181,0.105684645473957,0.1428451985120773
2024-12-07 18:00:02.226507800,10.4115078125,0.4974691867828369,0.1189901903271675,-0.3529056906700134
2024-12-07 18:00:02.236480500,10.42148046875,0.5265535712242126,0.3315040469169616,-0.8336606025695801
2024-12-07 18:00:02.246453500,10.43145361328125,0.5232616662979126,0.6014336943626404,-1.1786448955535889
2024-12-07 18:00:02.256426500,10.441426513671876,0.5093871355056763,0.7205939292907715,-1.303336501121521
2024-12-07 18:00:02.266400500,10.451400390625,0.454342633485794,0.689766526222229,-1.1999610662460327
2024-12-07 18:00:02.276373500,10.46137353515625,0.3989590108394623,0.6809919476509094,-0.9284784197807312
2024-12-07 18:00:02.286346800,10.4713466796875,0.4339931905269623,0.8077834844589233,-0.4891168177127838
2024-12-07 18:00:02.296319500,10.481319580078123,0.5026446580886841,1.0469448566436768,0.0706764310598373
2024-12-07 18:00:02.306292500,10.49129248046875,0.4764837324619293,1.295852780342102,0.4457456469535827
2024-12-07 18:00:02.316265500,10.501265380859374,0.2554416358470917,1.482930064201355,0.5411875247955322
2024-12-07 18:00:02.326238700,10.51123876953125,-0.0733858123421669,1.1251838207244873,0.4662125706672668
2024-12-07 18:00:02.336211700,10.521211669921875,-0.2526887357234955,0.2413690388202667,0.1998389512300491
2024-12-07 18:00:02.346185700,10.531185791015623,-0.2769576609134674,-0.5643904209136963,-0.2191926836967468
2024-12-07 18:00:02.356158500,10.541158447265625,-0.2904468476772308,-0.8762625455856323,-0.6253926753997803
2024-12-07 18:00:02.366131500,10.55113134765625,-0.3448707461357116,-0.8567392230033875,-0.8548553586006165
2024-12-07 18:00:02.376104700,10.561104736328126,-0.3812601566314697,-0.612303614616394,-0.8947982788085938
2024-12-07 18:00:02.386077700,10.57107763671875,-0.3767494261264801,-0.1131859198212623,-0.8169971704483032
2024-12-07 18:00:02.396050700,10.58105078125,-0.3326405584812164,0.620819091796875,-0.6510066390037537
2024-12-07 18:00:02.406023400,10.5910234375,-0.2541242837905884,1.417370080947876,-0.4896227717399597
2024-12-07 18:00:02.415996700,10.60099658203125,-0.1510341167449951,1.9152578115463257,-0.3612536191940307
2024-12-07 18:00:02.425970400,10.610970458984376,-0.0823114588856697,1.9831725358963013,-0.3184207081794739
2024-12-07 18:00:02.435943700,10.620943603515624,-0.0690481215715408,1.5796955823898315,-0.3774566054344177
2024-12-07 18:00:02.445916700,10.630916748046875,-0.1052126660943031,0.8333389759063721,-0.5174095630645752
2024-12-07 18:00:02.455889700,10.6408896484375,-0.1755360960960388,-0.0565040707588195,-0.6375977396965027
2024-12-07 18:00:02.465862400,10.6508623046875,-0.2666099667549133,-0.7914738059043884,-0.6760062575340271
2024-12-07 18:00:02.475835600,10.660835693359376,-0.3370377719402313,-1.1951117515563965,-0.6532503366470337
2024-12-07 18:00:02.485808600,10.67080859375,-0.3693196177482605,-1.305134892463684,-0.6207491159439087
2024-12-07 18:00:02.495781600,10.68078173828125,-0.3730317950248718,-1.192697525024414,-0.6363616585731506
2024-12-07 18:00:02.505755600,10.690755615234377,-0.3523423373699188,-0.9526601433753968,-0.7032932043075562
2024-12-07 18:00:02.515728400,10.700728271484374,-0.3178392350673675,-0.7303701043128967,-0.7849928736686707
2024-12-07 18:00:02.525701600,10.71070166015625,-0.2842825949192047,-0.6510059833526611,-0.8150491118431091
2024-12-07 18:00:02.535674600,10.720674560546875,-0.2602430582046509,-0.6633790135383606,-0.8144549131393433
2024-12-07 18:00:02.545647000,10.730647216796877,-0.238254114985466,-0.6991896033287048,-0.7887678742408752
2024-12-07 18:00:02.555620000,10.7406201171875,-0.2168833017349243,-0.7034088373184204,-0.7699729204177856
2024-12-07 18:00:02.565593300,10.75059326171875,-0.1832565069198608,-0.7349520921707153,-0.7192287445068359
2024-12-07 18:00:02.575567400,10.7605673828125,-0.1460702568292617,-0.8062896728515625,-0.6435433030128479
2024-12-07 18:00:02.585540400,10.770540283203124,-0.1178189441561698,-0.9015846252441406,-0.5567554235458374
2024-12-07 18:00:02.595513000,10.78051318359375,-0.1037547886371612,-0.9644898176193236,-0.486726313829422
2024-12-07 18:00:02.605486000,10.790486083984376,-0.1184144392609596,-0.9435667991638184,-0.440454751253128
2024-12-07 18:00:02.615459300,10.800459228515624,-0.1382930725812912,-0.866626501083374,-0.4052741229534149
2024-12-07 18:00:02.625432300,10.810432373046876,-0.1570737212896347,-0.7412008047103882,-0.3682886660099029
2024-12-07 18:00:02.635405300,10.8204052734375,-0.1719986051321029,-0.5327075123786926,-0.3007799386978149
2024-12-07 18:00:02.645378000,10.8303779296875,-0.181326076388359,-0.2728387117385864,-0.2176759093999862
2024-12-07 18:00:02.655352000,10.84035205078125,-0.1665583252906799,-0.0418923050165176,-0.1435129940509796
2024-12-07 18:00:02.665325000,10.850324951171874,-0.1553002595901489,0.0819596424698829,-0.1069127172231674
2024-12-07 18:00:02.675298300,10.86029833984375,-0.1633336842060089,0.0947020649909973,-0.1195435523986816
2024-12-07 18:00:02.685271300,10.870271240234375,-0.1872259229421615,0.0484001412987709,-0.1483253687620163
2024-12-07 18:00:02.695244300,10.880244384765623,-0.2114324569702148,-0.0107859512791037,-0.1684761792421341
2024-12-07 18:00:02.705217000,10.890217041015624,-0.2435761094093322,-0.0607719980180263,-0.1732815951108932
2024-12-07 18:00:02.715190300,10.900190185546874,-0.2679727971553802,-0.0839233919978141,-0.153385117650032
2024-12-07 18:00:02.725163300,10.910163330078126,-0.2831398844718933,-0.0382677949965,-0.1124190837144851
2024-12-07 18:00:02.735137300,10.92013720703125,-0.2937027812004089,0.074013739824295,-0.0480624623596668
2024-12-07 18:00:02.745110300,10.9301103515625,-0.2890696227550506,0.2477690875530243,-0.0146109964698553
2024-12-07 18:00:02.755083300,10.940083251953125,-0.2670682072639465,0.4159519672393799,-0.0176280923187732
2024-12-07 18:00:02.765056300,10.95005615234375,-0.2578831017017364,0.5520411729812622,-0.0502502061426639
2024-12-07 18:00:02.775029200,10.960029296875,-0.26874640583992,0.6401646733283997,-0.102496899664402
2024-12-07 18:00:02.785002200,10.970002197265623,-0.2926585674285888,0.7044005393981934,-0.1733098328113556
2024-12-07 18:00:02.794975200,10.979975341796877,-0.3116170763969421,0.6847360730171204,-0.2052259594202041
2024-12-07 18:00:02.804948200,10.9899482421875,-0.3044450879096985,0.5910748839378357,-0.1779069751501083
2024-12-07 18:00:02.814922000,10.999921875,-0.2705369293689728,0.4502783715724945,-0.111984945833683
2024-12-07 18:00:02.824895200,11.009895263671876,-0.218080535531044,0.2774337530136108,-0.0422343537211418
2024-12-07 18:00:02.834868200,11.0198681640625,-0.1900667399168014,0.1504827141761779,0.0186982378363609
2024-12-07 18:00:02.844841200,11.02984130859375,-0.1667038351297378,0.1015628799796104,0.0779735222458839
2024-12-07 18:00:02.854814200,11.039814208984374,-0.1464193314313888,0.1373214125633239,0.1945773661136627
2024-12-07 18:00:02.864787200,11.049787109375,-0.1083102002739906,0.3285756409168243,0.338195264339447
2024-12-07 18:00:02.874760200,11.05976025390625,-0.0305685345083475,0.5921055674552917,0.5148789286613464
2024-12-07 18:00:02.884733200,11.069733154296877,0.0978887751698494,0.8413662314414978,0.7110737562179565
2024-12-07 18:00:02.894707200,11.079707275390623,0.2853308320045471,0.9446334838867188,0.9000300765037537
2024-12-07 18:00:02.904680200,11.08968017578125,0.4824302196502685,0.7893674373626709,0.9967057108879088
2024-12-07 18:00:02.914653200,11.099653076171874,0.5349298715591431,0.465453028678894,0.9480351209640504
2024-12-07 18:00:02.924626200,11.109626220703126,0.496563196182251,0.1969419121742248,0.86457759141922
2024-12-07 18:00:02.934599200,11.11959912109375,0.4960028827190399,0.117081418633461,0.8367012143135071
2024-12-07 18:00:02.944572200,11.129572265625,0.5013957023620605,0.1436948031187057,0.8342723250389099
2024-12-07 18:00:02.954545200,11.139545166015624,0.4636011719703674,0.1419088989496231,0.8740764856338501
2024-12-07 18:00:02.964519200,11.149519287109374,0.3879134654998779,0.0518893040716648,0.9841473698616028
2024-12-07 18:00:02.974492400,11.159492431640626,0.2880411744117737,-0.0643097385764122,1.1214591264724731
2024-12-07 18:00:02.984465200,11.169465087890623,0.1934055089950561,-0.1473230123519897,1.205536723136902
2024-12-07 18:00:02.994438100,11.179438232421877,0.1484223157167434,-0.0874183997511863,1.1649125814437866
2024-12-07 18:00:03.004411100,11.1894111328125,0.1598549783229828,0.1571933627128601,0.9775877594947816
2024-12-07 18:00:03.014384400,11.19938427734375,0.172949731349945,0.4503093659877777,0.7441254258155823
2024-12-07 18:00:03.024357400,11.209357421875,0.1574166119098663,0.676274836063385,0.58491051197052
2024-12-07 18:00:03.034330000,11.219330078125,0.1392908692359924,0.8169645667076111,0.5294182300567627
2024-12-07 18:00:03.044304100,11.22930419921875,0.1434353142976761,0.8454499244689941,0.517987072467804
2024-12-07 18:00:03.054277000,11.239277099609374,0.1756965816020965,0.8091696500778198,0.4904968738555908
2024-12-07 18:00:03.064250000,11.24925,0.2018136084079742,0.7923697829246521,0.434624046087265
2024-12-07 18:00:03.074223400,11.259223388671876,0.2040242999792099,0.7542900443077087,0.3453138768672943
2024-12-07 18:00:03.084196400,11.2691962890625,0.2250371724367141,0.6567285656929016,0.2512707710266113
2024-12-07 18:00:03.094169000,11.279169189453125,0.2626335620880127,0.5245177745819092,0.1755581796169281
2024-12-07 18:00:03.104142000,11.28914208984375,0.2919872403144836,0.3989129364490509,0.1236209571361541
2024-12-07 18:00:03.114115300,11.299115234375,0.2972120940685272,0.3144931495189667,0.0876320600509643
2024-12-07 18:00:03.124089300,11.30908935546875,0.286332756280899,0.2673899531364441,0.0601438581943511
2024-12-07 18:00:03.134062300,11.319062255859375,0.2724185287952423,0.2682248651981354,0.0294868797063827
2024-12-07 18:00:03.144035000,11.32903515625,0.2589844465255737,0.2961151599884033,-0.0085499044507741
2024-12-07 18:00:03.154008000,11.339008056640624,0.2338767051696777,0.3249928951263428,-0.0440045669674873
2024-12-07 18:00:03.163981300,11.348981201171876,0.1906457394361496,0.3438089489936828,-0.0779665410518646
2024-12-07 18:00:03.173954300,11.358954345703124,0.1419208198785781,0.3217347860336303,-0.0765108615159988
