time,seconds_elapsed,z,y,x
2024-12-07 18:21:07.697781500,0.015781494140625,-0.2650123238563537,0.244287833571434,-0.0784328505396843
2024-12-07 18:21:07.707755500,0.025755615234375,-0.2561045587062835,0.3126147091388702,-0.0922655761241912
2024-12-07 18:21:07.717729500,0.0357294921875,-0.2397762387990951,0.3313853442668915,-0.0842074528336525
2024-12-07 18:21:07.727703600,0.04570361328125,-0.2508139610290527,0.3359507918357849,-0.0613799057900905
2024-12-07 18:21:07.737677600,0.055677490234375,-0.2690602838993072,0.3217765986919403,-0.0530376657843589
2024-12-07 18:21:07.747651600,0.065651611328125,-0.2823531925678253,0.2943636178970337,-0.0636921748518943
2024-12-07 18:21:07.757625600,0.07562548828125,-0.2847543656826019,0.2923000454902649,-0.0679007247090339
2024-12-07 18:21:07.767598600,0.0855986328125,-0.2580151557922363,0.2751572728157043,-0.0619922317564487
2024-12-07 18:21:07.777572600,0.095572509765625,-0.2737954258918762,0.2859503328800201,-0.0585946962237358
2024-12-07 18:21:07.787546600,0.105546630859375,-0.3620672225952148,0.3740391731262207,-0.102073460817337
2024-12-07 18:21:07.797520600,0.115520751953125,-0.6685131192207336,0.6753116250038147,-0.2836504280567169
2024-12-07 18:21:07.807494700,0.12549462890625,-1.0648430585861206,1.2459716796875,-0.4531113505363464
2024-12-07 18:21:07.817468700,0.13546875,-1.407210350036621,1.7742730379104614,-0.7641493082046509
2024-12-07 18:21:07.827442700,0.145442626953125,-1.561739206314087,1.7177993059158323,-1.063492774963379
2024-12-07 18:21:07.837416700,0.155416748046875,-1.6408865451812744,1.7574238777160645,-1.033254861831665
2024-12-07 18:21:07.847390700,0.165390625,-1.6687195301055908,1.4747681617736816,-0.8750892281532288
2024-12-07 18:21:07.857364700,0.17536474609375,-1.7077476978302002,1.1351089477539062,-0.5383045077323914
2024-12-07 18:21:07.867338800,0.1853388671875,-1.835578441619873,0.6936726570129395,-0.2705764472484588
2024-12-07 18:21:07.877312800,0.195312744140625,-2.012498378753662,0.430642306804657,-0.0788568928837776
2024-12-07 18:21:07.887286500,0.20528662109375,-2.138444900512696,0.3158123791217804,-0.0173482559621334
2024-12-07 18:21:07.897260500,0.215260498046875,-2.13735294342041,0.3161458075046539,-0.0557353161275386
2024-12-07 18:21:07.907234300,0.225234375,-2.057941675186157,0.3723446428775787,-0.179646611213684
2024-12-07 18:21:07.917208300,0.235208251953125,-1.9082752466201784,0.4310801923274994,-0.3139097988605499
2024-12-07 18:21:07.927182300,0.245182373046875,-1.6936215162277222,0.5056348443031311,-0.4438885748386383
2024-12-07 18:21:07.937156400,0.25515625,-1.4732941389083862,0.4313472211360931,-0.5737358927726746
2024-12-07 18:21:07.947130400,0.26513037109375,-1.2686755657196045,0.3021162748336792,-0.6796700358390808
2024-12-07 18:21:07.957104400,0.2751044921875,-1.0921025276184082,0.1894482225179672,-0.699731171131134
2024-12-07 18:21:07.967077400,0.285077392578125,-0.9269341230392456,0.090564526617527,-0.622334897518158
2024-12-07 18:21:07.977051400,0.295051513671875,-0.7918926477432251,-0.0204005520790815,-0.4711295366287231
2024-12-07 18:21:07.987025400,0.305025390625,-0.664290726184845,-0.085144929587841,-0.2980427145957947
2024-12-07 18:21:07.996999400,0.31499951171875,-0.5515284538269043,-0.099185012280941,-0.1338731199502945
2024-12-07 18:21:08.006973400,0.324973388671875,-0.467940092086792,-0.0858465731143951,-0.0208403170108795
2024-12-07 18:21:08.016947500,0.334947509765625,-0.3811489939689636,-0.043534979224205,0.0472370758652687
2024-12-07 18:21:08.026921500,0.34492138671875,-0.2810018658638,0.0123040527105331,0.0694638192653656
2024-12-07 18:21:08.036895500,0.3548955078125,-0.1775752604007721,0.0096883242949843,0.0250963158905506
2024-12-07 18:21:08.046869500,0.364869384765625,-0.1145137399435043,-0.0436111129820346,-0.0703207477927208
2024-12-07 18:21:08.056843500,0.374843505859375,-0.1261057406663894,-0.1241351515054702,-0.1743722707033157
2024-12-07 18:21:08.066817500,0.384817626953125,-0.1276974976062774,-0.2023567110300064,-0.2403909713029861
2024-12-07 18:21:08.076791600,0.39479150390625,-0.0541477501392364,-0.2929801046848297,-0.2621284425258636
2024-12-07 18:21:08.086765600,0.404765625,0.0242429301142692,-0.3584347665309906,-0.2634762823581695
2024-12-07 18:21:08.096739600,0.414739501953125,0.0139320734888315,-0.4178162813186645,-0.2628251612186432
2024-12-07 18:21:08.106713600,0.424713623046875,-0.0610502883791923,-0.4630926847457886,-0.2923007607460022
2024-12-07 18:21:08.116687600,0.4346875,-0.2003955543041229,-0.5473203659057617,-0.343743622303009
2024-12-07 18:21:08.126661600,0.44466162109375,-0.3392823338508606,-0.5501390695571899,-0.3688356578350067
2024-12-07 18:21:08.136635600,0.4546357421875,-0.4798788428306579,-0.429620087146759,-0.355034738779068
2024-12-07 18:21:08.146609700,0.464609619140625,-0.5920644998550415,-0.2909716665744781,-0.3308772146701813
2024-12-07 18:21:08.156582700,0.474582763671875,-0.6520816087722778,-0.1850919127464294,-0.2914146184921264
2024-12-07 18:21:08.166556700,0.484556640625,-0.7012704610824585,-0.0723603069782257,-0.2248012125492096
2024-12-07 18:21:08.176530700,0.49453076171875,-0.718826949596405,-0.0884812697768211,-0.1808685362339019
2024-12-07 18:21:08.186504700,0.504504638671875,-0.6852559447288513,-0.1733146607875824,-0.1454908400774002
2024-12-07 18:21:08.196478700,0.514478759765625,-0.613579511642456,-0.2824611067771911,-0.1132471933960914
2024-12-07 18:21:08.206452700,0.52445263671875,-0.5239548087120056,-0.3664292395114898,-0.0970953851938247
2024-12-07 18:21:08.216426500,0.534426513671875,-0.4451947212219238,-0.4623167216777801,-0.0976973101496696
2024-12-07 18:21:08.226400500,0.544400390625,-0.4025258123874664,-0.5479477643966675,-0.0965915694832801
2024-12-07 18:21:08.236374500,0.55437451171875,-0.3841972649097442,-0.5937222838401794,-0.1014236360788345
2024-12-07 18:21:08.246348500,0.5643486328125,-0.368003100156784,-0.5483726263046265,-0.0810976028442382
2024-12-07 18:21:08.256322600,0.574322509765625,-0.3281517326831817,-0.4590243399143219,-0.0473922006785869
2024-12-07 18:21:08.266296600,0.584296630859375,-0.2920446097850799,-0.3581547141075134,-0.0240650400519371
2024-12-07 18:21:08.276270600,0.5942705078125,-0.2275644689798355,-0.2718873918056488,0.0030231499113142
2024-12-07 18:21:08.286244600,0.60424462890625,-0.1401515305042266,-0.2159522175788879,0.0285775139927864
2024-12-07 18:21:08.296218600,0.614218505859375,-0.0833289325237274,-0.1670535057783126,0.0132461721077561
2024-12-07 18:21:08.306192600,0.624192626953125,-0.0607743598520755,-0.0671908110380172,-0.0073469877243041
2024-12-07 18:21:08.316166700,0.634166748046875,-0.0882336795330047,0.0954883843660354,-0.1704765260219574
2024-12-07 18:21:08.326140700,0.644140625,-0.529237687587738,0.205899566411972,-0.4697141051292419
2024-12-07 18:21:08.336114700,0.65411474609375,-1.0109325647354126,0.2371243387460708,-0.7230392694473267
2024-12-07 18:21:08.346088700,0.664088623046875,-0.8385677933692932,0.2118661254644394,-0.5960592031478882
2024-12-07 18:21:08.356061400,0.6740615234375,-0.7333760857582092,0.2526336014270782,-0.4241284132003784
2024-12-07 18:21:08.366035500,0.684035400390625,-0.7588691711425781,0.2870285809040069,-0.3404529690742492
2024-12-07 18:21:08.376009500,0.694009521484375,-0.7492090463638306,0.1810255348682403,-0.2599310576915741
2024-12-07 18:21:08.385983500,0.7039833984375,-0.7692498564720154,-0.0337751843035221,-0.2041687369346618
2024-12-07 18:21:08.395957500,0.71395751953125,-0.8270260691642761,-0.25504070520401,-0.1622535586357116
2024-12-07 18:21:08.405931500,0.723931640625,-0.8650938272476196,-0.3651938438415527,-0.1069793775677681
2024-12-07 18:21:08.415905500,0.733905517578125,-0.8693009614944458,-0.3178319633007049,-0.0392164923250675
2024-12-07 18:21:08.425879600,0.743879638671875,-0.896623969078064,-0.1780748516321182,0.0343892835080623
2024-12-07 18:21:08.435853600,0.753853515625,-0.8949604630470276,-0.0092232953757047,0.0644908174872398
2024-12-07 18:21:08.445827600,0.76382763671875,-0.8826174736022949,0.0713162869215011,0.0510005727410316
2024-12-07 18:21:08.455801600,0.773801513671875,-0.858536422252655,0.0429021939635276,0.0331670455634593
2024-12-07 18:21:08.465775600,0.783775634765625,-0.8906410932540894,-0.0709173157811164,0.0039511038921773
2024-12-07 18:21:08.475749400,0.793749267578125,-0.9566179513931274,-0.2058289498090744,0.0156022440642118
2024-12-07 18:21:08.485723400,0.803723388671875,-1.0137842893600464,-0.3330620229244232,0.0466823987662792
2024-12-07 18:21:08.495697400,0.813697509765625,-1.0269901752471924,-0.4690228104591369,0.0533619113266468
2024-12-07 18:21:08.505671400,0.82367138671875,-1.0087553262710571,-0.6124260425567627,0.0651677027344703
2024-12-07 18:21:08.515645400,0.8336455078125,-0.9623201489448548,-0.6822710037231445,0.1185269355773925
2024-12-07 18:21:08.525619500,0.843619384765625,-0.8777061700820923,-0.63741135597229,0.1707461923360824
2024-12-07 18:21:08.535593500,0.853593505859375,-0.7961177229881287,-0.5211385488510132,0.1872958838939666
2024-12-07 18:21:08.545567500,0.8635673828125,-0.7172780632972717,-0.4290030300617218,0.1868452876806259
2024-12-07 18:21:08.555540500,0.87354052734375,-0.6590765714645386,-0.3979958295822143,0.1969218850135803
2024-12-07 18:21:08.565514500,0.883514404296875,-0.5887904167175293,-0.3445997238159179,0.2017451375722885
2024-12-07 18:21:08.575488500,0.893488525390625,-0.4998311102390289,-0.2840616703033447,0.2063710242509842
2024-12-07 18:21:08.585462500,0.903462646484375,-0.4204942286014557,-0.2827921509742737,0.1726889610290527
2024-12-07 18:21:08.595436500,0.9134365234375,-0.2802148759365082,-0.1603192090988159,0.155820220708847
2024-12-07 18:21:08.605410600,0.92341064453125,-0.0620950460433959,0.0659978091716766,0.166410282254219
2024-12-07 18:21:08.615384600,0.933384521484375,0.1276402771472931,0.2725791931152344,0.2079191207885742
2024-12-07 18:21:08.625358600,0.943358642578125,0.2616665065288543,0.4829766452312469,0.2784707844257355
2024-12-07 18:21:08.635332600,0.95333251953125,0.3523737490177154,0.734746515750885,0.3579074144363403
2024-12-07 18:21:08.645306600,0.963306640625,0.5047712922096252,1.0347083806991575,0.10873594135046
2024-12-07 18:21:08.655280600,0.97328076171875,0.6591551303863525,1.2733254432678225,-0.2776149809360504
2024-12-07 18:21:08.665254700,0.983254638671875,0.6017962694168091,1.3587260246276855,-0.4055356681346893
2024-12-07 18:21:08.675228700,0.993228759765625,0.3379936218261719,1.2040246725082395,-0.2640053927898407
2024-12-07 18:21:08.685202700,1.00320263671875,0.0111981863155961,0.865764319896698,-0.0465377792716026
2024-12-07 18:21:08.695176700,1.0131767578125,-0.1971403062343597,0.51938796043396,0.1245589479804039
2024-12-07 18:21:08.705150700,1.023150634765625,-0.2124790400266647,0.1925933063030243,0.1687788814306259
2024-12-07 18:21:08.715124500,1.03312451171875,-0.1129191294312477,-0.1033338531851768,0.1122722774744033
2024-12-07 18:21:08.725099500,1.043099609375,-0.0331305600702762,-0.3027665317058563,0.0434484668076038
2024-12-07 18:21:08.735073500,1.053073486328125,-0.0057197380810976,-0.362462967634201,0.0218048822134733
2024-12-07 18:21:08.745046500,1.063046630859375,-0.0185362007468938,-0.3002661764621734,0.0358634442090988
2024-12-07 18:21:08.755020500,1.0730205078125,-0.009311961941421,-0.1745260208845138,0.0574569851160049
2024-12-07 18:21:08.764994600,1.08299462890625,0.0185002293437719,-0.0022669015452265,0.0728593692183494
2024-12-07 18:21:08.774968600,1.092968505859375,0.0100107127800583,0.1596671938896179,0.0770284458994865
2024-12-07 18:21:08.784942600,1.102942626953125,-0.0227594841271638,0.2828048169612884,0.0613967552781105
2024-12-07 18:21:08.794916600,1.11291650390625,-0.045616790652275,0.3336687684059143,0.0402417555451393
2024-12-07 18:21:08.804890600,1.122890625,-0.0555186904966831,0.3251280188560486,0.0273360759019851
2024-12-07 18:21:08.814864600,1.13286474609375,-0.0552561692893505,0.2942356765270233,0.031669158488512
2024-12-07 18:21:08.824838700,1.142838623046875,-0.0520902052521705,0.28331059217453,0.042360421270132
2024-12-07 18:21:08.834812700,1.152812744140625,-0.0419552884995937,0.3029321730136871,0.0583839789032936
2024-12-07 18:21:08.844786700,1.16278662109375,-0.022235644981265,0.3339060842990875,0.0850616618990898
2024-12-07 18:21:08.854760700,1.1727607421875,0.0001603397540748,0.3457356989383697,0.110109195113182
2024-12-07 18:21:08.864734700,1.182734619140625,0.0226840246468782,0.3228993713855743,0.133946880698204
2024-12-07 18:21:08.874708700,1.192708740234375,0.0470191314816474,0.286891371011734,0.1538378894329071
2024-12-07 18:21:08.884682800,1.202682861328125,0.0762683600187301,0.2580285668373108,0.1758984476327896
2024-12-07 18:21:08.894656800,1.21265673828125,0.1099125295877456,0.2712413072586059,0.2072542160749435
2024-12-07 18:21:08.904630800,1.222630859375,0.1562256962060928,0.3100984096527099,0.2591688334941864
2024-12-07 18:21:08.914604500,1.2326044921875,0.2018963247537613,0.3588933944702148,0.3295234143733978
2024-12-07 18:21:08.924578600,1.24257861328125,0.2470137327909469,0.3979531824588775,0.4075684249401092
2024-12-07 18:21:08.934551800,1.2525517578125,0.2857333123683929,0.4029510021209717,0.4700996577739715
2024-12-07 18:21:08.944525800,1.26252587890625,0.3227531015872955,0.3694609701633453,0.4938553273677826
2024-12-07 18:21:08.954499800,1.272499755859375,0.3727710247039795,0.294228583574295,0.5137852430343628
2024-12-07 18:21:08.964473600,1.2824736328125,0.3798539638519287,0.3118304908275604,0.4967993497848511
2024-12-07 18:21:08.974447600,1.292447509765625,0.3754448294639587,0.3902234733104706,0.4641191065311432
2024-12-07 18:21:08.984421600,1.302421630859375,0.4053766131401062,0.5076699256896973,0.4493350982666015
2024-12-07 18:21:08.994395600,1.312395751953125,0.4476757645606994,0.6411404013633728,0.4581780433654785
2024-12-07 18:21:09.004369700,1.32236962890625,0.5165632367134094,0.7840871810913086,0.4858099222183227
2024-12-07 18:21:09.014343700,1.33234375,0.5817149877548218,0.8640453815460205,0.513773500919342
2024-12-07 18:21:09.024317700,1.342317626953125,0.6077061295509338,0.8218915462493896,0.5065509676933289
2024-12-07 18:21:09.034291700,1.352291748046875,0.5901957154273987,0.6203495264053345,0.4605069160461426
2024-12-07 18:21:09.044265500,1.362265380859375,0.5120300650596619,0.24033884704113,0.3877919614315033
2024-12-07 18:21:09.054239500,1.372239501953125,0.4058170020580292,-0.2092591524124145,0.2984497547149658
2024-12-07 18:21:09.064213500,1.382213623046875,0.2895082235336303,-0.5561425089836121,0.2559731304645538
2024-12-07 18:21:09.074187500,1.3921875,0.1973241865634918,-0.7519968748092651,0.2859920561313629
2024-12-07 18:21:09.084161500,1.40216162109375,0.1574859619140625,-0.768212616443634,0.3078470230102539
2024-12-07 18:21:09.094135600,1.412135498046875,0.1209745407104492,-0.8441113829612732,0.3451678156852722
2024-12-07 18:21:09.104109600,1.422109619140625,0.0754848197102546,-0.877892017364502,0.3745334446430206
2024-12-07 18:21:09.114083600,1.43208349609375,0.0318757705390453,-0.7657981514930725,0.3546799719333648
2024-12-07 18:21:09.124057600,1.4420576171875,-0.0018771351315081,-0.5949187874794006,0.3001253604888916
2024-12-07 18:21:09.134030600,1.452030517578125,-0.0204316824674606,-0.3891737461090088,0.2071074694395065
2024-12-07 18:21:09.144004600,1.462004638671875,-0.0162989888340234,-0.1732052415609359,0.0841541215777397
2024-12-07 18:21:09.153978600,1.471978515625,-0.0042043197900056,0.042221862822771,-0.0365062803030014
2024-12-07 18:21:09.163952600,1.48195263671875,0.0029246960766613,0.2132242321968078,-0.1232494339346885
2024-12-07 18:21:09.173926700,1.4919267578125,-0.0051987692713737,0.2963574230670929,-0.1694135963916778
2024-12-07 18:21:09.183900700,1.501900634765625,-0.0232581961899995,0.2600627839565277,-0.1985123604536056
2024-12-07 18:21:09.193874700,1.511874755859375,-0.0388581529259681,0.1348916888236999,-0.2317256927490234
2024-12-07 18:21:09.203848700,1.5218486328125,-0.0396275408565998,-0.0322304591536521,-0.277292937040329
2024-12-07 18:21:09.213822700,1.53182275390625,-0.030950428918004,-0.1610203981399536,-0.314242959022522
2024-12-07 18:21:09.223796500,1.54179638671875,-0.0193169433623552,-0.2290087640285492,-0.3453100621700287
2024-12-07 18:21:09.233770500,1.5517705078125,0.0046324841678142,-0.2947055697441101,-0.3704344034194946
2024-12-07 18:21:09.243744500,1.56174462890625,0.033266793936491,-0.3426270186901092,-0.3787887394428253
2024-12-07 18:21:09.253718500,1.571718505859375,0.0398885905742645,-0.3183969855308532,-0.3611385524272918
2024-12-07 18:21:09.263692500,1.581692626953125,0.0520547069609165,-0.3159008026123047,-0.3073347210884094
2024-12-07 18:21:09.273666600,1.59166650390625,0.0766150951385498,-0.4232386350631714,-0.2341572493314743
2024-12-07 18:21:09.283640600,1.601640625,0.0752547532320022,-0.4106530845165252,-0.2290160208940506
2024-12-07 18:21:09.293614600,1.611614501953125,0.0599514730274677,-0.3303584158420563,-0.2775507271289825
2024-12-07 18:21:09.303588600,1.621588623046875,0.0679132565855979,-0.2601974606513977,-0.3544255197048187
2024-12-07 18:21:09.313561600,1.6315615234375,0.0878327935934066,-0.2135109901428222,-0.4072542190551758
2024-12-07 18:21:09.323535600,1.64153564453125,0.0979514718055725,-0.1932579129934311,-0.398716390132904
2024-12-07 18:21:09.333509600,1.651509521484375,0.0840684846043586,-0.1865044385194778,-0.3391373753547668
2024-12-07 18:21:09.343483600,1.661483642578125,0.0578169040381908,-0.2041159272193908,-0.2646700739860534
2024-12-07 18:21:09.353457700,1.671457763671875,0.031986765563488,-0.1120631173253059,-0.2200836837291717
2024-12-07 18:21:09.363431700,1.681431640625,0.0178059674799442,-0.0380059331655502,-0.1639210879802703
2024-12-07 18:21:09.373405700,1.69140576171875,0.0069259316660463,0.0063488781452178,-0.0943776741623878
2024-12-07 18:21:09.383379700,1.701379638671875,0.0073198131285607,0.0175639819353818,-0.0325960628688335
2024-12-07 18:21:09.393353700,1.711353759765625,0.0081985583528876,0.0185546576976776,0.0353747718036174
2024-12-07 18:21:09.403327700,1.72132763671875,0.0334692932665348,0.1254435628652572,0.1236833333969116
2024-12-07 18:21:09.413301800,1.7313017578125,0.073878102004528,0.4013455510139465,0.2452787607908249
2024-12-07 18:21:09.423275800,1.74127587890625,0.1233870610594749,0.7704805135726929,0.3282317221164703
2024-12-07 18:21:09.433249800,1.751249755859375,0.1354176253080368,0.9966667294502258,0.2577450275421142
2024-12-07 18:21:09.443223800,1.761223876953125,0.0682764053344726,0.881278932094574,0.0256369579583406
2024-12-07 18:21:09.453197800,1.77119775390625,-0.0266500245779752,0.4232183694839477,-0.2427108436822891
2024-12-07 18:21:09.463171800,1.781171875,-0.0716635733842849,-0.1381541490554809,-0.43584144115448
2024-12-07 18:21:09.473145600,1.7911455078125,-0.0771121680736541,-0.4398238062858581,-0.4642702043056488
2024-12-07 18:21:09.483119600,1.80111962890625,-0.059296678751707,-0.3669168353080749,-0.3626298606395721
2024-12-07 18:21:09.493093600,1.81109375,-0.0213211495429277,-0.0940341502428054,-0.2214376777410507
2024-12-07 18:21:09.503067600,1.821067626953125,0.0097717903554439,0.1035212725400924,-0.1303144246339798
2024-12-07 18:21:09.513040600,1.83104052734375,-0.0360679477453231,0.1063141301274299,-0.1330745667219162
2024-12-07 18:21:09.523014700,1.8410146484375,-0.1557932794094085,-0.1692114621400833,-0.1645403355360031
2024-12-07 18:21:09.532988700,1.85098876953125,-0.2605313062667846,-0.6529013514518738,-0.1635167300701141
2024-12-07 18:21:09.542962400,1.86096240234375,-0.281283438205719,-1.0530372858047483,-0.1490949094295501
2024-12-07 18:21:09.552936400,1.8709365234375,-0.2505737841129303,-1.126484990119934,-0.1495822668075561
2024-12-07 18:21:09.562910500,1.880910400390625,-0.2094516456127166,-0.9658293128013612,-0.1544928699731826
2024-12-07 18:21:09.572884500,1.890884521484375,-0.1682293564081192,-0.7103500366210938,-0.1383564472198486
2024-12-07 18:21:09.582858500,1.9008583984375,-0.1333853602409362,-0.4317242801189422,-0.098561093211174
2024-12-07 18:21:09.592832500,1.91083251953125,-0.0992405116558075,-0.1690358817577362,-0.0431293435394763
2024-12-07 18:21:09.602806500,1.920806640625,-0.0762116238474845,0.0409325323998928,0.0223820209503173
2024-12-07 18:21:09.612780500,1.930780517578125,-0.0513503365218639,0.1403930038213729,0.0599016100168228
2024-12-07 18:21:09.622754600,1.940754638671875,-0.0307505168020725,0.0973802804946899,0.0433798879384994
2024-12-07 18:21:09.632728600,1.950728515625,-0.0169447213411331,-0.0679398030042648,-0.0065882792696356
2024-12-07 18:21:09.642702600,1.96070263671875,-0.0005497685051523,-0.2307023406028747,-0.0522423163056373
2024-12-07 18:21:09.652676600,1.970676513671875,0.0296480096876621,-0.2878183126449585,-0.1009343117475509
2024-12-07 18:21:09.662650600,1.980650634765625,0.0486669726669788,-0.2290239930152893,-0.1679812520742416
2024-12-07 18:21:09.672624600,1.990624755859375,0.0379965715110302,-0.1896520853042602,-0.221994400024414
2024-12-07 18:21:09.682598700,2.0005986328125,0.0314132384955883,-0.1856680065393448,-0.2430243194103241
2024-12-07 18:21:09.692572700,2.01057275390625,0.0313150472939014,-0.1272110939025879,-0.2435366958379745
2024-12-07 18:21:09.702545700,2.020545654296875,0.0373937152326107,-0.0267065931111574,-0.2387336790561676
2024-12-07 18:21:09.712519700,2.030519775390625,0.0524537153542041,0.0668955147266388,-0.2564242482185364
2024-12-07 18:21:09.722493700,2.04049365234375,0.0580415613949298,0.115742415189743,-0.2779753506183624
2024-12-07 18:21:09.732467000,2.050467041015625,0.0445624217391014,0.1210050955414772,-0.286188006401062
2024-12-07 18:21:09.742441000,2.06044091796875,0.0098087014630436,0.0737504959106445,-0.2883430421352386
2024-12-07 18:21:09.752415000,2.0704150390625,-0.0473381988704204,-0.002472024410963,-0.2810215950012207
2024-12-07 18:21:09.762389000,2.080388916015625,-0.1079589277505874,-0.1313991099596023,-0.2762489318847656
2024-12-07 18:21:09.772363000,2.090363037109375,-0.1507241576910019,-0.2969633340835571,-0.2764675915241241
2024-12-07 18:21:09.782337000,2.1003369140625,-0.1712126582860946,-0.4710834622383117,-0.2818426489830017
2024-12-07 18:21:09.792311000,2.11031103515625,-0.1804545819759369,-0.6047891974449158,-0.2864307463169098
2024-12-07 18:21:09.802285000,2.12028515625,-0.1837283968925476,-0.6941249370574951,-0.2932036817073822
2024-12-07 18:21:09.812259000,2.130259033203125,-0.185875803232193,-0.741249144077301,-0.3081303238868713
2024-12-07 18:21:09.822233000,2.140233154296875,-0.1848709881305694,-0.7468516230583191,-0.3285317420959472
2024-12-07 18:21:09.832206800,2.150206787109375,-0.1863554865121841,-0.7455427646636963,-0.3429913520812988
2024-12-07 18:21:09.842180900,2.160180908203125,-0.190100684762001,-0.7413451075553894,-0.3430787026882171
2024-12-07 18:21:09.852155000,2.17015478515625,-0.1901341080665588,-0.706019937992096,-0.3377458453178406
2024-12-07 18:21:09.862129000,2.18012890625,-0.1871803849935531,-0.6545549035072327,-0.3381202816963196
2024-12-07 18:21:09.872103000,2.19010302734375,-0.1768244504928589,-0.6342840790748596,-0.339891105890274
2024-12-07 18:21:09.882077000,2.200076904296875,-0.1645054668188095,-0.6159404516220093,-0.3471684455871582
2024-12-07 18:21:09.892050000,2.2100498046875,-0.1658132523298263,-0.5536859035491943,-0.3373464941978454
2024-12-07 18:21:09.902024000,2.22002392578125,-0.1770760267972946,-0.450381875038147,-0.3081710338592529
2024-12-07 18:21:09.911998000,2.229998046875,-0.1943393051624298,-0.3659696877002716,-0.2769743800163269
2024-12-07 18:21:09.921972000,2.239971923828125,-0.2075706869363784,-0.2987959682941437,-0.2455019652843475
2024-12-07 18:21:09.931945700,2.24994580078125,-0.2139720916748047,-0.2284545451402664,-0.2261109948158264
2024-12-07 18:21:09.941919700,2.259919677734375,-0.2234409600496292,-0.1520465910434723,-0.209495261311531
2024-12-07 18:21:09.951893800,2.269893798828125,-0.2402408123016357,-0.0778240785002708,-0.1880173087120056
2024-12-07 18:21:09.961867800,2.27986767578125,-0.2631748914718628,0.0048319217748939,-0.1575893610715866
2024-12-07 18:21:09.971841800,2.289841796875,-0.280226469039917,0.1017633080482482,-0.1285847127437591
2024-12-07 18:21:09.981815800,2.29981591796875,-0.2864638566970825,0.1838491261005401,-0.1049078702926635
2024-12-07 18:21:09.991789800,2.309789794921875,-0.282658576965332,0.2168342471122741,-0.0914349630475044
2024-12-07 18:21:10.001763800,2.319763916015625,-0.2764779031276703,0.1951108425855636,-0.0656513050198555
2024-12-07 18:21:10.011737900,2.32973779296875,-0.2684303820133209,0.1437024176120758,-0.0233585145324468
2024-12-07 18:21:10.021712000,2.3397119140625,-0.2598478198051452,0.100685179233551,0.0244537498801946
2024-12-07 18:21:10.031686000,2.349685791015625,-0.2468237280845642,0.0752980485558509,0.0724623352289199
2024-12-07 18:21:10.041660000,2.359659912109375,-0.2306676656007766,0.0630301982164383,0.11786949634552
2024-12-07 18:21:10.051634000,2.369634033203125,-0.2047165036201477,0.0468841828405857,0.1408827900886535
2024-12-07 18:21:10.061608000,2.37960791015625,-0.1631940901279449,0.0152354426681995,0.1275784373283386
2024-12-07 18:21:10.071581000,2.389580810546875,-0.1086628213524818,-0.0213168878108263,0.0882833302021026
2024-12-07 18:21:10.081555000,2.399554931640625,-0.0449075512588024,-0.0617588497698307,0.0420087724924087
2024-12-07 18:21:10.091529000,2.409529052734375,0.0198028218001127,-0.091460034251213,0.02296719327569
2024-12-07 18:21:10.101503000,2.4195029296875,0.0782030150294303,-0.1052203178405761,0.0529445335268974
2024-12-07 18:21:10.111477000,2.42947705078125,0.1183981150388717,-0.0992888957262039,0.1293793320655822
2024-12-07 18:21:10.121451000,2.439450927734375,0.1375997811555862,-0.0703046470880508,0.2319027781486511
2024-12-07 18:21:10.131425000,2.449425048828125,0.1389139592647552,-0.0280682388693094,0.3153659701347351
2024-12-07 18:21:10.141398800,2.459398681640625,0.1403560638427734,0.0184473320841789,0.3629443943500519
2024-12-07 18:21:10.151372800,2.469372802734375,0.1408718824386596,0.0867277607321739,0.3741641938686371
2024-12-07 18:21:10.161346800,2.479346923828125,0.1574623137712478,0.1931900084018707,0.3703814446926117
2024-12-07 18:21:10.171320800,2.48932080078125,0.2002574056386947,0.3342538177967071,0.3642506003379822
2024-12-07 18:21:10.181294800,2.499294921875,0.2665229737758636,0.4581398069858551,0.3607980608940124
2024-12-07 18:21:10.191268900,2.509268798828125,0.3489147424697876,0.5179055333137512,0.3620513677597046
2024-12-07 18:21:10.201243000,2.519242919921875,0.4286292791366577,0.5351239442825317,0.3852890729904175
2024-12-07 18:21:10.211217000,2.529216796875,0.4790908098220825,0.5249968767166138,0.4349385797977447
2024-12-07 18:21:10.221191000,2.53919091796875,0.514623761177063,0.5436424612998962,0.5247230529785156
2024-12-07 18:21:10.231165000,2.5491650390625,0.5424636602401733,0.6271833777427673,0.666499137878418
2024-12-07 18:21:10.241139000,2.559138916015625,0.5743345022201538,0.6821814179420471,0.8431127667427063
2024-12-07 18:21:10.251113000,2.569113037109375,0.575591504573822,0.572760820388794,1.0210256576538086
2024-12-07 18:21:10.261087000,2.5790869140625,0.5024400353431702,0.3103566467761993,1.174082636833191
2024-12-07 18:21:10.271060000,2.58906005859375,0.3451492488384247,0.0416860990226268,1.2643457651138306
2024-12-07 18:21:10.281034000,2.599033935546875,0.1680165380239486,-0.1306771486997604,1.2094907760620115
2024-12-07 18:21:10.291008000,2.609008056640625,0.031071089208126,-0.0341414101421833,1.060854196548462
2024-12-07 18:21:10.300982000,2.61898193359375,-0.0218240842223167,0.3222515881061554,0.901340126991272
2024-12-07 18:21:10.310956000,2.6289560546875,0.0105351861566305,0.7954527139663696,0.7516188025474548
2024-12-07 18:21:10.320930000,2.638929931640625,0.103555142879486,1.215705394744873,0.6160987615585327
2024-12-07 18:21:10.330904000,2.648904052734375,0.208139881491661,1.4805374145507812,0.4999825060367584
2024-12-07 18:21:10.340878000,2.658878173828125,0.2794598639011383,1.466659665107727,0.3832772076129913
2024-12-07 18:21:10.350852000,2.66885205078125,0.2944571673870086,1.123818039894104,0.2604049444198608
2024-12-07 18:21:10.360826000,2.678826171875,0.241917535662651,0.6956602931022644,0.1471122056245803
2024-12-07 18:21:10.370800000,2.688800048828125,0.1769558936357498,0.3853872418403625,0.0789776444435119
2024-12-07 18:21:10.380774100,2.698774169921875,0.1381267309188842,0.2241509705781936,0.079843170940876
2024-12-07 18:21:10.390748000,2.708747802734375,0.1236042603850364,0.2056862264871597,0.1235250756144523
2024-12-07 18:21:10.400722000,2.718721923828125,0.0999359488487243,0.287057489156723,0.1752162426710128
2024-12-07 18:21:10.410696000,2.728696044921875,0.0655863136053085,0.3702301681041717,0.2173197567462921
2024-12-07 18:21:10.420670000,2.738669921875,0.0209717098623514,0.3852549195289612,0.2263827621936798
2024-12-07 18:21:10.430644000,2.74864404296875,-0.0211141705513,0.3036896586418152,0.2030848562717437
2024-12-07 18:21:10.440617700,2.75861767578125,-0.0472722724080085,0.1399542391300201,0.1269264221191406
2024-12-07 18:21:10.450591700,2.768591796875,-0.0679630115628242,-0.0151227489113807,0.0299653708934783
2024-12-07 18:21:10.460564700,2.778564697265625,-0.0653613731265068,-0.1340344846248626,-0.0685681253671646
2024-12-07 18:21:10.470538800,2.788538818359375,-0.0493666753172874,-0.2170667201280594,-0.1592185348272323
2024-12-07 18:21:10.480512800,2.7985126953125,-0.0429548472166061,-0.3028689622879028,-0.2284591197967529
2024-12-07 18:21:10.490486800,2.80848681640625,-0.0668112635612487,-0.3195092380046844,-0.2807017862796783
2024-12-07 18:21:10.500460800,2.818460693359375,-0.1126136407256126,-0.2605335414409637,-0.2981311082839966
2024-12-07 18:21:10.510434800,2.828434814453125,-0.1491130292415619,-0.1499251574277877,-0.2817917168140411
2024-12-07 18:21:10.520408800,2.838408935546875,-0.1646906584501266,-0.1061137691140174,-0.2373113483190536
2024-12-07 18:21:10.530382800,2.8483828125,-0.16716830432415,-0.2022123634815216,-0.1726766526699066
2024-12-07 18:21:10.540356900,2.85835693359375,-0.1733894497156143,-0.3391457200050354,-0.1230084300041198
2024-12-07 18:21:10.550331000,2.868330810546875,-0.1602149605751037,-0.3660377860069275,-0.1093855500221252
2024-12-07 18:21:10.560305000,2.878304931640625,-0.1215828731656074,-0.3290986716747284,-0.1173638477921485
2024-12-07 18:21:10.570279000,2.88827880859375,-0.0596321411430835,-0.2983028888702392,-0.132644921541214
2024-12-07 18:21:10.580253000,2.8982529296875,0.001847730949521,-0.2729544043540954,-0.1574056595563888
2024-12-07 18:21:10.590227000,2.90822705078125,0.052690602838993,-0.2112121134996414,-0.1736857146024704
2024-12-07 18:21:10.600201000,2.918200927734375,0.0906278640031814,-0.1155364587903022,-0.1698329150676727
2024-12-07 18:21:10.610175000,2.928175048828125,0.1092431247234344,-0.0467144586145877,-0.1381171941757202
2024-12-07 18:21:10.620149000,2.93814892578125,0.1074923574924469,-0.0005389733705669,-0.0790213868021965
2024-12-07 18:21:10.630123000,2.948123046875,0.1210918202996254,0.0176318734884262,-0.0157054532319307
2024-12-07 18:21:10.640096000,2.958095947265625,0.1681842356920242,-0.0063530877232551,0.0277573335915803
2024-12-07 18:21:10.650070000,2.968070068359375,0.2053197026252746,-0.0562095716595649,0.0093135684728622
2024-12-07 18:21:10.660044000,2.9780439453125,0.1966639012098312,-0.0995884761214256,-0.0787590369582176
2024-12-07 18:21:10.670018000,2.98801806640625,0.1586653888225555,-0.127692312002182,-0.2286722958087921
2024-12-07 18:21:10.679992000,2.997991943359375,0.1283817887306213,-0.1901508867740631,-0.3975848853588104
2024-12-07 18:21:10.689966000,3.007966064453125,0.1193253174424171,-0.288461297750473,-0.5007483959197998
2024-12-07 18:21:10.699939800,3.01793994140625,0.126718521118164,-0.2998455166816711,-0.5163665413856506
2024-12-07 18:21:10.709913900,3.027913818359375,0.1151044368743896,-0.0979431197047233,-0.46974977850914
2024-12-07 18:21:10.719888000,3.037887939453125,0.0805813446640968,0.2659459114074707,-0.4144103527069092
2024-12-07 18:21:10.729861600,3.047861572265625,0.0970335006713867,0.5696531534194946,-0.3787591159343719
2024-12-07 18:21:10.739835600,3.057835693359375,0.1396706998348236,0.7226717472076416,-0.3693629503250122
2024-12-07 18:21:10.749809700,3.0678095703125,0.1480141431093216,0.7071367502212524,-0.361548513174057
2024-12-07 18:21:10.759783700,3.07778369140625,0.0836615115404129,0.4176982641220093,-0.3496604263782501
2024-12-07 18:21:10.769757400,3.08775732421875,-0.0405642949044704,-0.1747831553220749,-0.3566261827945709
2024-12-07 18:21:10.779731500,3.0977314453125,-0.2184189856052398,-0.8299460411071777,-0.3976143598556518
2024-12-07 18:21:10.789705500,3.10770556640625,-0.4169315695762634,-1.174113154411316,-0.4283753633499145
2024-12-07 18:21:10.799679500,3.117679443359375,-0.5417443513870239,-1.1650115251541138,-0.4109902381896972
2024-12-07 18:21:10.809653500,3.127653564453125,-0.5609089136123657,-0.9648271203041076,-0.3317577540874481
2024-12-07 18:21:10.819626500,3.13762646484375,-0.5277940630912781,-0.6508827805519104,-0.2203857153654098
2024-12-07 18:21:10.829600500,3.1476005859375,-0.4540629088878631,-0.3159937858581543,-0.1202816218137741
2024-12-07 18:21:10.839574500,3.157574462890625,-0.3552468717098236,-0.061060830950737,-0.0510665960609912
2024-12-07 18:21:10.849548500,3.167548583984375,-0.2432805746793747,0.0607483498752117,-0.0149545185267925
2024-12-07 18:21:10.859522600,3.1775224609375,-0.130151629447937,0.0928508937358856,-0.036996703594923
2024-12-07 18:21:10.869496600,3.18749658203125,-0.0418038181960582,0.0864700227975845,-0.1085564792156219
2024-12-07 18:21:10.879470600,3.197470703125,0.0308725163340568,0.0172898843884468,-0.1912606805562973
2024-12-07 18:21:10.889444600,3.207444580078125,0.1212550848722457,-0.1539872288703918,-0.2464615553617477
2024-12-07 18:21:10.899418600,3.217418701171875,0.2000093013048172,-0.3783255219459533,-0.2625268101692199
2024-12-07 18:21:10.909392600,3.227392578125,0.2274125218391418,-0.5544988512992859,-0.2589337825775146
2024-12-07 18:21:10.919366700,3.23736669921875,0.1997574567794799,-0.6384412050247192,-0.2432983666658401
2024-12-07 18:21:10.929340700,3.247340576171875,0.1406365185976028,-0.6546793580055237,-0.2290844470262527
2024-12-07 18:21:10.939314700,3.257314697265625,0.0886521488428115,-0.6615269184112549,-0.2184088975191116
2024-12-07 18:21:10.949288700,3.267288818359375,0.0534613169729709,-0.6531845331192017,-0.1941664218902588
2024-12-07 18:21:10.959262700,3.2772626953125,0.0314801186323165,-0.6078923940658569,-0.1461874544620514
2024-12-07 18:21:10.969236700,3.28723681640625,0.0271273870021104,-0.5120077729225159,-0.0906405001878738
2024-12-07 18:21:10.979210500,3.29721044921875,0.032653447240591,-0.3664354383945465,-0.0491346083581447
2024-12-07 18:21:10.989184500,3.3071845703125,0.034893549978733,-0.2475417405366897,-0.0350354760885238
2024-12-07 18:21:10.999158500,3.317158447265625,0.019622454419732,-0.1828514188528061,-0.0392765626311302
2024-12-07 18:21:11.009131800,3.3271318359375,-0.0162268728017807,-0.1750914454460144,-0.0470105037093162
2024-12-07 18:21:11.019105800,3.337105712890625,-0.0598113685846328,-0.2013014703989029,-0.0453883707523345
2024-12-07 18:21:11.029079600,3.34707958984375,-0.1011065989732742,-0.2223116904497146,-0.0376404449343681
2024-12-07 18:21:11.039053600,3.357053466796875,-0.1281741708517074,-0.2103570252656936,-0.040945429354906
2024-12-07 18:21:11.049027600,3.367027587890625,-0.149568885564804,-0.1983446776866912,-0.0561563856899738
2024-12-07 18:21:11.059001600,3.377001708984375,-0.1556092053651809,-0.2172155678272247,-0.0902280658483505
2024-12-07 18:21:11.068975600,3.3869755859375,-0.1494979262351989,-0.2665361166000366,-0.1523494720458984
2024-12-07 18:21:11.078949600,3.39694970703125,-0.1391299813985824,-0.3425866663455963,-0.241780549287796
2024-12-07 18:21:11.088923600,3.406923583984375,-0.1354960203170776,-0.4549873471260071,-0.3466700613498688
2024-12-07 18:21:11.098897700,3.416897705078125,-0.1460844874382019,-0.5648664236068726,-0.4353629052639007
2024-12-07 18:21:11.108871700,3.42687158203125,-0.1638409942388534,-0.6724779605865479,-0.5017216801643372
2024-12-07 18:21:11.118845700,3.436845703125,-0.1711250096559524,-0.780272901058197,-0.5314958095550537
2024-12-07 18:21:11.128819700,3.44681982421875,-0.1741516292095184,-0.8302562236785889,-0.5176058411598206
2024-12-07 18:21:11.138793700,3.456793701171875,-0.1806665211915969,-0.7629837393760681,-0.466457188129425
2024-12-07 18:21:11.148767700,3.466767822265625,-0.1897542029619217,-0.6337584257125854,-0.3790903091430664
2024-12-07 18:21:11.158741800,3.47674169921875,-0.19667549431324,-0.5090905427932739,-0.2861087024211883
2024-12-07 18:21:11.168715800,3.4867158203125,-0.1818566173315048,-0.4391863644123077,-0.2302868664264679
2024-12-07 18:21:11.178689800,3.496689697265625,-0.1572636514902115,-0.4361127912998199,-0.2047998756170272
2024-12-07 18:21:11.188663800,3.506663818359375,-0.1372631788253784,-0.4502827227115631,-0.1968682706356048
2024-12-07 18:21:11.198636500,3.516636474609375,-0.1433040350675583,-0.4578181505203247,-0.1866638362407684
2024-12-07 18:21:11.208610600,3.526610595703125,-0.1505347043275833,-0.4701177179813385,-0.1605647802352905
2024-12-07 18:21:11.218584600,3.53658447265625,-0.162101611495018,-0.4534687101840973,-0.1308849155902862
2024-12-07 18:21:11.228558600,3.54655859375,-0.1606390476226806,-0.3825553059577942,-0.0999386608600616
2024-12-07 18:21:11.238532600,3.55653271484375,-0.1487807929515838,-0.2957085371017456,-0.0706566721200943
2024-12-07 18:21:11.248506600,3.566506591796875,-0.1293798089027404,-0.2276220917701721,-0.0361745096743106
2024-12-07 18:21:11.258480600,3.576480712890625,-0.1173314005136489,-0.1571069061756134,-0.0033265487290918
2024-12-07 18:21:11.268454700,3.58645458984375,-0.1220870390534401,-0.0900105312466621,0.0348724275827407
2024-12-07 18:21:11.278428700,3.5964287109375,-0.1202782168984413,-0.0336913354694843,0.0661922693252563
2024-12-07 18:21:11.288402400,3.60640234375,-0.1148170456290245,0.0156232379376888,0.0945101454854011
2024-12-07 18:21:11.298376400,3.61637646484375,-0.1096004471182823,0.0671916231513023,0.1264020353555679
2024-12-07 18:21:11.308350500,3.6263505859375,-0.1143641024827957,0.1395697742700576,0.1549706757068634
2024-12-07 18:21:11.318324500,3.636324462890625,-0.1220625042915344,0.2358102798461914,0.1573195904493332
2024-12-07 18:21:11.328298500,3.646298583984375,-0.1274814158678054,0.3189547657966614,0.136680781841278
2024-12-07 18:21:11.338272500,3.6562724609375,-0.1450659930706024,0.3666210770606994,0.103171557188034
2024-12-07 18:21:11.348246500,3.66624658203125,-0.180313840508461,0.3813892900943756,0.0873501598834991
2024-12-07 18:21:11.358220500,3.676220458984375,-0.2070551663637161,0.3490518629550934,0.0823500752449035
2024-12-07 18:21:11.368194600,3.686194580078125,-0.2205506861209869,0.2573074698448181,0.0913227424025535
2024-12-07 18:21:11.378167600,3.69616748046875,-0.2141849249601364,0.1296384334564209,0.0993692204356193
2024-12-07 18:21:11.388141600,3.7061416015625,-0.1919304281473159,-0.002933234674856,0.0948778763413429
2024-12-07 18:21:11.398115600,3.716115478515625,-0.1881756335496902,-0.1129667907953262,0.1001639887690544
2024-12-07 18:21:11.408089600,3.726089599609375,-0.1920907646417617,-0.1563611775636673,0.1079759001731872
2024-12-07 18:21:11.418063600,3.736063720703125,-0.1837926208972931,-0.1368327438831329,0.1177411824464798
2024-12-07 18:21:11.428037600,3.74603759765625,-0.1529178470373153,-0.081906571984291,0.1196095049381256
2024-12-07 18:21:11.438011600,3.75601171875,-0.1068744584918022,-0.0297296550124883,0.1321404725313186
2024-12-07 18:21:11.447985700,3.765985595703125,-0.0582993701100349,0.013433814048767,0.1580798923969268
2024-12-07 18:21:11.457959700,3.775959716796875,-0.0200917962938547,0.071058489382267,0.1939571946859359
2024-12-07 18:21:11.467933700,3.78593359375,0.0246447287499904,0.1088155731558799,0.2475823909044265
2024-12-07 18:21:11.477907700,3.79590771484375,0.0630568340420723,0.1356961876153946,0.3168522715568542
2024-12-07 18:21:11.487881700,3.8058818359375,0.0880717784166336,0.1557193100452423,0.3889181911945343
2024-12-07 18:21:11.497855700,3.815855712890625,0.1040592640638351,0.1896336078643798,0.4466179609298706
2024-12-07 18:21:11.507829800,3.825829833984375,0.1231380775570869,0.2317057698965072,0.4844978153705597
2024-12-07 18:21:11.517803800,3.8358037109375,0.1525883823633194,0.2885645031929016,0.4995255172252655
2024-12-07 18:21:11.527777800,3.84577783203125,0.1870939135551452,0.3845222890377044,0.4986148774623871
2024-12-07 18:21:11.537751600,3.85575146484375,0.2223895937204361,0.5153950452804565,0.4977724850177765
2024-12-07 18:21:11.547725600,3.8657255859375,0.2611073553562164,0.6662560105323792,0.5189774632453918
2024-12-07 18:21:11.557698800,3.87569873046875,0.3054103851318359,0.8456974029541016,0.5898950695991516
2024-12-07 18:21:11.567672800,3.8856728515625,0.38322514295578,1.069291114807129,0.7071196436882019
2024-12-07 18:21:11.577646800,3.895646728515625,0.4920738637447357,1.3003157377243042,0.8510813117027283
2024-12-07 18:21:11.587620600,3.90562060546875,0.5946742296218872,1.487460374832153,1.0135962963104248
2024-12-07 18:21:11.597594600,3.9155947265625,0.6529436707496643,1.6139501333236694,1.1571829319000244
2024-12-07 18:21:11.608191700,3.926191650390625,0.6725025773048401,1.5656871795654297,1.254509210586548
2024-12-07 18:21:11.618165800,3.936165771484375,0.6722757816314697,1.2252757549285889,1.28286874294281
2024-12-07 18:21:11.628139800,3.946139892578125,0.6724885702133179,0.6274688839912415,1.2627125978469849
2024-12-07 18:21:11.638113800,3.95611376953125,0.6155339479446411,0.0277476049959659,1.1705152988433838
2024-12-07 18:21:11.648087800,3.966087890625,0.4715012013912201,-0.4429105818271637,1.060385823249817
2024-12-07 18:21:11.658061800,3.976061767578125,0.2789889574050903,-0.8816670179367065,0.985231876373291
2024-12-07 18:21:11.668035800,3.986035888671875,0.0616068430244922,-1.195081114768982,0.8802740573883057
2024-12-07 18:21:11.678009600,3.996009521484375,-0.1242770105600357,-1.216342568397522,0.6887258887290955
2024-12-07 18:21:11.687983600,4.005983642578125,-0.2157727181911468,-0.9737550616264344,0.4533364176750183
2024-12-07 18:21:11.697957600,4.01595751953125,-0.2065194100141525,-0.3998145759105682,0.2584069669246673
2024-12-07 18:21:11.707931400,4.025931396484375,-0.0807782560586929,0.3462089896202087,0.2584735453128814
2024-12-07 18:21:11.717905400,4.035905517578125,0.0993987023830413,0.9622365236282348,0.4310160279273987
2024-12-07 18:21:11.727879700,4.045879638671875,0.2374423891305923,1.285372972488403,0.6354056000709534
2024-12-07 18:21:11.737852700,4.055852783203125,0.2706742584705353,1.181954264640808,0.6802091598510742
2024-12-07 18:21:11.747826700,4.06582666015625,0.216409146785736,0.6805069446563721,0.5061684250831604
2024-12-07 18:21:11.757800700,4.07580078125,0.1148447096347808,0.07574163377285,0.1659269481897354
2024-12-07 18:21:11.767774500,4.0857744140625,0.0259163584560155,-0.3428979218006134,-0.2144660204648971
2024-12-07 18:21:11.777748500,4.09574853515625,-0.0077888877131044,-0.5007898807525635,-0.497812956571579
2024-12-07 18:21:11.787722500,4.105722412109375,0.0038139726966619,-0.4179559350013733,-0.6356802582740784
2024-12-07 18:21:11.797696500,4.115696533203125,0.0239546597003936,-0.1688366830348968,-0.6534688472747803
2024-12-07 18:21:11.807670500,4.12567041015625,0.0139146456494927,0.1481288075447082,-0.609154999256134
2024-12-07 18:21:11.817644500,4.13564453125,-0.049213457852602,0.3943183422088623,-0.5517223477363586
2024-12-07 18:21:11.827618600,4.14561865234375,-0.1369358301162719,0.4720933437347412,-0.5273759365081787
2024-12-07 18:21:11.837592600,4.155592529296875,-0.2057409882545471,0.3667472302913666,-0.5370639562606812
2024-12-07 18:21:11.847566600,4.165566650390625,-0.2281582355499267,0.1099481731653213,-0.5775527358055115
2024-12-07 18:21:11.857540600,4.17554052734375,-0.2288565188646316,-0.2009883970022201,-0.615323007106781
2024-12-07 18:21:11.867514600,4.1855146484375,-0.2514860033988952,-0.4937570691108703,-0.6319695115089417
2024-12-07 18:21:11.877488600,4.195488525390625,-0.2966396510601043,-0.70956951379776,-0.6603050231933594
2024-12-07 18:21:11.887462700,4.205462646484375,-0.3264932036399841,-0.7632734775543213,-0.6791250705718994
2024-12-07 18:21:11.897436700,4.215436767578125,-0.3166656196117401,-0.6145039796829224,-0.6518154144287109
2024-12-07 18:21:11.907410700,4.22541064453125,-0.2651131153106689,-0.2768141329288482,-0.5567530393600464
2024-12-07 18:21:11.918006800,4.2360068359375,-0.1626368016004562,0.176198661327362,-0.4000870883464813
2024-12-07 18:21:11.927980500,4.24598046875,-0.0471842475235462,0.5477498173713684,-0.2459023147821426
2024-12-07 18:21:11.937954600,4.25595458984375,0.0487056449055671,0.7824847102165222,-0.1191554442048072
2024-12-07 18:21:11.947928600,4.265928466796875,0.1081521958112716,0.888454258441925,-0.0484876707196235
2024-12-07 18:21:11.957902600,4.275902587890625,0.1096801608800888,0.9020311236381532,-0.0757811814546585
2024-12-07 18:21:11.967876600,4.285876708984375,0.0671630576252937,0.7937869429588318,-0.1702227294445037
2024-12-07 18:21:11.977850600,4.2958505859375,0.0097835753113031,0.5649069547653198,-0.2822990119457245
2024-12-07 18:21:11.987824600,4.30582470703125,-0.0067847487516701,0.2884042263031006,-0.3548358082771301
2024-12-07 18:21:11.997798700,4.315798583984375,0.0138664925470948,0.0285873580724,-0.3842244446277618
2024-12-07 18:21:12.007772700,4.325772705078125,0.0076136570423841,-0.208976462483406,-0.4109537899494171
2024-12-07 18:21:12.017746700,4.33574658203125,-0.0909712240099906,-0.4331074953079223,-0.4711293876171112
2024-12-07 18:21:12.027720700,4.345720703125,-0.2440888732671737,-0.6305281519889832,-0.5198220610618591
2024-12-07 18:21:12.037694700,4.35569482421875,-0.383919894695282,-0.6997197866439819,-0.531479001045227
2024-12-07 18:21:12.047668700,4.365668701171875,-0.475966215133667,-0.537494421005249,-0.5094522833824158
2024-12-07 18:21:12.057642800,4.375642822265625,-0.5320049524307251,-0.1929440796375274,-0.4646841585636139
2024-12-07 18:21:12.067616800,4.38561669921875,-0.5457740426063538,0.1495387107133865,-0.4066083431243896
2024-12-07 18:21:12.077590800,4.3955908203125,-0.51039057970047,0.3454752266407013,-0.3381840884685516
2024-12-07 18:21:12.087564800,4.405564697265625,-0.4294954240322113,0.3636662065982818,-0.27594655752182
2024-12-07 18:21:12.097538800,4.415538818359375,-0.3224254250526428,0.2250293046236038,-0.25558602809906
2024-12-07 18:21:12.107511800,4.42551171875,-0.2226841747760772,-0.0684443935751915,-0.2940562069416046
2024-12-07 18:21:12.117485800,4.43548583984375,-0.1497275084257125,-0.4332969486713409,-0.3853008151054382
2024-12-07 18:21:12.127459800,4.4454599609375,-0.099391371011734,-0.7685226202011108,-0.4814598560333252
2024-12-07 18:21:12.137433900,4.455433837890625,-0.0552269890904426,-1.0036444664001465,-0.549953043460846
2024-12-07 18:21:12.147408000,4.465407958984375,-0.0081862434744834,-1.1027634143829346,-0.564660906791687
2024-12-07 18:21:12.157382000,4.4753818359375,0.0229572895914316,-1.108060359954834,-0.5051652789115906
2024-12-07 18:21:12.167355600,4.485355712890625,0.0362267568707466,-1.0528128147125244,-0.4033989906311035
2024-12-07 18:21:12.177329700,4.49532958984375,0.0328527987003326,-0.9307301044464112,-0.2799984812736511
2024-12-07 18:21:12.187303700,4.5053037109375,0.0339388325810432,-0.7908073663711548,-0.1752142906188964
2024-12-07 18:21:12.197277700,4.515277587890625,0.0597150772809982,-0.6828323006629944,-0.1260408610105514
2024-12-07 18:21:12.207251700,4.525251708984375,0.0940855666995048,-0.5981374382972717,-0.1325003653764724
2024-12-07 18:21:12.217225500,4.5352255859375,0.112198106944561,-0.4841372072696686,-0.1846425533294677
2024-12-07 18:21:12.227199500,4.545199462890625,0.1061197072267532,-0.348230242729187,-0.2511534094810486
2024-12-07 18:21:12.237173500,4.555173583984375,0.0885122790932655,-0.1873951405286789,-0.2868611216545105
2024-12-07 18:21:12.247147500,4.5651474609375,0.0690693333745002,-0.0155200539156794,-0.254130870103836
2024-12-07 18:21:12.257121500,4.57512158203125,0.0429540798068046,0.1222747266292572,-0.176066517829895
2024-12-07 18:21:12.267095600,4.585095458984375,0.0101601835340261,0.2431465536355972,-0.0729334726929664
2024-12-07 18:21:12.277069600,4.595069580078125,-0.0148459505289793,0.3259106576442718,0.0150074139237403
2024-12-07 18:21:12.287043600,4.605043701171875,-0.0414229668676853,0.316972553730011,0.0687540024518966
2024-12-07 18:21:12.297016600,4.6150166015625,-0.0573318563401699,0.1676587611436844,0.0774199962615966
2024-12-07 18:21:12.306990600,4.624990478515625,-0.0803450271487236,-0.1067099347710609,0.0521127730607986
2024-12-07 18:21:12.316964600,4.634964599609375,-0.0980475395917892,-0.3185074925422668,-0.0232065357267856
2024-12-07 18:21:12.326938600,4.644938720703125,-0.1059688478708267,-0.4421814978122711,-0.1387134194374084
2024-12-07 18:21:12.336912600,4.65491259765625,-0.1301874071359634,-0.5114365816116333,-0.2321192771196365
2024-12-07 18:21:12.346886700,4.66488671875,-0.1465932875871658,-0.5067057609558105,-0.2855596244335174
2024-12-07 18:21:12.356860700,4.674860595703125,-0.1242496222257614,-0.4877110719680786,-0.3074589669704437
2024-12-07 18:21:12.366834700,4.684834716796875,-0.0845663920044899,-0.4524199366569519,-0.3064821064472198
2024-12-07 18:21:12.376808700,4.69480859375,-0.0526369549334049,-0.404411643743515,-0.3018232882022857
2024-12-07 18:21:12.386782700,4.70478271484375,-0.0387373864650726,-0.3723381161689758,-0.3065961897373199
2024-12-07 18:21:12.396756700,4.7147568359375,-0.0487183965742588,-0.3675157427787781,-0.3170593380928039
2024-12-07 18:21:12.406730800,4.724730712890625,-0.0720266476273536,-0.3897036015987396,-0.3209225237369537
2024-12-07 18:21:12.416704800,4.734704833984375,-0.0905259177088737,-0.4217354655265808,-0.3190515637397766
2024-12-07 18:21:12.426678800,4.7446787109375,-0.0924322083592414,-0.442790150642395,-0.3029612600803375
2024-12-07 18:21:12.436652500,4.754652587890625,-0.0867492333054542,-0.4614108204841614,-0.2858515977859497
2024-12-07 18:21:12.446626600,4.76462646484375,-0.0746984258294105,-0.4847025573253631,-0.2658733427524566
2024-12-07 18:21:12.456600600,4.7746005859375,-0.0711171627044677,-0.5015509724617004,-0.2550394237041473
2024-12-07 18:21:12.466574600,4.78457470703125,-0.0696151405572891,-0.4879150688648224,-0.2503155171871185
2024-12-07 18:21:12.476548600,4.794548583984375,-0.094724640250206,-0.4208507537841797,-0.222919225692749
2024-12-07 18:21:12.486521600,4.804521484375,-0.1412809640169143,-0.2928996980190277,-0.160132810473442
2024-12-07 18:21:12.496495600,4.81449560546875,-0.1630725413560867,-0.1251679509878158,-0.0796140059828758
2024-12-07 18:21:12.506469600,4.8244697265625,-0.1549027562141418,0.0473151318728923,-0.0014438356738537
2024-12-07 18:21:12.516443600,4.834443603515625,-0.1471565216779709,0.2071535140275955,0.0563092529773712
2024-12-07 18:21:12.526417700,4.844417724609375,-0.1547041982412338,0.3618642687797546,0.0859084203839302
2024-12-07 18:21:12.536391700,4.8543916015625,-0.1902619302272796,0.4996734857559204,0.1010147407650947
2024-12-07 18:21:12.546365700,4.86436572265625,-0.2228529006242752,0.5849332809448242,0.1229264289140701
2024-12-07 18:21:12.556339700,4.874339599609375,-0.2458909451961517,0.6161278486251831,0.1502253264188766
2024-12-07 18:21:12.566313700,4.884313720703125,-0.251841276884079,0.5817685127258301,0.2080707848072052
2024-12-07 18:21:12.576287700,4.894287841796875,-0.2415799349546432,0.5307660102844238,0.2388394623994827
2024-12-07 18:21:12.586261800,4.90426171875,-0.2086960226297378,0.4533066749572754,0.2431266158819198
2024-12-07 18:21:12.596235800,4.91423583984375,-0.1830717772245407,0.3830112516880035,0.2030241042375564
2024-12-07 18:21:12.606209800,4.924209716796875,-0.1627151072025299,0.2907526791095733,0.1337017565965652
2024-12-07 18:21:12.616183800,4.934183837890625,-0.1515318900346756,0.1967329382896423,0.0444518513977527
2024-12-07 18:21:12.626157800,4.94415771484375,-0.1212181895971298,0.0910280793905258,-0.0093461349606513
2024-12-07 18:21:12.636131800,4.9541318359375,-0.0862023308873176,0.050809808075428,-0.0179925989359617
2024-12-07 18:21:12.646105900,4.96410595703125,-0.0378124266862869,0.0855816379189491,0.0677587911486625
2024-12-07 18:21:12.656080000,4.974079833984375,0.0131076853722333,0.2338470816612243,0.2193420380353927
2024-12-07 18:21:12.666054000,4.984053955078125,0.0907984897494316,0.4520422518253326,0.4230144917964935
2024-12-07 18:21:12.676027600,4.994027587890625,0.1830538213253021,0.7217487692832947,0.6123289465904236
2024-12-07 18:21:12.686000600,5.004000732421875,0.2754918932914734,0.9876227974891664,0.742897093296051
2024-12-07 18:21:12.695974700,5.013974609375,0.3389060199260711,1.1888126134872437,0.8109365105628967
2024-12-07 18:21:12.705948700,5.02394873046875,0.4118803441524505,1.2844562530517578,0.82929927110672
2024-12-07 18:21:12.715922700,5.033922607421875,0.4910889565944671,1.2760995626449585,0.8460427522659302
2024-12-07 18:21:12.725897200,5.043897216796875,0.5897742509841919,1.2751610279083252,0.8981136679649353
2024-12-07 18:21:12.735871200,5.053871337890625,0.745380163192749,1.3063877820968628,1.0239204168319702
2024-12-07 18:21:12.745845200,5.06384521484375,0.8709650039672852,1.2529631853103638,1.169503927230835
2024-12-07 18:21:12.755819300,5.0738193359375,0.8268126845359802,1.025120973587036,1.2987521886825562
2024-12-07 18:21:12.765793300,5.083793212890625,0.6597821712493896,0.5866703391075134,1.4425203800201416
2024-12-07 18:21:12.775767300,5.093767333984375,0.4710137844085693,-0.0222961213439703,1.61670982837677
2024-12-07 18:21:12.785741300,5.1037412109375,0.2462339252233505,-0.4743573367595672,1.7079308032989502
2024-12-07 18:21:12.795715300,5.11371533203125,0.0236246697604656,-0.6385512351989746,1.636685490608215
2024-12-07 18:21:12.805689300,5.123689453125,-0.130524680018425,-0.6909715533256531,1.4172719717025757
2024-12-07 18:21:12.815663400,5.133663330078125,-0.1910883635282516,-0.6758142709732056,1.1183661222457886
2024-12-07 18:21:12.825637400,5.143637451171875,-0.1518951505422592,-0.4309084117412567,0.7787472605705261
2024-12-07 18:21:12.835611400,5.153611328125,-0.0437922999262809,0.0389555171132087,0.5008327960968018
2024-12-07 18:21:12.845585400,5.16358544921875,0.0781367942690849,0.5120099186897278,0.4221835136413574
2024-12-07 18:21:12.855559400,5.173559326171875,0.1916660368442535,0.9371686577796936,0.4925092756748199
2024-12-07 18:21:12.865533400,5.183533447265625,0.2621660530567169,1.158329725265503,0.5402469635009766
2024-12-07 18:21:12.875507500,5.193507568359375,0.259104311466217,0.978890597820282,0.4803310036659241
2024-12-07 18:21:12.885480400,5.20348046875,0.2143765240907669,0.5310382843017578,0.3364811539649963
2024-12-07 18:21:12.895454500,5.213454345703125,0.1491526514291763,0.0523328408598899,0.1876564919948578
2024-12-07 18:21:12.905428500,5.223428466796875,0.1089021638035774,-0.2302176207304,0.0569759830832481
2024-12-07 18:21:12.915402500,5.233402587890625,0.0940337255597114,-0.2482235878705978,-0.0249579064548015
2024-12-07 18:21:12.925376300,5.243376220703125,0.1060911864042282,-0.0896738991141319,-0.0517176166176795
2024-12-07 18:21:12.935350300,5.253350341796875,0.1171641945838928,0.1231854632496833,-0.0443892963230609
2024-12-07 18:21:12.945324300,5.26332421875,0.1309116929769516,0.3197099566459656,-0.0400121249258518
2024-12-07 18:21:12.955298300,5.27329833984375,0.1184109672904014,0.4658548831939697,-0.0729065835475921
2024-12-07 18:21:12.965272000,5.28327197265625,0.0881143137812614,0.5231243371963501,-0.1392834782600402
2024-12-07 18:21:12.975246000,5.29324609375,0.0472267158329486,0.4931645095348358,-0.2355532497167587
2024-12-07 18:21:12.985220000,5.30322021484375,0.0180861447006464,0.3973724544048309,-0.3316560685634613
2024-12-07 18:21:12.995194000,5.313194091796875,0.0015710584120824,0.255450963973999,-0.4023570120334625
2024-12-07 18:21:13.005168000,5.323168212890625,-0.0119628589600324,0.1208721026778221,-0.431719958782196
2024-12-07 18:21:13.015142100,5.33314208984375,-0.0288410671055316,0.0137057527899742,-0.4178223609924316
2024-12-07 18:21:13.025116200,5.3431162109375,-0.0615143254399299,-0.1046121045947074,-0.3799223899841308
2024-12-07 18:21:13.035090200,5.353090087890625,-0.1180093437433242,-0.2726278901100158,-0.3646198213100433
2024-12-07 18:21:13.045064200,5.363064208984375,-0.178043395280838,-0.4303328394889831,-0.3944927453994751
2024-12-07 18:21:13.055038200,5.3730380859375,-0.2301801294088363,-0.4787380397319793,-0.4846519529819488
2024-12-07 18:21:13.065012200,5.38301220703125,-0.2694908082485199,-0.4061895310878753,-0.5900300145149231
2024-12-07 18:21:13.074985200,5.392985107421875,-0.3018441200256347,-0.2722134292125702,-0.6754798889160156
2024-12-07 18:21:13.084959200,5.402959228515625,-0.3104226887226105,-0.1402870714664459,-0.719613254070282
2024-12-07 18:21:13.094933200,5.412933349609375,-0.2846118807792663,-0.0832607746124267,-0.724816620349884
2024-12-07 18:21:13.104907300,5.4229072265625,-0.2369277030229568,-0.1163433566689491,-0.6752732992172241
2024-12-07 18:21:13.114881300,5.43288134765625,-0.1662488579750061,-0.1759996116161346,-0.5417224168777466
2024-12-07 18:21:13.124855300,5.442855224609375,-0.0501203946769237,-0.1883454918861389,-0.3153969049453735
2024-12-07 18:21:13.134829300,5.452829345703125,0.1040187925100326,-0.0684149488806724,-0.0336243361234664
2024-12-07 18:21:13.144803300,5.46280322265625,0.2731028795242309,0.2237665653228759,0.2258226722478866
2024-12-07 18:21:13.154777300,5.47277734375,0.4359349608421325,0.5857778787612915,0.3532299995422363
2024-12-07 18:21:13.164751400,5.48275146484375,0.5534514784812927,0.8339181542396545,0.3615249395370483
2024-12-07 18:21:13.174725400,5.492725341796875,0.5609492063522339,0.8680762052536011,0.3034593760967254
2024-12-07 18:21:13.184699400,5.502699462890625,0.4559966921806335,0.7022145390510559,0.1578672975301742
2024-12-07 18:21:13.194673400,5.51267333984375,0.2996229529380798,0.3943078517913818,-0.0678817629814148
2024-12-07 18:21:13.204647400,5.5226474609375,0.149737074971199,0.0269237402826547,-0.3146872818470001
2024-12-07 18:21:13.214621200,5.53262109375,-0.0045652878470718,-0.3410198390483856,-0.4878741502761841
2024-12-07 18:21:13.224595200,5.54259521484375,-0.1785623878240585,-0.7079498767852783,-0.5543407797813416
2024-12-07 18:21:13.234569200,5.5525693359375,-0.3396486937999725,-0.9804399013519288,-0.5583605170249939
2024-12-07 18:21:13.244543200,5.562543212890625,-0.4243931472301483,-1.0395402908325195,-0.5481510162353516
2024-12-07 18:21:13.254517200,5.572517333984375,-0.4212736487388611,-0.9064642786979676,-0.5106754302978516
2024-12-07 18:21:13.264491300,5.5824912109375,-0.3346564471721649,-0.6497814059257507,-0.4460160136222839
2024-12-07 18:21:13.274464300,5.59246435546875,-0.1812320351600647,-0.4023079872131347,-0.4003655612468719
2024-12-07 18:21:13.284438300,5.602438232421875,-0.0784614458680152,-0.2250114977359771,-0.3644999861717224
2024-12-07 18:21:13.294412300,5.612412353515625,-0.0968101099133491,-0.1491085141897201,-0.3117861151695251
2024-12-07 18:21:13.304386300,5.62238623046875,-0.1499537527561187,-0.2922291755676269,-0.2816438972949981
2024-12-07 18:21:13.314360300,5.6323603515625,-0.1700957119464874,-0.6289659738540649,-0.3084011375904083
2024-12-07 18:21:13.324334300,5.642334228515625,-0.1801286339759826,-1.0282888412475586,-0.409515768289566
2024-12-07 18:21:13.334308400,5.652308349609375,-0.226928174495697,-1.3270422220230105,-0.5145960450172424
2024-12-07 18:21:13.344282400,5.662282470703125,-0.2806694507598877,-1.4389197826385498,-0.567159116268158
2024-12-07 18:21:13.354256400,5.67225634765625,-0.3022060394287109,-1.332419991493225,-0.550728440284729
2024-12-07 18:21:13.364230400,5.68223046875,-0.2720952928066253,-1.0607320070266724,-0.464504063129425
2024-12-07 18:21:13.374204400,5.692204345703125,-0.1991535574197769,-0.7598924040794373,-0.3476524949073791
2024-12-07 18:21:13.384178400,5.702178466796875,-0.100499153137207,-0.507672905921936,-0.2462920546531677
2024-12-07 18:21:13.394152400,5.71215234375,-0.0085070496425032,-0.3644424080848694,-0.1842473000288009
2024-12-07 18:21:13.404126500,5.72212646484375,0.050739761441946,-0.3471046984195709,-0.1528310626745224
2024-12-07 18:21:13.414100500,5.7321005859375,0.0624567866325378,-0.3896518349647522,-0.1325482428073883
2024-12-07 18:21:13.424074500,5.742074462890625,0.0615699589252471,-0.4443235993385315,-0.1291154325008392
2024-12-07 18:21:13.434048300,5.75204833984375,0.0902189463376998,-0.5143507719039917,-0.1407121419906616
2024-12-07 18:21:13.444022300,5.762022216796875,0.1450552940368652,-0.5329015851020813,-0.1573273241519928
2024-12-07 18:21:13.453996300,5.771996337890625,0.1950228065252304,-0.4501166045665741,-0.1648871451616287
2024-12-07 18:21:13.463969300,5.78196923828125,0.2073034346103668,-0.2677859365940094,-0.1497265696525573
2024-12-07 18:21:13.473943300,5.791943359375,0.1835305243730545,-0.0432117469608783,-0.1096434444189071
2024-12-07 18:21:13.483917300,5.801917236328125,0.148037776350975,0.152466133236885,-0.0554395914077758
2024-12-07 18:21:13.493891300,5.811891357421875,0.1352912038564682,0.2318997532129287,-0.0133652202785015
2024-12-07 18:21:13.503865300,5.821865234375,0.1183526962995529,0.221507579088211,0.0056598698720335
2024-12-07 18:21:13.513839400,5.83183935546875,0.0752581506967544,0.1358345299959182,-0.0176071841269731
2024-12-07 18:21:13.523813000,5.841813232421875,0.0129769295454025,0.0293424427509307,-0.0747407749295234
2024-12-07 18:21:13.533787100,5.851787109375,-0.0515683442354202,-0.0619363971054554,-0.1399798691272735
2024-12-07 18:21:13.543761200,5.86176123046875,-0.097303070127964,-0.1053501814603805,-0.2030563056468963
2024-12-07 18:21:13.553735200,5.871735107421875,-0.1245152130722999,-0.0959512218832969,-0.2673649489879608
2024-12-07 18:21:13.563709200,5.881709228515625,-0.1455105096101761,-0.0650036931037902,-0.3280810415744781
2024-12-07 18:21:13.573683200,5.89168310546875,-0.1832884401082992,-0.053265556693077,-0.3537310063838959
2024-12-07 18:21:13.583657200,5.9016572265625,-0.214762732386589,-0.0529315993189811,-0.352970153093338
2024-12-07 18:21:13.593631200,5.91163134765625,-0.2286280244588852,-0.0607143715023994,-0.3468851745128631
2024-12-07 18:21:13.603605200,5.921605224609375,-0.2271305322647094,-0.0783221274614334,-0.3539681136608124
2024-12-07 18:21:13.613579300,5.931579345703125,-0.2175762951374054,-0.1074846684932708,-0.370160698890686
2024-12-07 18:21:13.623553300,5.94155322265625,-0.214802086353302,-0.143935889005661,-0.3839617371559143
2024-12-07 18:21:13.633527300,5.95152734375,-0.2161734700202942,-0.1941471993923187,-0.3980904221534729
2024-12-07 18:21:13.643501300,5.961501220703125,-0.2160251289606094,-0.2466935068368911,-0.4214607179164886
2024-12-07 18:21:13.653474300,5.971474365234375,-0.221383586525917,-0.2387729585170745,-0.4370743334293365
2024-12-07 18:21:13.663448300,5.9814482421875,-0.2219527065753936,-0.1969514787197113,-0.4284225106239319
2024-12-07 18:21:13.673422300,5.99142236328125,-0.2078924477100372,-0.1494729369878769,-0.4124709963798523
2024-12-07 18:21:13.683396400,6.001396240234375,-0.1968198269605636,-0.0722745507955551,-0.3826795518398285
2024-12-07 18:21:13.693370400,6.011370361328125,-0.1822351068258285,0.0021408763714134,-0.332457423210144
2024-12-07 18:21:13.703344400,6.021344482421875,-0.1722040474414825,0.0667089447379112,-0.2841386497020721
2024-12-07 18:21:13.713318400,6.031318359375,-0.1677846014499664,0.1218358948826789,-0.2311945706605911
2024-12-07 18:21:13.723292400,6.04129248046875,-0.1581194549798965,0.1760349422693252,-0.202041745185852
2024-12-07 18:21:13.733265700,6.051265625,-0.1591608375310897,0.2340569496154785,-0.1842935979366302
2024-12-07 18:21:13.743239700,6.06123974609375,-0.1600545942783355,0.3042634725570678,-0.1823060810565948
2024-12-07 18:21:13.753213700,6.071213623046875,-0.1775207221508026,0.370972067117691,-0.1890476197004318
2024-12-07 18:21:13.763187700,6.081187744140625,-0.2026798725128173,0.3858367502689361,-0.1669843941926956
2024-12-07 18:21:13.773161700,6.09116162109375,-0.23100446164608,0.3791974186897278,-0.1311815232038498
2024-12-07 18:21:13.783135700,6.1011357421875,-0.2516631484031677,0.3493117094039917,-0.0674901604652404
2024-12-07 18:21:13.793109800,6.11110986328125,-0.2590241730213165,0.3609916865825653,0.0037475191056728
2024-12-07 18:21:13.803083800,6.121083740234375,-0.2320591211318969,0.3833782076835632,0.0910805612802505
2024-12-07 18:21:13.813057500,6.1310576171875,-0.1872987151145935,0.4495677053928375,0.1707882732152938
2024-12-07 18:21:13.823031600,6.141031494140625,-0.1389082819223404,0.5387029051780701,0.2194159924983978
2024-12-07 18:21:13.833005600,6.151005615234375,-0.0817753076553344,0.600701630115509,0.2486172020435333
2024-12-07 18:21:13.842978800,6.160978759765625,-0.0437536239624023,0.6552282571792603,0.2685815989971161
2024-12-07 18:21:13.852952800,6.170952880859375,0.0087389685213565,0.6838361024856567,0.308743953704834
2024-12-07 18:21:13.862926800,6.1809267578125,0.0725767984986305,0.7226495742797852,0.3670291006565094
2024-12-07 18:21:13.872900600,6.190900634765625,0.1080260574817657,0.7682170867919922,0.4255293905735016
2024-12-07 18:21:13.882874600,6.20087451171875,0.1436564922332763,0.7828482389450073,0.4779348075389862
2024-12-07 18:21:13.892848600,6.2108486328125,0.1833794265985489,0.7583501935005188,0.5096379518508911
2024-12-07 18:21:13.902822700,6.22082275390625,0.194591611623764,0.7129829525947571,0.508223295211792
2024-12-07 18:21:13.912796700,6.230796630859375,0.2032310217618942,0.678118884563446,0.4953743815422058
2024-12-07 18:21:13.922770700,6.240770751953125,0.2516398429870605,0.655712902545929,0.4910041391849518
2024-12-07 18:21:13.932744700,6.25074462890625,0.283354789018631,0.6554640531539917,0.5040702223777771
2024-12-07 18:21:13.942718700,6.26071875,0.3874899744987488,0.7039898037910461,0.5745041966438293
2024-12-07 18:21:13.952692500,6.2706923828125,0.5182855129241943,0.7447989583015442,0.6929071545600891
2024-12-07 18:21:13.962666500,6.28066650390625,0.6282714009284973,0.7936761975288391,0.817324161529541
2024-12-07 18:21:13.972640500,6.290640625,0.6832848787307739,0.8179898858070374,0.914961576461792
2024-12-07 18:21:13.982614500,6.300614501953125,0.7027645707130432,0.7757284641265869,0.9672988057136536
2024-12-07 18:21:13.992588500,6.310588623046875,0.7033836245536804,0.6213280558586121,1.0178841352462769
2024-12-07 18:21:14.002562600,6.3205625,0.6816551685333252,0.4224695563316345,1.1132220029830933
2024-12-07 18:21:14.012536600,6.33053662109375,0.6225894689559937,0.1967082023620605,1.2631231546401978
2024-12-07 18:21:14.022510600,6.340510498046875,0.514529287815094,-0.0147025818005204,1.4233423471450806
2024-12-07 18:21:14.032483600,6.350483642578125,0.3487789034843445,-0.0813044384121894,1.5304428339004517
2024-12-07 18:21:14.042457600,6.36045751953125,0.1672626286745071,-0.0055289873853325,1.507798194885254
2024-12-07 18:21:14.052431600,6.370431640625,0.0418016240000724,0.1502876728773117,1.3374141454696655
2024-12-07 18:21:14.062405600,6.380405517578125,-0.0168361235409975,0.3343912065029144,1.0460909605026243
2024-12-07 18:21:14.072379600,6.390379638671875,-0.0119494646787643,0.5169144868850708,0.6988436579704285
2024-12-07 18:21:14.082353700,6.400353759765625,0.0116064613685011,0.7354236245155334,0.3860847055912018
2024-12-07 18:21:14.092327700,6.41032763671875,0.049297634512186,0.8743053674697876,0.2102783024311065
2024-12-07 18:21:14.102301700,6.4203017578125,0.1135711669921875,0.970432698726654,0.1777603030204773
2024-12-07 18:21:14.112275700,6.430275634765625,0.2043584585189819,1.0465799570083618,0.2239603251218795
2024-12-07 18:21:14.122249700,6.440249755859375,0.2346428483724594,0.8854134678840637,0.2660675644874573
2024-12-07 18:21:14.132223500,6.450223388671875,0.1902801841497421,0.4705158770084381,0.2391773611307144
2024-12-07 18:21:14.142197500,6.460197509765625,0.1295574456453323,0.0361497960984706,0.1426151394844055
2024-12-07 18:21:14.152171500,6.470171630859375,0.0807143449783325,-0.2065379917621612,0.0094052357599139
2024-12-07 18:21:14.162145500,6.4801455078125,0.0435113199055194,-0.2434608489274978,-0.096237301826477
2024-12-07 18:21:14.172119600,6.49011962890625,0.0165871102362871,-0.1429134905338287,-0.1483923643827438
2024-12-07 18:21:14.182093600,6.500093505859375,-0.0097313122823834,-0.0037401427980512,-0.1482538878917694
2024-12-07 18:21:14.192067600,6.510067626953125,-0.0151091609150171,0.1224174052476883,-0.1354624778032302
2024-12-07 18:21:14.202040600,6.52004052734375,-0.0323555245995521,0.2285798043012619,-0.1698295176029205
2024-12-07 18:21:14.212014600,6.5300146484375,-0.0741190090775489,0.285235732793808,-0.2606752216815948
2024-12-07 18:21:14.221988600,6.539988525390625,-0.1078655198216438,0.2624859511852264,-0.3779938519001007
2024-12-07 18:21:14.231962600,6.549962646484375,-0.1296617835760116,0.1858202517032623,-0.4855701923370361
2024-12-07 18:21:14.241936600,6.5599365234375,-0.1346650570631027,0.0734281837940216,-0.5502565503120422
2024-12-07 18:21:14.251910700,6.56991064453125,-0.144200399518013,-0.0951080098748207,-0.5612057447433472
2024-12-07 18:21:14.261884700,6.579884765625,-0.1936443895101547,-0.2961955964565277,-0.5202099084854126
2024-12-07 18:21:14.271858700,6.589858642578125,-0.2841194868087768,-0.4779000580310821,-0.4476982355117798
2024-12-07 18:21:14.281832700,6.599832763671875,-0.3709675669670105,-0.5293017625808716,-0.4044285416603088
2024-12-07 18:21:14.291806700,6.609806640625,-0.4343340694904327,-0.4755150973796844,-0.3814168572425842
2024-12-07 18:21:14.301780700,6.61978076171875,-0.4548047184944153,-0.3244473040103912,-0.3809814155101776
2024-12-07 18:21:14.311754800,6.629754638671875,-0.4291417598724365,-0.1751559823751449,-0.3826580941677093
2024-12-07 18:21:14.321728800,6.639728759765625,-0.3468762040138244,-0.1049220412969589,-0.3855375051498413
2024-12-07 18:21:14.331702800,6.649702880859375,-0.2498021423816681,-0.123864434659481,-0.3948551118373871
2024-12-07 18:21:14.341676800,6.6596767578125,-0.1882860511541366,-0.204762727022171,-0.4116580784320831
2024-12-07 18:21:14.351650800,6.66965087890625,-0.15965436398983,-0.3159184157848358,-0.4033671021461487
2024-12-07 18:21:14.361624800,6.679624755859375,-0.1168491169810295,-0.3894155621528625,-0.3310033977031708
2024-12-07 18:21:14.371598800,6.689598876953125,-0.009710581973195,-0.3599441945552826,-0.165357232093811
2024-12-07 18:21:14.381572600,6.699572509765625,0.1370647549629211,-0.2089591920375824,0.0502605326473712
2024-12-07 18:21:14.391545600,6.709545654296875,0.2490584999322891,-0.0243892762809991,0.2101152688264846
2024-12-07 18:21:14.401519600,6.71951953125,0.3096781969070434,0.0592299848794937,0.2783598303794861
2024-12-07 18:21:14.411493600,6.72949365234375,0.3211629390716553,0.071846105158329,0.236074611544609
2024-12-07 18:21:14.421467600,6.739467529296875,0.277617335319519,0.1433469206094741,0.1050750464200973
2024-12-07 18:21:14.431441700,6.749441650390625,0.213606372475624,0.312899649143219,-0.0642011985182762
2024-12-07 18:21:14.441415400,6.75941552734375,0.1775391846895218,0.5318865776062012,-0.2219990938901901
2024-12-07 18:21:14.451389400,6.769389404296875,0.1452450007200241,0.6238642930984497,-0.3155590295791626
2024-12-07 18:21:14.461363500,6.779363525390625,0.0419670902192592,0.533954918384552,-0.383635014295578
2024-12-07 18:21:14.471337500,6.78933740234375,-0.1273978352546692,0.3218345046043396,-0.4722650051116943
2024-12-07 18:21:14.481311500,6.7993115234375,-0.243743360042572,0.0553250536322593,-0.5437612533569336
2024-12-07 18:21:14.491285500,6.809285400390625,-0.2456951737403869,-0.192107081413269,-0.566561222076416
2024-12-07 18:21:14.501259500,6.819259521484375,-0.187256634235382,-0.3126012682914734,-0.5362957119941711
2024-12-07 18:21:14.511233500,6.829233642578125,-0.1580740362405777,-0.2725860774517059,-0.4712905883789062
2024-12-07 18:21:14.521207600,6.83920751953125,-0.1958552300930023,-0.1755841523408889,-0.3725326061248779
2024-12-07 18:21:14.531181600,6.849181640625,-0.2507951855659485,-0.1439775228500366,-0.2647975385189056
2024-12-07 18:21:14.541155600,6.859155517578125,-0.2625088393688202,-0.2055388838052749,-0.1855658590793609
2024-12-07 18:21:14.551129600,6.869129638671875,-0.209034189581871,-0.3589999377727508,-0.1635975241661071
2024-12-07 18:21:14.561103600,6.879103515625,-0.1309210062026977,-0.5639395117759705,-0.1916419416666031
2024-12-07 18:21:14.571076600,6.88907666015625,-0.0685570761561393,-0.7693813443183899,-0.2292477935552597
2024-12-07 18:21:14.581050600,6.899050537109375,-0.0312323421239852,-0.8902060389518738,-0.2436195462942123
2024-12-07 18:21:14.591024600,6.909024658203125,0.000716945505701,-0.8818626999855042,-0.2249860316514969
2024-12-07 18:21:14.600998700,6.91899853515625,0.0303006693720817,-0.7741037607192993,-0.1836819946765899
2024-12-07 18:21:14.610972700,6.92897265625,0.0553120374679565,-0.6662984490394592,-0.1263842135667801
2024-12-07 18:21:14.620946700,6.93894677734375,0.0685165226459503,-0.5955422520637512,-0.0664210170507431
2024-12-07 18:21:14.630920700,6.948920654296875,0.0812594965100288,-0.5485960245132446,-0.0071758711710572
2024-12-07 18:21:14.640894700,6.958894775390625,0.1067230403423309,-0.4948557913303375,0.0217772163450717
2024-12-07 18:21:14.650868700,6.96886865234375,0.1180180385708808,-0.3976733088493347,0.0181587785482406
2024-12-07 18:21:14.660842800,6.9788427734375,0.1041586846113205,-0.2903535068035126,-0.0190453138202428
2024-12-07 18:21:14.670816800,6.988816650390625,0.0611467137932777,-0.2029194384813308,-0.0753865614533424
2024-12-07 18:21:14.680790800,6.998790771484375,0.0091921715065836,-0.0744882300496101,-0.1267901062965393
2024-12-07 18:21:14.690764500,7.0087646484375,-0.0362497344613075,0.1503197699785232,-0.1422343999147415
2024-12-07 18:21:14.700738600,7.018738525390625,-0.0660619512200355,0.4282544553279876,-0.1171018779277801
2024-12-07 18:21:14.710712600,7.028712646484375,-0.0784683749079704,0.644586443901062,-0.0657060891389846
2024-12-07 18:21:14.720686600,7.0386865234375,-0.0770331919193267,0.6748471856117249,-0.0126213012263178
2024-12-07 18:21:14.730661000,7.0486611328125,-0.0834313631057739,0.5119141936302185,0.0155872534960508
2024-12-07 18:21:14.740635100,7.05863525390625,-0.1122579500079155,0.2639198005199432,0.0012434683740139
2024-12-07 18:21:14.750608100,7.068608154296875,-0.1518682539463043,-0.0138410683721303,-0.068681888282299
2024-12-07 18:21:14.760582100,7.07858203125,-0.1993356347084045,-0.2724118828773498,-0.1672702431678772
2024-12-07 18:21:14.770556200,7.08855615234375,-0.2330159246921539,-0.4558621942996979,-0.2775959074497223
2024-12-07 18:21:14.780530200,7.0985302734375,-0.2306251972913742,-0.5539442896842957,-0.3756223320960998
2024-12-07 18:21:14.790504200,7.108504150390625,-0.2042982429265976,-0.6125790476799011,-0.4440601170063019
2024-12-07 18:21:14.800478200,7.118478271484375,-0.1631212383508682,-0.6171623468399048,-0.4993292391300201
2024-12-07 18:21:14.810452200,7.1284521484375,-0.1239843294024467,-0.6070258021354675,-0.5433773398399353
2024-12-07 18:21:14.820426200,7.13842626953125,-0.1032827794551849,-0.5945206880569458,-0.5617286562919617
2024-12-07 18:21:14.830400300,7.148400146484375,-0.104379765689373,-0.5950019955635071,-0.5530619621276855
2024-12-07 18:21:14.840374300,7.158374267578125,-0.1349544525146484,-0.5817245244979858,-0.5137332081794739
2024-12-07 18:21:14.850348300,7.168348388671875,-0.1735259741544723,-0.5567920207977295,-0.4425621628761291
2024-12-07 18:21:14.860322300,7.178322265625,-0.19734688103199,-0.5026819109916687,-0.3770020604133606
2024-12-07 18:21:14.870296300,7.18829638671875,-0.2011091858148574,-0.4406653046607971,-0.3359472453594208
2024-12-07 18:21:14.880270300,7.198270263671875,-0.2289789021015167,-0.3770732879638672,-0.3147860467433929
2024-12-07 18:21:14.890244400,7.208244384765625,-0.2510066628456116,-0.2817418277263641,-0.30892413854599
2024-12-07 18:21:14.900218000,7.218218017578125,-0.2717833220958709,-0.1430627852678299,-0.304546982049942
2024-12-07 18:21:14.910192000,7.228192138671875,-0.2750947475433349,0.0038298235740512,-0.2914894521236419
2024-12-07 18:21:14.920166000,7.238165771484375,-0.2731445133686065,0.1007398590445518,-0.2633115947246551
2024-12-07 18:21:14.930139100,7.24813916015625,-0.2590206861495971,0.1616293042898178,-0.2273125797510147
2024-12-07 18:21:14.940113200,7.258113037109375,-0.2524906098842621,0.1598665565252304,-0.1776696592569351
2024-12-07 18:21:14.950087200,7.268087158203125,-0.2549915015697479,0.1298277527093887,-0.1268582642078399
2024-12-07 18:21:14.960061200,7.278061279296875,-0.2498071193695068,0.1367040425539016,-0.1002849787473678
2024-12-07 18:21:14.970035200,7.28803515625,-0.2470808178186416,0.19622603058815,-0.0956426709890365
2024-12-07 18:21:14.980009000,7.298009033203125,-0.2478070706129074,0.2519968748092651,-0.0905943885445594
2024-12-07 18:21:14.989983000,7.30798291015625,-0.2480525225400924,0.2795411050319671,-0.0587421730160713
2024-12-07 18:21:14.999957000,7.31795703125,-0.250383049249649,0.2864077985286712,0.006990504451096
2024-12-07 18:21:15.009931000,7.327930908203125,-0.2528613209724426,0.270580381155014,0.0630194395780563
2024-12-07 18:21:15.019905000,7.337905029296875,-0.2513041794300079,0.2195025533437729,0.0781027898192405
2024-12-07 18:21:15.029879000,7.347879150390625,-0.2447704970836639,0.1588649004697799,0.0690669864416122
2024-12-07 18:21:15.039853000,7.35785302734375,-0.2316182106733322,0.114138439297676,0.0737581476569175
2024-12-07 18:21:15.049827000,7.3678271484375,-0.218686357140541,0.1219811588525772,0.1299940049648285
2024-12-07 18:21:15.059801000,7.377801025390625,-0.1822433918714523,0.1646441966295242,0.2681177854537964
2024-12-07 18:21:15.069775000,7.387775146484375,-0.1137591898441314,0.2159959226846695,0.4541194140911102
2024-12-07 18:21:15.079749000,7.3977490234375,-0.0336590260267257,0.2550101578235626,0.5962144732475281
2024-12-07 18:21:15.089723100,7.40772314453125,0.0232390686869621,0.2889189124107361,0.6537624001502991
2024-12-07 18:21:15.099696000,7.417696044921875,0.0632346868515014,0.3174706697463989,0.6538124680519104
2024-12-07 18:21:15.109670100,7.427670166015625,0.1285534650087356,0.3660417795181274,0.6455894112586975
2024-12-07 18:21:15.119644200,7.43764404296875,0.2407021075487136,0.4514189958572387,0.6826906800270081
2024-12-07 18:21:15.129618200,7.4476181640625,0.3590112030506134,0.6053074598312378,0.7867156863212585
2024-12-07 18:21:15.139592200,7.45759228515625,0.4477993845939636,0.8368373513221741,0.942314624786377
2024-12-07 18:21:15.149566200,7.467566162109375,0.5238504409790039,1.128463625907898,1.0957798957824707
2024-12-07 18:21:15.159540200,7.477540283203125,0.5926135182380676,1.4180046319961548,1.2376768589019775
2024-12-07 18:21:15.169514200,7.48751416015625,0.6586447954177856,1.6196726560592651,1.3495023250579834
2024-12-07 18:21:15.179488300,7.49748828125,0.7210647463798523,1.6708838939666748,1.3962693214416504
2024-12-07 18:21:15.189462300,7.507462158203125,0.769935131072998,1.4789512157440186,1.3740910291671753
2024-12-07 18:21:15.199436300,7.517436279296875,0.8075762391090393,0.9778726100921632,1.309704303741455
2024-12-07 18:21:15.209410300,7.527410400390625,0.8043953776359558,0.2860030233860016,1.1899237632751465
2024-12-07 18:21:15.219384300,7.53738427734375,0.7913551926612854,-0.282918244600296,0.9798267483711244
2024-12-07 18:21:15.229358000,7.547358154296875,0.7896310091018677,-0.6436517238616943,0.7874606251716614
2024-12-07 18:21:15.239332000,7.55733203125,0.761975109577179,-0.8344131708145142,0.7121632099151611
2024-12-07 18:21:15.249306000,7.56730615234375,0.6860178112983704,-0.8621913194656372,0.7167364954948425
2024-12-07 18:21:15.259280100,7.577280029296875,0.5622985363006592,-0.7478817701339722,0.6905328631401062
2024-12-07 18:21:15.269254100,7.587254150390625,0.4043434262275696,-0.5573727488517761,0.579982578754425
2024-12-07 18:21:15.279227100,7.59722705078125,0.2326542288064956,-0.3309364020824432,0.388382226228714
2024-12-07 18:21:15.289201000,7.607200927734375,0.1401368677616119,-0.0901366993784904,0.1841848194599151
2024-12-07 18:21:15.299175000,7.6171748046875,0.1544015705585479,0.1520785987377166,0.1118523031473159
2024-12-07 18:21:15.309149000,7.62714892578125,0.2497544586658477,0.4779869318008423,0.2163126617670059
2024-12-07 18:21:15.319123000,7.637123046875,0.3705679476261139,0.8410817980766296,0.412082701921463
2024-12-07 18:21:15.329097000,7.647096923828125,0.4454934895038605,0.8511834144592285,0.5387033224105835
2024-12-07 18:21:15.339071000,7.657071044921875,0.3884768187999725,0.3788139820098877,0.5159084796905518
2024-12-07 18:21:15.349045000,7.667044921875,0.2927093803882599,-0.2822411656379699,0.3463833332061767
2024-12-07 18:21:15.359019000,7.67701904296875,0.2282888442277908,-0.7932008504867554,0.0803308635950088
2024-12-07 18:21:15.368993000,7.686992919921875,0.1845400780439376,-0.979317843914032,-0.1737233102321624
2024-12-07 18:21:15.378967000,7.696967041015625,0.1740064769983291,-0.8311832547187805,-0.3601006269454956
2024-12-07 18:21:15.388941000,7.706941162109375,0.1830926984548568,-0.5011518597602844,-0.4301717281341553
2024-12-07 18:21:15.398915000,7.7169150390625,0.1837992370128631,-0.1242772713303566,-0.4128694236278534
2024-12-07 18:21:15.408889000,7.72688916015625,0.1683363318443298,0.1651753634214401,-0.3547681272029876
2024-12-07 18:21:15.418863000,7.736863037109375,0.0978099629282951,0.3675526678562164,-0.314244657754898
2024-12-07 18:21:15.428837000,7.746837158203125,-0.0260093212127685,0.4314670860767364,-0.3022446930408478
2024-12-07 18:21:15.438811100,7.75681103515625,-0.1703284233808517,0.423626184463501,-0.3140265345573425
2024-12-07 18:21:15.448784100,7.7667841796875,-0.2984441220760345,0.3144624829292297,-0.3239602148532867
2024-12-07 18:21:15.458758100,7.776758056640625,-0.3849968612194061,0.1378120630979538,-0.3207713365554809
2024-12-07 18:21:15.468732200,7.786732177734375,-0.4283829629421234,-0.0489488616585731,-0.2933059632778168
2024-12-07 18:21:15.478706200,7.7967060546875,-0.4490818679332733,-0.265289157629013,-0.2435144484043121
2024-12-07 18:21:15.488680200,7.80668017578125,-0.4852137267589569,-0.5019405484199524,-0.1935922801494598
2024-12-07 18:21:15.498654200,7.816654296875,-0.5526047348976135,-0.6957755088806152,-0.1867274492979049
2024-12-07 18:21:15.508628200,7.826628173828125,-0.6278002262115479,-0.7757042050361633,-0.2417269200086593
2024-12-07 18:21:15.518602200,7.836602294921875,-0.6789941787719727,-0.7438352108001709,-0.3595001399517059
2024-12-07 18:21:15.528576300,7.846576171875,-0.6896700859069824,-0.6369997262954712,-0.4990937709808349
2024-12-07 18:21:15.538550000,7.856550048828125,-0.6655527353286743,-0.4858887493610382,-0.6270357966423035
2024-12-07 18:21:15.548524000,7.86652392578125,-0.6143373250961304,-0.30906742811203,-0.7182028293609619
2024-12-07 18:21:15.558498000,7.876498046875,-0.5437646508216858,-0.1272046864032745,-0.7371762990951538
2024-12-07 18:21:15.568472000,7.88647216796875,-0.4356788992881775,0.0092080868780612,-0.6686114072799683
2024-12-07 18:21:15.578446000,7.896446044921875,-0.2748085260391235,0.0576624423265457,-0.508877694606781
2024-12-07 18:21:15.588420000,7.906420166015625,-0.0845056995749473,0.037927072495222,-0.264168381690979
2024-12-07 18:21:15.602758100,7.920758056640625,0.1039760634303093,0.0932057723402977,0.1641819179058075
2024-12-07 18:21:15.612732200,7.930732177734375,0.1516246795654297,0.2553836703300476,0.339459627866745
2024-12-07 18:21:15.622706200,7.9407060546875,0.1977684795856475,0.4341209232807159,0.361904501914978
2024-12-07 18:21:15.632679200,7.95067919921875,0.2780579328536987,0.5418568253517151,0.2629689872264862
2024-12-07 18:21:15.642653200,7.960653076171875,0.3488602042198181,0.6284870505332947,0.061819352209568
2024-12-07 18:21:15.652627200,7.970627197265625,0.3408131599426269,0.7368509769439697,-0.1522179245948791
2024-12-07 18:21:15.662601200,7.980601318359375,0.2413201183080673,0.6613602042198181,-0.2122096270322799
2024-12-07 18:21:15.672575200,7.9905751953125,0.0964365676045417,0.5835121273994446,-0.1754180788993835
2024-12-07 18:21:15.682549200,8.00054931640625,-0.0664013475179672,0.6419948935508728,-0.1414089798927307
2024-12-07 18:21:15.692523300,8.010523193359376,-0.1661528199911117,0.6891536116600037,-0.1360684186220169
2024-12-07 18:21:15.702497300,8.020497314453126,-0.1744203418493271,0.7068564295768738,-0.1802657097578048
2024-12-07 18:21:15.712471000,8.030470947265625,-0.1114451140165329,0.6295807957649231,-0.2288678139448166
2024-12-07 18:21:15.722445000,8.040445068359375,-0.0458352044224739,0.2920882105827331,-0.2415034472942352
2024-12-07 18:21:15.732419300,8.05041943359375,-0.0510412976145744,-0.2595983147621155,-0.2352204322814941
2024-12-07 18:21:15.742393300,8.060393310546875,-0.0965427383780479,-0.7860383987426758,-0.2080926746129989
2024-12-07 18:21:15.752367400,8.070367431640625,-0.1365097314119339,-1.0733593702316284,-0.1410185247659683
2024-12-07 18:21:15.762341400,8.08034130859375,-0.1203169152140617,-1.1232945919036863,-0.0975778400897979
2024-12-07 18:21:15.772315100,8.090315185546874,-0.0784013122320175,-1.041748285293579,-0.1276767253875732
2024-12-07 18:21:15.782289200,8.1002890625,-0.0758329555392265,-0.8553118705749512,-0.2150862067937851
2024-12-07 18:21:15.792263200,8.11026318359375,-0.1054768562316894,-0.5879623889923096,-0.3121774792671203
2024-12-07 18:21:15.802236400,8.120236328125,-0.1194049268960952,-0.2694951891899109,-0.3740597367286682
2024-12-07 18:21:15.812210400,8.13021044921875,-0.0989046245813369,-0.0151295159012079,-0.3909049332141876
2024-12-07 18:21:15.822184400,8.140184326171875,-0.0762467160820961,0.0591247417032718,-0.3775185644626617
2024-12-07 18:21:15.832158200,8.150158203125,-0.0453550554811954,-0.0304046776145696,-0.3655403256416321
2024-12-07 18:21:15.842132200,8.16013232421875,-0.0336320884525775,-0.2348582148551941,-0.369881808757782
2024-12-07 18:21:15.852106200,8.170106201171874,-0.0354298651218414,-0.5304216146469116,-0.3886317014694214
2024-12-07 18:21:15.862080300,8.180080322265624,-0.0470215417444705,-0.7728334665298462,-0.4140926003456116
2024-12-07 18:21:15.872054300,8.19005419921875,-0.077450968325138,-0.8154860138893127,-0.4147569239139557
2024-12-07 18:21:15.882028300,8.2000283203125,-0.1154494807124137,-0.6502237915992737,-0.3749807476997375
2024-12-07 18:21:15.892002300,8.210002197265625,-0.1522101461887359,-0.4114330112934112,-0.3140000998973846
2024-12-07 18:21:15.901976300,8.219976318359375,-0.1819336861371994,-0.1656815707683563,-0.2617672681808471
2024-12-07 18:21:15.911950300,8.229950439453125,-0.2135124504566192,0.0673914030194282,-0.2269006967544555
2024-12-07 18:21:15.922547500,8.24054736328125,-0.2332198470830917,0.2459323704242706,-0.2220414876937866
2024-12-07 18:21:15.932521200,8.250521240234375,-0.2254659384489059,0.305572897195816,-0.2598207294940948
2024-12-07 18:21:15.942495200,8.2604951171875,-0.1917327493429184,0.2228708267211914,-0.336693674325943
2024-12-07 18:21:15.952469200,8.27046923828125,-0.1617031097412109,0.0112895844504237,-0.4275205135345459
2024-12-07 18:21:15.962443300,8.280443359375,-0.1431765705347061,-0.2648453414440155,-0.5038022398948669
2024-12-07 18:21:15.972417300,8.290417236328125,-0.1472997218370437,-0.5407542586326599,-0.5451433062553406
2024-12-07 18:21:15.982391300,8.300391357421875,-0.1760413497686386,-0.7641183733940125,-0.5331196188926697
2024-12-07 18:21:15.992365300,8.310365234375,-0.2103141695261001,-0.8925535082817078,-0.4905105531215668
2024-12-07 18:21:16.002339300,8.32033935546875,-0.2155347615480423,-0.9713814854621888,-0.4413754940032959
2024-12-07 18:21:16.012312000,8.33031201171875,-0.1845641732215881,-0.9873919486999512,-0.4165493845939636
2024-12-07 18:21:16.022286000,8.3402861328125,-0.1532965302467346,-0.8831355571746826,-0.4099367558956146
2024-12-07 18:21:16.032260000,8.350260009765625,-0.1414276361465454,-0.706838846206665,-0.400851845741272
2024-12-07 18:21:16.042234000,8.360234130859375,-0.1256121844053268,-0.565708339214325,-0.3760581016540527
2024-12-07 18:21:16.052208000,8.3702080078125,-0.102254532277584,-0.5036795139312744,-0.3515002429485321
2024-12-07 18:21:16.062182100,8.38018212890625,-0.0977434068918228,-0.4626026153564453,-0.3343353867530823
2024-12-07 18:21:16.072156200,8.39015625,-0.1323888003826141,-0.4401440918445587,-0.3150002360343933
2024-12-07 18:21:16.082130200,8.400130126953124,-0.1694818288087844,-0.4281545579433441,-0.2882682383060455
2024-12-07 18:21:16.092104200,8.410104248046874,-0.1876195520162582,-0.4005785882472992,-0.2700934708118438
2024-12-07 18:21:16.102078200,8.420078125,-0.2110372632741928,-0.3225064277648926,-0.2500864863395691
2024-12-07 18:21:16.112052200,8.43005224609375,-0.226861834526062,-0.2054045051336288,-0.1962726265192031
2024-12-07 18:21:16.122026200,8.440026123046875,-0.2165202498435974,-0.0602230876684188,-0.1223898753523826
2024-12-07 18:21:16.132000300,8.450000244140625,-0.1533245593309402,0.0575326830148696,-0.0451275259256362
2024-12-07 18:21:16.141974300,8.459974365234375,-0.0867684334516525,0.1787065118551254,0.0106388013809919
2024-12-07 18:21:16.151948300,8.4699482421875,-0.0620602965354919,0.2972548305988312,0.0122018437832593
2024-12-07 18:21:16.161922300,8.47992236328125,-0.0955668538808822,0.4126030206680298,-0.0598358660936355
2024-12-07 18:21:16.171896300,8.489896240234375,-0.1342416256666183,0.5029020309448242,-0.1316799819469452
2024-12-07 18:21:16.181869300,8.499869384765624,-0.1840805560350418,0.5996330976486206,-0.165797472000122
2024-12-07 18:21:16.191843300,8.50984326171875,-0.209963783621788,0.7036217451095581,-0.1087555512785911
2024-12-07 18:21:16.201817300,8.5198173828125,-0.1978674381971359,0.7860279083251953,0.0224831663072109
2024-12-07 18:21:16.211791400,8.529791259765625,-0.1288633197546005,0.8064535856246948,0.1943499445915222
2024-12-07 18:21:16.221765400,8.539765380859375,-0.0214409828186035,0.7614917159080505,0.3411023616790771
2024-12-07 18:21:16.231739400,8.549739501953125,0.1229749545454979,0.6754516363143921,0.4532491266727447
2024-12-07 18:21:16.241713400,8.55971337890625,0.2588126957416534,0.6004042625427246,0.5002956986427307
2024-12-07 18:21:16.251687200,8.569687255859375,0.3675417900085449,0.5360459685325623,0.4827438294887543
2024-12-07 18:21:16.261661200,8.5796611328125,0.4336574375629425,0.503935694694519,0.4298691749572754
2024-12-07 18:21:16.271635200,8.58963525390625,0.4517154097557068,0.4791249930858612,0.3279356360435486
2024-12-07 18:21:16.281609200,8.599609130859376,0.3932483792304992,0.4501615166664123,0.2047764062881469
2024-12-07 18:21:16.291583200,8.609583251953126,0.2775161862373352,0.3903203308582306,0.1399773806333542
2024-12-07 18:21:16.301557200,8.61955712890625,0.1870925277471542,0.2578813433647156,0.1703933477401733
2024-12-07 18:21:16.311531300,8.62953125,0.1636772006750106,0.153811901807785,0.2674025297164917
2024-12-07 18:21:16.321505300,8.63950537109375,0.2087030112743377,0.2416940927505493,0.4033371806144714
2024-12-07 18:21:16.331479300,8.649479248046875,0.3086080253124237,0.5079787373542786,0.5399602651596069
2024-12-07 18:21:16.341453300,8.659453369140625,0.4210869073867798,0.8608949780464172,0.654957115650177
2024-12-07 18:21:16.351427300,8.66942724609375,0.5280596613883972,1.2104520797729492,0.7231348752975464
2024-12-07 18:21:16.361400300,8.679400390625,0.6379121541976929,1.494152545928955,0.7410038709640503
2024-12-07 18:21:16.371374300,8.689374267578126,0.7467577457427979,1.6766239404678345,0.7348465919494629
2024-12-07 18:21:16.381348000,8.69934814453125,0.8217196464538574,1.6886179447174072,0.7388248443603516
2024-12-07 18:21:16.391322000,8.709322021484375,0.8388954401016235,1.4660000801086426,0.7428207397460938
2024-12-07 18:21:16.401296100,8.719296142578125,0.7681304216384888,1.0086863040924072,0.7478349208831787
2024-12-07 18:21:16.411270100,8.729270263671875,0.6253436207771301,0.4692772030830383,0.7865510582923889
2024-12-07 18:21:16.421244200,8.739244140625,0.4081407785415649,0.0688270032405853,0.906477987766266
2024-12-07 18:21:16.431218200,8.74921826171875,0.1987913101911544,-0.0892368033528328,1.0480897426605225
2024-12-07 18:21:16.441192200,8.759192138671875,0.0753023922443389,-0.1874746978282928,1.1372814178466797
2024-12-07 18:21:16.451166200,8.769166259765624,0.0333609171211719,-0.2858249247074127,1.120776653289795
2024-12-07 18:21:16.461140200,8.77914013671875,0.032958511263132,-0.3068180978298187,0.9752708673477172
2024-12-07 18:21:16.471114200,8.7891142578125,0.0294589977711439,-0.1983955353498459,0.7416098117828369
2024-12-07 18:21:16.481088300,8.799088134765626,0.0453860312700271,0.0009646962862461,0.5209578275680542
2024-12-07 18:21:16.491062300,8.809062255859375,0.0957399755716323,0.2236013710498809,0.4017680585384369
2024-12-07 18:21:16.501036300,8.819036376953125,0.1595072299242019,0.3796684741973877,0.3739204406738281
2024-12-07 18:21:16.511010000,8.829010009765625,0.2134244292974472,0.4072076082229614,0.3723846971988678
2024-12-07 18:21:16.520984000,8.838984130859375,0.2304207235574722,0.3599950969219208,0.3459157943725586
2024-12-07 18:21:16.530958000,8.8489580078125,0.2112819850444793,0.3198998868465423,0.2855288982391357
2024-12-07 18:21:16.540931300,8.858931396484374,0.172419011592865,0.3140286803245544,0.1986936330795288
2024-12-07 18:21:16.550905300,8.8689052734375,0.1290004849433899,0.3296636641025543,0.1062822043895721
2024-12-07 18:21:16.560879000,8.878879150390626,0.0839344710111618,0.3191641569137573,0.0244464594870805
2024-12-07 18:21:16.570853000,8.88885302734375,0.0467776283621788,0.2813455164432525,-0.0440379604697227
2024-12-07 18:21:16.580827100,8.8988271484375,0.0100971143692731,0.2337007522583007,-0.0892693549394607
2024-12-07 18:21:16.590801200,8.90880126953125,-0.0157899614423513,0.1716216802597046,-0.128378689289093
2024-12-07 18:21:16.600775200,8.918775146484375,-0.0204899087548255,0.0747800916433334,-0.1757331639528274
2024-12-07 18:21:16.610749200,8.928749267578125,-0.0272991098463535,-0.0131277553737163,-0.2256081104278564
2024-12-07 18:21:16.620723200,8.93872314453125,-0.0386052913963794,-0.079442597925663,-0.2731333076953888
2024-12-07 18:21:16.630697200,8.948697265625,-0.0533625409007072,-0.1455698311328888,-0.312506228685379
2024-12-07 18:21:16.640671200,8.958671142578124,-0.0634242296218872,-0.1872837245464325,-0.3525289893150329
2024-12-07 18:21:16.650645200,8.968645263671876,-0.0978309512138366,-0.2397099435329437,-0.3775440156459808
2024-12-07 18:21:16.660619300,8.978619384765626,-0.1502036154270172,-0.3219086825847626,-0.3970223665237427
2024-12-07 18:21:16.670593300,8.98859326171875,-0.2134661823511123,-0.4394347369670868,-0.4046819508075714
2024-12-07 18:21:16.680567300,8.9985673828125,-0.2731572389602661,-0.5653204917907715,-0.3996211588382721
2024-12-07 18:21:16.690541300,9.008541259765623,-0.3311178386211395,-0.6812107563018799,-0.4084796011447906
2024-12-07 18:21:16.700515300,9.018515380859377,-0.3920006453990936,-0.7719944715499878,-0.4279923141002655
2024-12-07 18:21:16.710489300,9.0284892578125,-0.4490568935871124,-0.8012135028839111,-0.4531996250152588
2024-12-07 18:21:16.720462300,9.03846240234375,-0.4933401942253113,-0.7516307830810547,-0.4626176357269287
2024-12-07 18:21:16.730436000,9.04843603515625,-0.4998495876789093,-0.6586222052574158,-0.4393402934074402
2024-12-07 18:21:16.740410000,9.05841015625,-0.4565370082855224,-0.5522994995117188,-0.3746142983436584
2024-12-07 18:21:16.750384000,9.068384033203126,-0.3690185546875,-0.4209834337234497,-0.2699635922908783
2024-12-07 18:21:16.760358100,9.078358154296875,-0.2352615445852279,-0.3059386014938354,-0.1495841741561889
2024-12-07 18:21:16.770332200,9.088332275390623,-0.0795458853244781,-0.2126168459653854,-0.0322906710207462
2024-12-07 18:21:16.780306200,9.09830615234375,0.0527799353003501,-0.0790204331278801,0.0550013557076454
2024-12-07 18:21:16.790280200,9.1082802734375,0.1408107280731201,0.0637060850858688,0.0974204540252685
2024-12-07 18:21:16.800254200,9.118254150390625,0.2006791234016418,0.1708868741989135,0.1501584947109222
2024-12-07 18:21:16.810228200,9.128228271484376,0.2445206344127655,0.2341855019330978,0.25849249958992
2024-12-07 18:21:16.820202200,9.1382021484375,0.3092570304870605,0.2411922812461853,0.3706943988800049
2024-12-07 18:21:16.830176000,9.148176025390624,0.4511017203330993,0.2134303003549575,0.4321567118167877
2024-12-07 18:21:16.840150000,9.15814990234375,0.548622727394104,0.2177760452032089,0.3855729401111603
2024-12-07 18:21:16.850124000,9.1681240234375,0.4798603653907776,0.1582515835762024,0.264568030834198
2024-12-07 18:21:16.860097800,9.178097900390624,0.3193992972373962,-6.77618663758e-05,0.1463830471038818
2024-12-07 18:21:16.870071800,9.18807177734375,0.1619679778814315,-0.1435199379920959,0.0491440072655677
2024-12-07 18:21:16.880045800,9.1980458984375,0.0156744271516799,-0.1501003503799438,0.0018060524016618
2024-12-07 18:21:16.890019800,9.208019775390625,-0.0666247382760047,-0.1157325729727745,-0.0364895313978195
2024-12-07 18:21:16.899993900,9.217993896484376,-0.0614334382116794,-0.1593117415904998,-0.1717514842748642
2024-12-07 18:21:16.909966800,9.227966796875,-0.077636681497097,-0.2456848621368408,-0.4390639066696167
2024-12-07 18:21:16.919940900,9.23794091796875,-0.1245381459593772,-0.399183839559555,-0.6747493743896484
2024-12-07 18:21:16.929915000,9.247914794921876,-0.1131718531250953,-0.6871898174285889,-0.757707417011261
2024-12-07 18:21:16.939889000,9.257888916015624,-0.0566425323486328,-1.0303062200546265,-0.6686704754829407
2024-12-07 18:21:16.949863000,9.26786279296875,-0.0210215058177709,-1.2234679460525513,-0.4897042214870453
2024-12-07 18:21:16.959837000,9.2778369140625,-0.0333005413413047,-1.1721035242080688,-0.3401802480220794
2024-12-07 18:21:16.969811000,9.28781103515625,-0.0779327601194381,-0.9754542112350464,-0.2554553151130676
2024-12-07 18:21:16.979785000,9.297784912109377,-0.128582090139389,-0.7873889803886414,-0.2254710346460342
2024-12-07 18:21:16.989759000,9.307759033203125,-0.1566148102283477,-0.605766773223877,-0.2386622875928878
2024-12-07 18:21:16.999733000,9.31773291015625,-0.1686022281646728,-0.4034096598625183,-0.2567041516304016
2024-12-07 18:21:17.009707000,9.32770703125,-0.1618453115224838,-0.2354652732610702,-0.2495975047349929
2024-12-07 18:21:17.019681000,9.337680908203126,-0.1217737942934036,-0.1845671981573104,-0.2199549227952957
2024-12-07 18:21:17.029655000,9.347655029296876,-0.0584640800952911,-0.1710261553525924,-0.1971655935049057
2024-12-07 18:21:17.039629000,9.357629150390624,-0.0039624879136681,-0.1120435371994972,-0.2025414407253265
2024-12-07 18:21:17.049603000,9.36760302734375,0.0670205131173133,-0.0325377732515335,-0.2367164641618728
2024-12-07 18:21:17.059577000,9.3775771484375,0.123654767870903,-0.0250138081610202,-0.2565189301967621
2024-12-07 18:21:17.069551000,9.387551025390623,0.1614666283130645,-0.1236612051725387,-0.2541372179985046
2024-12-07 18:21:17.079524000,9.397524169921876,0.1561083495616912,-0.2238120287656784,-0.2406251281499862
2024-12-07 18:21:17.089498000,9.407498046875,0.1062449887394905,-0.2995960712432861,-0.2328049391508102
2024-12-07 18:21:17.099472100,9.41747216796875,0.0575059503316879,-0.3739182353019714,-0.2396481931209564
2024-12-07 18:21:17.109446100,9.427446044921876,0.0247273836284875,-0.4244499206542969,-0.2655363380908966
2024-12-07 18:21:17.119420200,9.437420166015626,-0.0026626957114785,-0.4536730349063873,-0.2944177985191345
2024-12-07 18:21:17.129394200,9.447394287109375,-0.0240579266101121,-0.4697332978248596,-0.3367105722427368
2024-12-07 18:21:17.139368000,9.457367919921875,-0.0488671362400054,-0.5307135581970215,-0.3707771897315979
2024-12-07 18:21:17.149342000,9.467342041015623,-0.0876574292778968,-0.5935074687004089,-0.3839916884899139
2024-12-07 18:21:17.159316000,9.47731591796875,-0.1188230738043785,-0.6398211717605591,-0.3689972758293152
2024-12-07 18:21:17.169290000,9.4872900390625,-0.150060549378395,-0.6546223163604736,-0.3290643692016601
2024-12-07 18:21:17.179264000,9.497263916015624,-0.1650022119283676,-0.6381086111068726,-0.2758029997348785
2024-12-07 18:21:17.189238000,9.507238037109374,-0.1655022501945495,-0.5616526007652283,-0.2331670224666595
2024-12-07 18:21:17.199212000,9.5172119140625,-0.1548623889684677,-0.4266340732574463,-0.2136569917201995
2024-12-07 18:21:17.209186000,9.52718603515625,-0.121404267847538,-0.267156183719635,-0.203246608376503
2024-12-07 18:21:17.219160000,9.53716015625,-0.094454675912857,-0.1358295679092407,-0.191984623670578
2024-12-07 18:21:17.229134000,9.547134033203124,-0.0727699175477027,-0.0277924519032239,-0.2021280974149704
2024-12-07 18:21:17.239108000,9.557108154296875,-0.0632658973336219,0.051191046833992,-0.2316977083683014
2024-12-07 18:21:17.249082000,9.56708203125,-0.0711137801408767,0.1189384534955024,-0.2521359324455261
2024-12-07 18:21:17.259054800,9.577054931640625,-0.0782595723867416,0.1812566816806793,-0.2468439787626266
2024-12-07 18:21:17.269028900,9.58702880859375,-0.086022064089775,0.2461171597242355,-0.2136135697364807
2024-12-07 18:21:17.279003000,9.5970029296875,-0.104360856115818,0.3044933974742889,-0.1593311727046966
2024-12-07 18:21:17.288977000,9.606976806640626,-0.1293131709098816,0.345085859298706,-0.1112344861030578
2024-12-07 18:21:17.298951000,9.616950927734376,-0.1653332114219665,0.3790571093559265,-0.0846782401204109
2024-12-07 18:21:17.308925000,9.626925048828124,-0.2008835226297378,0.4163788259029388,-0.0975525751709938
2024-12-07 18:21:17.318899000,9.63689892578125,-0.2559038996696472,0.4406703114509582,-0.1245282664895057
2024-12-07 18:21:17.328873000,9.646873046875,-0.322320282459259,0.4534058272838592,-0.1365857422351837
2024-12-07 18:21:17.338847000,9.656846923828123,-0.3786421418190002,0.4706801474094391,-0.1180757135152816
2024-12-07 18:21:17.348821000,9.666821044921877,-0.4149481654167175,0.5054602026939392,-0.0801048129796981
2024-12-07 18:21:17.358795000,9.676794921875,-0.4197128117084503,0.5342881083488464,-0.0155913289636373
2024-12-07 18:21:17.368769000,9.68676904296875,-0.4051636159420013,0.5418948531150818,0.0355685502290725
2024-12-07 18:21:17.378743000,9.696742919921874,-0.3785610198974609,0.5108546614646912,0.0727761015295982
2024-12-07 18:21:17.388717000,9.706717041015626,-0.3396858274936676,0.4522067606449127,0.0767376795411109
2024-12-07 18:21:17.398690800,9.71669091796875,-0.30430868268013,0.3809640109539032,0.0454876162111759
2024-12-07 18:21:17.408664800,9.726664794921875,-0.2705165445804596,0.2890917360782623,-0.000888125738129
2024-12-07 18:21:17.418638800,9.736638916015623,-0.2472250908613205,0.1943873167037964,-0.0378429479897022
2024-12-07 18:21:17.428612000,9.746612060546877,-0.23663130402565,0.1364824771881103,-0.0704906359314918
2024-12-07 18:21:17.438586000,9.756586181640625,-0.2264029085636139,0.1193226650357246,-0.1182429790496826
2024-12-07 18:21:17.448559900,9.766559814453124,-0.1987636685371399,0.1047089844942092,-0.1819234639406204
2024-12-07 18:21:17.458534000,9.776533935546874,-0.1564878523349762,0.0831352472305297,-0.2433993369340896
2024-12-07 18:21:17.468508000,9.7865078125,-0.1451353281736374,0.0872445032000541,-0.2845757901668548
2024-12-07 18:21:17.478482000,9.79648193359375,-0.1504166424274444,0.1137653291225433,-0.3044991493225097
2024-12-07 18:21:17.488456000,9.8064560546875,-0.1426164209842682,0.1528158634901046,-0.2858020365238189
2024-12-07 18:21:17.498430000,9.816429931640624,-0.1258281171321869,0.2160036116838455,-0.2641241550445556
2024-12-07 18:21:17.508404000,9.826404052734375,-0.103770688176155,0.2813431024551391,-0.2088205367326736
2024-12-07 18:21:17.518378000,9.8363779296875,-0.0699003338813781,0.3397925794124603,-0.136053130030632
2024-12-07 18:21:17.528352000,9.84635205078125,-0.0519478395581245,0.3953350484371185,-0.0604097321629524
2024-12-07 18:21:17.538326000,9.856325927734376,-0.0038998858071863,0.4088314175605774,0.0387754403054714
2024-12-07 18:21:17.548300000,9.866300048828125,0.0234870091080665,0.4178095161914825,0.1228250116109848
2024-12-07 18:21:17.558274000,9.876274169921874,0.0936860665678978,0.3871911466121673,0.2168154120445251
2024-12-07 18:21:17.568248000,9.886248046875,0.1400832235813141,0.3576516807079315,0.2736972272396087
2024-12-07 18:21:17.578222000,9.89622216796875,0.201221153140068,0.3385490775108337,0.3291668891906738
2024-12-07 18:21:17.588196000,9.906196044921876,0.2698045969009399,0.3227507472038269,0.3760687708854675
2024-12-07 18:21:17.598170000,9.916170166015624,0.3312272131443023,0.3226306140422821,0.4352175891399383
2024-12-07 18:21:17.608143000,9.92614306640625,0.3872682750225067,0.4039715230464935,0.5137444138526917
2024-12-07 18:21:17.618117000,9.9361171875,0.452989250421524,0.6166068911552429,0.6168532371520996
2024-12-07 18:21:17.628091100,9.946091064453125,0.5437252521514893,0.9303849339485168,0.7461772561073303
2024-12-07 18:21:17.638065200,9.956065185546874,0.6551218032836914,1.287460207939148,0.8920388221740723
2024-12-07 18:21:17.648039200,9.9660390625,0.7602741718292236,1.597529411315918,1.0059658288955688
2024-12-07 18:21:17.658013200,9.97601318359375,0.8202775716781616,1.6327996253967283,1.0708674192428589
2024-12-07 18:21:17.667987200,9.9859873046875,0.7962855100631714,1.246936559677124,1.1313118934631348
2024-12-07 18:21:17.677961200,9.995961181640626,0.6576290726661682,0.6956083178520203,1.2927230596542358
2024-12-07 18:21:17.687935200,10.005935302734375,0.412263959646225,0.1484632939100265,1.4585357904434204
2024-12-07 18:21:17.697909000,10.015908935546875,0.1591536849737167,-0.2789255678653717,1.4648122787475586
2024-12-07 18:21:17.707883000,10.025883056640623,-0.021396417170763,-0.5887753963470459,1.2492974996566772
2024-12-07 18:21:17.717856800,10.035856689453125,-0.1136611029505729,-0.7645717263221741,0.9762577414512634
2024-12-07 18:21:17.727830800,10.045830810546876,-0.1337380111217498,-0.6892697215080261,0.7778910994529724
2024-12-07 18:21:17.737804500,10.055804443359374,-0.0842948332428932,-0.2787423133850097,0.6613932847976685
2024-12-07 18:21:17.747778600,10.065778564453124,0.0231714248657226,0.2687239050865173,0.6089291572570801
2024-12-07 18:21:17.757752600,10.075752685546876,0.1366122364997863,0.6151523590087891,0.5669787526130676
2024-12-07 18:21:17.767726600,10.0857265625,0.1927453130483627,0.6538932919502258,0.4530622363090515
2024-12-07 18:21:17.777699600,10.095699462890623,0.1873137950897216,0.4811444580554962,0.2847494184970855
2024-12-07 18:21:17.787673600,10.105673583984377,0.170310765504837,0.2839365303516388,0.0890220254659652
2024-12-07 18:21:17.797647600,10.115647705078125,0.1677141934633255,0.1565655320882797,-0.1048702150583267
2024-12-07 18:21:17.807621600,10.12562158203125,0.1831302791833877,0.0434942133724689,-0.2519030272960663
2024-12-07 18:21:17.817595600,10.135595703125,0.1790913343429565,0.0312708355486393,-0.3364115357398987
2024-12-07 18:21:17.827569700,10.145569580078124,0.1576850414276123,0.0694931074976921,-0.3706119358539581
2024-12-07 18:21:17.837543700,10.155543701171876,0.1272674798965454,0.1092418506741523,-0.3783859610557556
2024-12-07 18:21:17.847517700,10.165517578125,0.0962409526109695,0.1194002628326416,-0.4079455733299255
2024-12-07 18:21:17.857491700,10.17549169921875,0.0656950250267982,0.0925406813621521,-0.4776492714881897
2024-12-07 18:21:17.867465700,10.1854658203125,0.0403977930545806,0.0092062335461378,-0.5832747220993042
2024-12-07 18:21:17.877439700,10.195439697265623,0.0186786483973264,-0.1190041974186897,-0.7109813094139099
2024-12-07 18:21:17.887413800,10.205413818359377,-0.0121648488566279,-0.3213919699192047,-0.8287236094474792
2024-12-07 18:21:17.897387800,10.2153876953125,-0.064172126352787,-0.5428513288497925,-0.9094418883323668
2024-12-07 18:21:17.907361800,10.22536181640625,-0.1400796622037887,-0.7528902888298035,-0.9261724352836608
2024-12-07 18:21:17.917335800,10.235335693359374,-0.2402209043502807,-0.8916510939598083,-0.8859198093414307
2024-12-07 18:21:17.927309800,10.245309814453124,-0.3461516499519348,-0.9527058005332948,-0.783082902431488
2024-12-07 18:21:17.937283800,10.255283935546874,-0.4345675408840179,-0.8599468469619751,-0.6220460534095764
2024-12-07 18:21:17.947256600,10.265256591796875,-0.476388156414032,-0.6569651365280151,-0.4390123188495636
2024-12-07 18:21:17.957230600,10.275230712890624,-0.4686378240585327,-0.4637922346591949,-0.2773610949516296
2024-12-07 18:21:17.967204600,10.28520458984375,-0.429492175579071,-0.3973262906074524,-0.1260024458169937
2024-12-07 18:21:17.977178600,10.2951787109375,-0.3678447902202606,-0.4835032522678375,-0.0065335743129253
2024-12-07 18:21:17.987152600,10.305152587890625,-0.2776615917682647,-0.670946478843689,0.0784035623073577
2024-12-07 18:21:17.997126700,10.315126708984376,-0.1351558268070221,-0.8103469610214233,0.1888174265623092
2024-12-07 18:21:18.007100700,10.3251005859375,0.0620072707533836,-0.6955406069755554,0.3624789416790008
2024-12-07 18:21:18.017074700,10.33507470703125,0.2557205557823181,-0.2695453464984894,0.4946593344211578
2024-12-07 18:21:18.027048700,10.345048583984376,0.3923404812812805,0.2520058155059814,0.4559061825275421
2024-12-07 18:21:18.037022500,10.3550224609375,0.4750433564186096,0.6939057111740112,0.2463761270046234
2024-12-07 18:21:18.046996500,10.36499658203125,0.5061902403831482,0.9587191343307496,-0.0286567211151123
2024-12-07 18:21:18.056970500,10.374970458984375,0.4772902131080627,0.8429871797561646,-0.2012079805135727
2024-12-07 18:21:18.066944500,10.384944580078123,0.3927269279956817,0.4147085845470428,-0.2754862606525421
2024-12-07 18:21:18.076918500,10.39491845703125,0.2117630094289779,-0.0406738556921482,-0.3048532009124756
2024-12-07 18:21:18.086892500,10.404892578125,-0.0344540514051914,-0.4542241990566253,-0.3271858394145965
2024-12-07 18:21:18.096866600,10.414866455078124,-0.2626574039459228,-0.9248974919319152,-0.3798631429672241
2024-12-07 18:21:18.106840600,10.424840576171874,-0.4144112467765808,-1.261376976966858,-0.4522438049316406
2024-12-07 18:21:18.116813600,10.4348134765625,-0.4800432622432709,-1.2871789932250977,-0.4449414312839508
2024-12-07 18:21:18.126787600,10.44478759765625,-0.4373585283756256,-1.116516351699829,-0.3626359403133392
2024-12-07 18:21:18.136761600,10.45476171875,-0.3131622970104217,-0.8367199301719666,-0.2476286739110946
2024-12-07 18:21:18.146735600,10.464735595703123,-0.1426748931407928,-0.4673948287963867,-0.1333905458450317
2024-12-07 18:21:18.156709600,10.474709716796877,-0.0076166726648807,-0.0903951153159141,-0.0674291104078292
2024-12-07 18:21:18.166683600,10.48468359375,0.0550123117864131,0.0284302122890949,-0.0948508903384208
2024-12-07 18:21:18.176657700,10.49465771484375,0.1124883815646171,-0.3255305290222168,-0.2169573605060577
2024-12-07 18:21:18.186631700,10.504631591796874,0.1461049765348434,-0.9171127080917358,-0.3866880536079407
2024-12-07 18:21:18.196605700,10.514605712890624,0.1069293469190597,-1.3875236511230469,-0.51421058177948
2024-12-07 18:21:18.206579700,10.524579833984374,0.0442407019436359,-1.575507879257202,-0.550766110420227
2024-12-07 18:21:18.216553700,10.5345537109375,-0.0105823315680027,-1.4925072193145752,-0.4969689548015594
2024-12-07 18:21:18.226527700,10.54452783203125,-0.0664900168776512,-1.2166565656661987,-0.3740239143371582
2024-12-07 18:21:18.236501800,10.554501708984375,-0.1114923804998397,-0.8421632051467896,-0.2206442058086395
2024-12-07 18:21:18.246475800,10.564475830078123,-0.1441716104745865,-0.4184678494930267,-0.0784890949726104
2024-12-07 18:21:18.256449800,10.57444970703125,-0.1438949108123779,-0.0450247712433338,0.0041927401907742
2024-12-07 18:21:18.266423800,10.584423828125,-0.1068473234772682,0.2215605676174163,0.0027727647684514
2024-12-07 18:21:18.276397800,10.594397705078125,-0.0515473112463951,0.3961073458194732,-0.0797559320926666
2024-12-07 18:21:18.286370800,10.604370849609374,-0.007805660367012,0.4836974740028381,-0.2011770904064178
2024-12-07 18:21:18.296344800,10.6143447265625,0.0148844718933105,0.4883108735084533,-0.2991223037242889
2024-12-07 18:21:18.306318800,10.62431884765625,0.0107685271650552,0.4204233288764953,-0.3462116122245788
2024-12-07 18:21:18.316292900,10.63429296875,-0.0114592807367444,0.3001448512077331,-0.3345741033554077
2024-12-07 18:21:18.326267000,10.644266845703124,-0.0334694534540176,0.1484260559082031,-0.2864724397659302
2024-12-07 18:21:18.336241000,10.654240966796875,-0.0432102307677269,-0.0020646394696086,-0.2445989996194839
2024-12-07 18:21:18.346214700,10.664214599609377,-0.0499260127544403,-0.1366959363222122,-0.2471226304769516
2024-12-07 18:21:18.356188700,10.674188720703125,-0.0383713617920875,-0.2483172863721847,-0.2908269762992859
2024-12-07 18:21:18.366162700,10.68416259765625,-0.0403517037630081,-0.2921162247657776,-0.3551080822944641
2024-12-07 18:21:18.376136700,10.69413671875,-0.0710486322641372,-0.2558389008045196,-0.4157325625419616
2024-12-07 18:21:18.386110700,10.70411083984375,-0.1335373818874359,-0.1497720777988433,-0.4373580515384674
2024-12-07 18:21:18.396084700,10.714084716796876,-0.2048041075468063,-0.0154470335692167,-0.4189132750034332
2024-12-07 18:21:18.406058500,10.72405859375,-0.2526665329933166,0.0986842811107635,-0.3817788362503052
2024-12-07 18:21:18.416032500,10.734032470703124,-0.2567169368267059,0.1504590660333633,-0.3418452441692352
2024-12-07 18:21:18.426006500,10.744006591796875,-0.2266211807727813,0.132232129573822,-0.3193753957748413
2024-12-07 18:21:18.435980500,10.75398046875,-0.214713379740715,0.0458266697824001,-0.2855825424194336
2024-12-07 18:21:18.445953500,10.76395361328125,-0.1972793191671371,-0.0543711669743061,-0.2543069124221802
2024-12-07 18:21:18.455927600,10.773927490234374,-0.1634827405214309,-0.1181999444961547,-0.2298716157674789
2024-12-07 18:21:18.465901600,10.783901611328124,-0.1211966350674629,-0.0944374054670333,-0.2235201448202133
2024-12-07 18:21:18.475875600,10.79387548828125,-0.0892906337976455,0.0385435447096824,-0.2307804524898529
2024-12-07 18:21:18.485849600,10.803849609375,-0.0812999531626701,0.2323299050331115,-0.2437992841005325
2024-12-07 18:21:18.495823600,10.81382373046875,-0.0841655135154724,0.4187053740024566,-0.2461676299571991
2024-12-07 18:21:18.505797600,10.823797607421875,-0.0953016728162765,0.5621965527534485,-0.2377809882164001
2024-12-07 18:21:18.515771600,10.833771728515623,-0.1310759037733078,0.6777157187461853,-0.223428413271904
2024-12-07 18:21:18.525745700,10.84374560546875,-0.1764570027589798,0.7393361330032349,-0.1920820623636245
2024-12-07 18:21:18.535719700,10.8537197265625,-0.2081318348646164,0.7432494163513184,-0.1319380402565002
2024-12-07 18:21:18.545693700,10.863693603515625,-0.2191518247127533,0.7056304216384888,-0.0623624399304389
2024-12-07 18:21:18.555667700,10.873667724609374,-0.2391212731599807,0.6637356877326965,0.0001222412101924
2024-12-07 18:21:18.565641700,10.883641845703124,-0.2825374901294708,0.6541798114776611,0.0401477366685867
2024-12-07 18:21:18.575615700,10.89361572265625,-0.324803739786148,0.6735926866531372,0.0537330508232116
2024-12-07 18:21:18.585589800,10.90358984375,-0.3565846979618072,0.6774698495864868,0.0601190142333507
2024-12-07 18:21:18.595563800,10.913563720703126,-0.3627869188785553,0.6521916389465332,0.0564590319991111
2024-12-07 18:21:18.605536800,10.923536865234375,-0.347792387008667,0.591098427772522,0.0676843598484993
2024-12-07 18:21:18.615510800,10.9335107421875,-0.333258718252182,0.533410370349884,0.1095833405852317
2024-12-07 18:21:18.625484800,10.94348486328125,-0.2955983877182007,0.451649010181427,0.1730534732341766
2024-12-07 18:21:18.635458800,10.953458740234376,-0.2198141366243362,0.3516736924648285,0.2254732698202133
2024-12-07 18:21:18.645432800,10.963432861328124,-0.1688376516103744,0.3249655067920685,0.246269404888153
2024-12-07 18:21:18.655406600,10.973406494140624,-0.14643594622612,0.3623160719871521,0.228533536195755
2024-12-07 18:21:18.665380600,10.983380615234376,-0.1295961439609527,0.4351457953453064,0.188753068447113
2024-12-07 18:21:18.675354600,10.993354736328126,-0.082045130431652,0.4889072775840759,0.150367870926857
2024-12-07 18:21:18.685328600,11.00332861328125,-0.0464697293937206,0.5216777920722961,0.1162484586238861
2024-12-07 18:21:18.695302700,11.013302734375,-0.0003533666022121,0.5121774673461914,0.1059798449277877
2024-12-07 18:21:18.705276700,11.023276611328123,0.0308908410370349,0.4887435436248779,0.1158910617232322
2024-12-07 18:21:18.715250700,11.033250732421877,0.0929970815777778,0.4297678172588348,0.1701849400997162
2024-12-07 18:21:18.725224700,11.043224609375,0.1625740528106689,0.3718129992485046,0.2396605461835861
2024-12-07 18:21:18.735198500,11.053198486328125,0.227737084031105,0.3409770429134369,0.3063029646873474
2024-12-07 18:21:18.745172500,11.06317236328125,0.2861310541629791,0.3410013020038605,0.3709802031517029
2024-12-07 18:21:18.755146500,11.073146484375,0.3546853363513946,0.3674688637256622,0.4266027212142944
2024-12-07 18:21:18.765119500,11.083119384765626,0.4401602745056152,0.4321196377277374,0.4885304570198059
2024-12-07 18:21:18.775093500,11.093093505859375,0.5473860502243042,0.5472095012664795,0.577213704586029
2024-12-07 18:21:18.785067500,11.103067626953123,0.6530141830444336,0.7181337475776672,0.7113534212112427
2024-12-07 18:21:18.795041500,11.11304150390625,0.7571430206298828,0.9671760201454164,0.9118468165397644
2024-12-07 18:21:18.805015600,11.123015625,0.8215614557266235,1.2411301136016846,1.1278259754180908
2024-12-07 18:21:18.814989600,11.132989501953125,0.8446335196495056,1.377680778503418,1.2852989435195925
2024-12-07 18:21:18.824963600,11.142963623046874,0.8664095401763916,1.1418015956878662,1.3590697050094604
2024-12-07 18:21:18.834937600,11.1529375,0.8854662775993347,0.5764151215553284,1.3435275554656982
2024-12-07 18:21:18.844911600,11.16291162109375,0.8094595670700073,0.0053619598038494,1.2623833417892456
2024-12-07 18:21:18.854885600,11.1728857421875,0.665725588798523,-0.346782773733139,1.1674280166625977
2024-12-07 18:21:18.864859600,11.182859619140626,0.4950376451015472,-0.4761183559894562,1.078737735748291
2024-12-07 18:21:18.874833700,11.192833740234375,0.3157704174518585,-0.4188377559185028,0.9348711371421814
2024-12-07 18:21:18.884807700,11.2028076171875,0.1820510625839233,-0.242795929312706,0.7393330931663513
2024-12-07 18:21:18.894781700,11.21278173828125,0.0791611596941948,-0.0117134302854537,0.5147729516029358
2024-12-07 18:21:18.904755700,11.222755615234377,0.0512080192565918,0.1522979587316513,0.2962178289890289
2024-12-07 18:21:18.914729500,11.2327294921875,0.1066582277417182,0.1623250246047973,0.2143482565879821
2024-12-07 18:21:18.924702500,11.242702392578124,0.1707297712564468,0.3090488612651825,0.2843892872333526
2024-12-07 18:21:18.934676500,11.252676513671876,0.2397093772888183,0.584842324256897,0.4654552042484283
2024-12-07 18:21:18.944650500,11.262650390625,0.3045977652072906,0.5603956580162048,0.5973976850509644
2024-12-07 18:21:18.954624500,11.27262451171875,0.336697906255722,-0.0189110860228538,0.5395429134368896
2024-12-07 18:21:18.964598500,11.2825986328125,0.2868335843086242,-0.7702207565307617,0.330740362405777
2024-12-07 18:21:18.974572500,11.292572509765623,0.1990547478199005,-1.2348883152008057,0.0623225010931491
2024-12-07 18:21:18.984546300,11.30254638671875,0.140756145119667,-1.236311674118042,-0.1825931519269943
2024-12-07 18:21:18.994520300,11.312520263671876,0.1185818538069725,-0.8815229535102844,-0.3516218364238739
2024-12-07 18:21:19.004494300,11.322494384765625,0.1230056434869766,-0.4081780612468719,-0.4221996366977691
2024-12-07 18:21:19.014468400,11.33246826171875,0.1412703990936279,-0.0274925008416175,-0.4198291599750519
2024-12-07 18:21:19.024442400,11.3424423828125,0.1186322793364524,0.149120345711708,-0.4088558256626129
2024-12-07 18:21:19.034416400,11.35241650390625,0.0264967624098062,0.1385087221860885,-0.4443150162696838
