time,seconds_elapsed,z,y,x
2024-12-07 18:26:41.528789800,0.023789794921875,-0.0690727233886718,-0.0505074374377727,-0.1127651631832122
2024-12-07 18:26:41.538763800,0.033763671875,-0.1037231907248497,-0.0162809789180755,-0.1085441261529922
2024-12-07 18:26:41.548737800,0.04373779296875,-0.1503412872552871,0.0067058308050036,-0.1049451306462287
2024-12-07 18:26:41.558711800,0.0537119140625,-0.2060944885015487,-0.0012775468640029,-0.0895640403032302
2024-12-07 18:26:41.568685800,0.063685791015625,-0.2021761834621429,-0.0645089820027351,-0.0708974152803421
2024-12-07 18:26:41.578659800,0.073659912109375,-0.1740021258592605,-0.004952659830451,-0.1280092447996139
2024-12-07 18:26:41.588632800,0.0836328125,-0.2061936259269714,0.0293627027422189,-0.1263298541307449
2024-12-07 18:26:41.598606800,0.09360693359375,-0.17761892080307,0.0111646521836519,-0.0849115625023841
2024-12-07 18:26:41.608580900,0.103580810546875,-0.1038781329989433,-0.0470523126423358,-0.0749947503209114
2024-12-07 18:26:41.618555000,0.113554931640625,-0.0703661888837814,-0.0388027504086494,-0.1076025441288948
2024-12-07 18:26:41.628529000,0.12352880859375,-0.0941351726651191,-0.0056509207934141,-0.1395383775234222
2024-12-07 18:26:41.638503000,0.1335029296875,-0.1958685517311096,0.041004404425621,-0.1253928989171981
2024-12-07 18:26:41.648477000,0.143476806640625,-0.2815011739730835,0.0800274387001991,-0.0750825926661491
2024-12-07 18:26:41.658451000,0.153450927734375,-0.30557981133461,0.1365258544683456,-0.0600309148430824
2024-12-07 18:26:41.668425000,0.163425048828125,-0.3621338903903961,0.2001623511314392,-0.1249100491404533
2024-12-07 18:26:41.678398700,0.173398681640625,-0.4223901629447937,0.1350146383047104,-0.1792483478784561
2024-12-07 18:26:41.688372000,0.1833720703125,-0.4909553527832031,0.1104829236865043,-0.1913340389728546
2024-12-07 18:26:41.698346000,0.193345947265625,-0.5485650300979614,0.0806687176227569,-0.2024216055870056
2024-12-07 18:26:41.708320000,0.203320068359375,-0.5930134654045105,0.0629317983984947,-0.2224387228488922
2024-12-07 18:26:41.718294000,0.2132939453125,-0.6190420985221863,-0.003477377584204,-0.2369810491800308
2024-12-07 18:26:41.728268000,0.22326806640625,-0.6394371390342712,-0.0423531383275985,-0.2566181421279907
2024-12-07 18:26:41.738241800,0.23324169921875,-0.6536837816238403,-0.0183885749429464,-0.2816534042358398
2024-12-07 18:26:41.748215800,0.2432158203125,-0.7751598954200745,0.1363274902105331,-0.3382810056209564
2024-12-07 18:26:41.758189800,0.25318994140625,-0.9317495226860046,0.319866269826889,-0.4405130445957184
2024-12-07 18:26:41.768163800,0.263163818359375,-1.1102694272994995,0.4483600556850433,-0.5017052888870239
2024-12-07 18:26:41.778136800,0.27313671875,-1.29787278175354,0.5350109934806824,-0.4685316979885101
2024-12-07 18:26:41.788110800,0.28311083984375,-1.4185576438903809,0.4854564666748047,-0.3621125817298889
2024-12-07 18:26:41.798084600,0.293084716796875,-1.4704596996307373,0.2901290655136108,-0.2273787260055542
2024-12-07 18:26:41.808058600,0.30305859375,-1.3425356149673462,-0.0863372534513473,-0.1330671310424804
2024-12-07 18:26:41.818032600,0.31303271484375,-1.367329239845276,-0.1634015142917633,-0.0316069051623344
2024-12-07 18:26:41.828006700,0.323006591796875,-1.4505128860473633,-0.0986523404717445,-0.0662892535328865
2024-12-07 18:26:41.837980700,0.332980712890625,-1.5016677379608154,0.1440245956182479,-0.1404627710580825
2024-12-07 18:26:41.847954700,0.34295458984375,-1.5114030838012695,0.3621028363704681,-0.222340315580368
2024-12-07 18:26:41.857928700,0.3529287109375,-1.4658986330032349,0.4568778872489929,-0.2992743253707886
2024-12-07 18:26:41.867902700,0.36290283203125,-1.3849257230758667,0.3861488401889801,-0.3477174937725067
2024-12-07 18:26:41.877875700,0.372875732421875,-1.2650221586227417,0.2355608940124511,-0.357208102941513
2024-12-07 18:26:41.887849700,0.382849609375,-1.0440607070922852,0.0704561024904251,-0.3596973717212677
2024-12-07 18:26:41.897823700,0.39282373046875,-0.806011974811554,-0.1035458520054817,-0.3750117421150207
2024-12-07 18:26:41.907797800,0.4027978515625,-0.6758454442024231,-0.1754578649997711,-0.3634291291236877
2024-12-07 18:26:41.917771800,0.412771728515625,-0.6597583293914795,-0.1429582089185714,-0.3366577625274658
2024-12-07 18:26:41.927745800,0.422745849609375,-0.7240771651268005,-0.0610436350107193,-0.3120299279689789
2024-12-07 18:26:41.937719800,0.4327197265625,-0.816963255405426,0.0666357725858688,-0.2905505001544952
2024-12-07 18:26:41.947693800,0.44269384765625,-0.9442288279533386,0.2202863097190857,-0.2713560163974762
2024-12-07 18:26:41.957667800,0.452667724609375,-1.1095802783966064,0.3817351758480072,-0.2312038987874984
2024-12-07 18:26:41.967640800,0.462640869140625,-1.2436035871505735,0.4810939729213714,-0.1861815601587295
2024-12-07 18:26:41.977614800,0.47261474609375,-1.2940361499786377,0.4885179400444031,-0.162776842713356
2024-12-07 18:26:41.987588900,0.4825888671875,-1.2601115703582764,0.415785402059555,-0.1693737655878067
2024-12-07 18:26:41.997563000,0.49256298828125,-1.1859790086746216,0.3071237504482269,-0.1878457218408584
2024-12-07 18:26:42.007537000,0.502536865234375,-1.120954155921936,0.1940107941627502,-0.1798168271780014
2024-12-07 18:26:42.017511000,0.512510986328125,-1.0987277030944824,0.0701058283448219,-0.1733550727367401
2024-12-07 18:26:42.027485000,0.52248486328125,-1.0999948978424072,-0.0935438200831413,-0.175600379705429
2024-12-07 18:26:42.037459000,0.532458984375,-1.0771002769470217,-0.2074927687644958,-0.1770920157432556
2024-12-07 18:26:42.047433500,0.54243359375,-1.0009617805480957,-0.3505902588367462,-0.2178016304969787
2024-12-07 18:26:42.057407500,0.552407470703125,-0.8768519759178162,-0.4462035596370697,-0.2773452401161194
2024-12-07 18:26:42.067380500,0.56238037109375,-0.7561612129211426,-0.4901254773139953,-0.3227830231189728
2024-12-07 18:26:42.077354500,0.5723544921875,-0.673173189163208,-0.4572449028491974,-0.3484444618225097
2024-12-07 18:26:42.087328500,0.58232861328125,-0.5855035185813904,-0.3516708016395569,-0.3536610603332519
2024-12-07 18:26:42.097302500,0.592302490234375,-0.4951622188091278,-0.1794845014810562,-0.3096184730529785
2024-12-07 18:26:42.107276500,0.602276611328125,-0.425213485956192,0.0749991834163665,-0.207784816622734
2024-12-07 18:26:42.117250600,0.61225048828125,-0.3754683434963226,0.3370246291160583,-0.0613616928458213
2024-12-07 18:26:42.127224300,0.622224365234375,-0.3398458957672119,0.4818912446498871,0.085961177945137
2024-12-07 18:26:42.137198300,0.6321982421875,-0.2847751080989837,0.6895429491996765,0.2076101303100586
2024-12-07 18:26:42.147172400,0.64217236328125,-0.5578271150588989,0.6954610347747803,0.0229787733405828
2024-12-07 18:26:42.157145300,0.652145263671875,-0.9993259310722352,0.773242712020874,-0.2099810987710952
2024-12-07 18:26:42.167119400,0.662119384765625,-1.0836470127105713,0.762116551399231,-0.1885245442390442
2024-12-07 18:26:42.177093400,0.67209326171875,-0.8493068814277649,0.6398411393165588,-0.058272585272789
2024-12-07 18:26:42.187067400,0.6820673828125,-0.5012511014938354,0.4292058944702148,-0.0304569322615861
2024-12-07 18:26:42.197041200,0.692041259765625,-0.2487789094448089,0.1182680428028106,-0.1150702089071273
2024-12-07 18:26:42.207015200,0.70201513671875,-0.0588547885417938,-0.3674305081367492,-0.1714487969875335
2024-12-07 18:26:42.216989200,0.7119892578125,0.1357572376728058,-0.8817244172096252,-0.0923095867037773
2024-12-07 18:26:42.226963200,0.721963134765625,-0.0946767777204513,-1.4058648347854614,-0.176045224070549
2024-12-07 18:26:42.236937200,0.731937255859375,-0.4356184005737304,-1.864650845527649,-0.294589102268219
2024-12-07 18:26:42.246911200,0.7419111328125,-0.5800754427909851,-1.8825523853302,-0.1404147446155548
2024-12-07 18:26:42.256884200,0.75188427734375,-0.5816506147384644,-1.5794633626937866,0.226210668683052
2024-12-07 18:26:42.266858200,0.761858154296875,-0.5848293304443359,-1.1069927215576172,0.6422097682952881
2024-12-07 18:26:42.276832300,0.771832275390625,-0.5962976813316345,-0.6059064269065857,0.9913329482078552
2024-12-07 18:26:42.286806300,0.78180615234375,-0.5741788148880005,-0.1760141253471374,1.2046778202056885
2024-12-07 18:26:42.296780300,0.7917802734375,-0.5474418997764587,0.0560404360294342,1.2245794534683228
2024-12-07 18:26:42.306754300,0.80175439453125,-0.4779352843761444,0.0870116725564003,1.1213912963867188
2024-12-07 18:26:42.316728300,0.811728271484375,-0.3392271697521209,0.0457607060670852,0.991920292377472
2024-12-07 18:26:42.326702300,0.821702392578125,-0.1585389077663421,0.0287963673472404,0.8851515054702759
2024-12-07 18:26:42.336676400,0.83167626953125,0.0155697241425514,0.0842911154031753,0.8060944080352783
2024-12-07 18:26:42.346649300,0.8416494140625,0.1609397083520889,0.2401286512613296,0.7457211017608643
2024-12-07 18:26:42.356623400,0.851623291015625,0.2600801289081573,0.3826926946640014,0.7017019987106323
2024-12-07 18:26:42.366597400,0.861597412109375,0.3562362194061279,0.4997082650661468,0.7116153836250305
2024-12-07 18:26:42.376571400,0.8715712890625,0.4295903146266937,0.6360149383544922,0.7654805183410645
2024-12-07 18:26:42.386545400,0.88154541015625,0.5317140221595764,0.7304468750953674,0.8304624557495117
2024-12-07 18:26:42.396519400,0.89151953125,0.704389750957489,0.866515040397644,0.6331695318222046
2024-12-07 18:26:42.406493400,0.901493408203125,0.7162466645240784,1.0078531503677368,0.2936844229698181
2024-12-07 18:26:42.416467500,0.911467529296875,0.5440184473991394,1.0678170919418335,0.0237140730023384
2024-12-07 18:26:42.426441500,0.92144140625,0.330403596162796,0.959182858467102,-0.1272120624780655
2024-12-07 18:26:42.436414200,0.931414306640625,0.208212062716484,0.7338595986366272,-0.1471732854843139
2024-12-07 18:26:42.446388200,0.94138818359375,0.2026987969875335,0.5055257678031921,-0.088448978960514
2024-12-07 18:26:42.456362200,0.9513623046875,0.2423936873674392,0.3189937770366668,-0.0298929531127214
2024-12-07 18:26:42.466336300,0.961336181640625,0.2628933787345886,0.1923460960388183,-0.0118351224809885
2024-12-07 18:26:42.476310300,0.971310302734375,0.2681877613067627,0.1121272593736648,-0.0377750322222709
2024-12-07 18:26:42.486284300,0.9812841796875,0.2835184931755066,0.0628236234188079,-0.0883750915527343
2024-12-07 18:26:42.496258300,0.99125830078125,0.2887160778045654,-0.0117407022044062,-0.144954040646553
2024-12-07 18:26:42.506232300,1.001232421875,0.2956352531909942,-0.0932467505335807,-0.1925801485776901
2024-12-07 18:26:42.516206300,1.011206298828125,0.2809675931930542,-0.1665022075176239,-0.2320345640182495
2024-12-07 18:26:42.526180400,1.021180419921875,0.2374517917633056,-0.2282492071390152,-0.2618350684642792
2024-12-07 18:26:42.536153300,1.0311533203125,0.2037599235773086,-0.3034502863883972,-0.2792658507823944
2024-12-07 18:26:42.546127400,1.04112744140625,0.187158316373825,-0.4205830097198486,-0.287549078464508
2024-12-07 18:26:42.556101400,1.051101318359375,0.1794232875108719,-0.5344546437263489,-0.293418824672699
2024-12-07 18:26:42.566075400,1.061075439453125,0.1711405813694,-0.6192792654037476,-0.3032927811145782
2024-12-07 18:26:42.576049400,1.07104931640625,0.1595101803541183,-0.6412062048912048,-0.3245177567005157
2024-12-07 18:26:42.586023400,1.0810234375,0.148573100566864,-0.6034303307533264,-0.3455721735954284
2024-12-07 18:26:42.595997400,1.09099755859375,0.1458188146352768,-0.5429287552833557,-0.358380377292633
2024-12-07 18:26:42.605971500,1.100971435546875,0.1412754654884338,-0.444044291973114,-0.3673312664031982
2024-12-07 18:26:42.615945200,1.1109453125,0.1352630406618118,-0.3203452229499817,-0.3574589490890503
2024-12-07 18:26:42.625918500,1.12091845703125,0.1415997594594955,-0.1965367496013641,-0.3231574296951294
2024-12-07 18:26:42.635892500,1.130892578125,0.1479096263647079,-0.1166258305311203,-0.2841241955757141
2024-12-07 18:26:42.645866500,1.140866455078125,0.1409321427345276,-0.0668406933546066,-0.2540187537670135
2024-12-07 18:26:42.655840500,1.150840576171875,0.1203392148017883,-0.0343251973390579,-0.2185719013214111
2024-12-07 18:26:42.665814300,1.160814208984375,0.0941395685076713,-0.0313022434711456,-0.17791049182415
2024-12-07 18:26:42.675788300,1.170788330078125,0.0578429773449897,-0.0647691860795021,-0.1420139074325561
2024-12-07 18:26:42.685762300,1.18076220703125,0.0306017678231,-0.0688526108860969,-0.1307271718978881
2024-12-07 18:26:42.695736300,1.190736328125,0.0209123510867357,-0.0247358325868845,-0.1321512162685394
2024-12-07 18:26:42.705710300,1.20071044921875,0.0489391908049583,-0.0110083036124706,-0.1426605880260467
2024-12-07 18:26:42.715683600,1.21068359375,0.0752898827195167,-0.0340618304908275,-0.1606840640306472
2024-12-07 18:26:42.725657300,1.2206572265625,0.0665278136730194,-0.0677188634872436,-0.1981808394193649
2024-12-07 18:26:42.735631000,1.230631103515625,0.0265825167298316,-0.086057148873806,-0.2292025983333587
2024-12-07 18:26:42.745605000,1.240605224609375,-0.0237951688468456,-0.1142368540167808,-0.2521097660064697
2024-12-07 18:26:42.755579100,1.2505791015625,-0.0797832757234573,-0.2016392648220062,-0.2646285593509674
2024-12-07 18:26:42.765553200,1.26055322265625,-0.1166454181075096,-0.3175978064537048,-0.2742396295070648
2024-12-07 18:26:42.775527200,1.270527099609375,-0.1395609825849533,-0.3935331106185913,-0.2727436125278473
2024-12-07 18:26:42.785501200,1.280501220703125,-0.1581429094076156,-0.3692637085914612,-0.2608557939529419
2024-12-07 18:26:42.795475200,1.29047509765625,-0.1627388447523117,-0.2368077635765075,-0.2544528841972351
2024-12-07 18:26:42.805448200,1.3004482421875,-0.1491806805133819,-0.0480713956058025,-0.2732603847980499
2024-12-07 18:26:42.815422200,1.310422119140625,-0.1261445432901382,0.1172908544540405,-0.3168071806430816
2024-12-07 18:26:42.825396200,1.320396240234375,-0.0916438251733779,0.2301063388586044,-0.3617895841598511
2024-12-07 18:26:42.835370200,1.330370361328125,-0.0489820837974548,0.3067487478256225,-0.3682756125926971
2024-12-07 18:26:42.845344300,1.34034423828125,-0.0016065811505541,0.3829961121082306,-0.3309439420700073
2024-12-07 18:26:42.855318300,1.350318359375,0.0285312086343765,0.441727727651596,-0.2658120691776275
2024-12-07 18:26:42.865292300,1.360292236328125,0.0173757597804069,0.4567365050315857,-0.2178402692079544
2024-12-07 18:26:42.875266300,1.370266357421875,-0.0295112431049346,0.353162944316864,-0.2181989252567291
2024-12-07 18:26:42.885240300,1.380240234375,-0.0865939706563949,0.1548027098178863,-0.2746858894824981
2024-12-07 18:26:42.895213300,1.39021337890625,-0.1243194788694381,-0.0574460700154304,-0.326568990945816
2024-12-07 18:26:42.905187300,1.400187255859375,-0.138696551322937,-0.1866876780986786,-0.345660924911499
2024-12-07 18:26:42.915161300,1.410161376953125,-0.1372300684452057,-0.2118296027183532,-0.3360350430011749
2024-12-07 18:26:42.925135400,1.42013525390625,-0.1135550960898399,-0.187917873263359,-0.3223016560077667
2024-12-07 18:26:42.935109400,1.430109375,-0.0757762938737869,-0.1517228633165359,-0.3159044682979584
2024-12-07 18:26:42.945083400,1.44008349609375,-0.0376105345785617,-0.1270265728235244,-0.3059692680835724
2024-12-07 18:26:42.955057400,1.450057373046875,-0.0249708201736211,-0.1396771222352981,-0.2775157690048218
2024-12-07 18:26:42.965031400,1.460031494140625,-0.0315179340541362,-0.1750833243131637,-0.2370421290397644
2024-12-07 18:26:42.975005400,1.47000537109375,-0.0548232272267341,-0.2084928452968597,-0.1820389777421951
2024-12-07 18:26:42.984978400,1.479978515625,-0.0742382034659385,-0.2401122897863388,-0.1362413913011551
2024-12-07 18:26:42.994952400,1.489952392578125,-0.0909611210227012,-0.2785032093524933,-0.1133307814598083
2024-12-07 18:26:43.004926500,1.499926513671875,-0.0861501172184944,-0.3322489857673645,-0.1319630593061447
2024-12-07 18:26:43.014900500,1.509900390625,-0.0528925694525241,-0.4177162051200866,-0.1804158091545105
2024-12-07 18:26:43.024874500,1.51987451171875,-0.0116702979430556,-0.5077608823776245,-0.2145117223262787
2024-12-07 18:26:43.034848500,1.5298486328125,0.0174748282879591,-0.5742123126983643,-0.2106342911720276
2024-12-07 18:26:43.044822300,1.539822265625,0.0269743241369724,-0.5700473785400391,-0.185272216796875
2024-12-07 18:26:43.054796300,1.54979638671875,0.0272203814238309,-0.51847904920578,-0.1445803195238113
2024-12-07 18:26:43.064770300,1.559770263671875,0.0228360202163457,-0.4519088268280029,-0.0921868830919265
2024-12-07 18:26:43.074743300,1.569743408203125,0.0101602030918002,-0.3862394392490387,-0.0499559976160526
2024-12-07 18:26:43.084717300,1.57971728515625,0.0059457505121827,-0.3238639533519745,-0.0169000439345836
2024-12-07 18:26:43.094691300,1.58969140625,0.010138165205717,-0.2701935768127441,0.0039129704236984
2024-12-07 18:26:43.104665300,1.599665283203125,0.0105395037680864,-0.1963276267051696,-0.000284171430394
2024-12-07 18:26:43.114639400,1.609639404296875,0.0058316700160503,-0.1070445552468299,-0.0239195600152015
2024-12-07 18:26:43.124613400,1.61961328125,-0.0052880928851664,-0.0305780116468668,-0.0671573132276535
2024-12-07 18:26:43.134587400,1.62958740234375,-0.0231326334178447,0.0011119100963696,-0.1072435528039932
2024-12-07 18:26:43.144561400,1.6395615234375,-0.0340657085180282,-0.0101202381774783,-0.129108652472496
2024-12-07 18:26:43.154535200,1.64953515625,-0.0349485725164413,-0.0460719093680381,-0.1403688937425613
2024-12-07 18:26:43.164509200,1.65950927734375,-0.0373805686831474,-0.0962432026863098,-0.1576994061470031
2024-12-07 18:26:43.174482200,1.669482177734375,-0.0409218147397041,-0.1513331979513168,-0.1840444654226303
2024-12-07 18:26:43.184456200,1.679456298828125,-0.0535417385399341,-0.200615793466568,-0.2174253165721893
2024-12-07 18:26:43.194430200,1.68943017578125,-0.0671842470765113,-0.2367696315050125,-0.2407371699810028
2024-12-07 18:26:43.204404200,1.699404296875,-0.082814872264862,-0.2427734583616256,-0.2568157315254211
2024-12-07 18:26:43.214378200,1.709378173828125,-0.0920785814523696,-0.2482933700084686,-0.2629929780960083
2024-12-07 18:26:43.224352000,1.71935205078125,-0.1011559665203094,-0.2547172009944916,-0.2675358057022095
2024-12-07 18:26:43.234326000,1.729325927734375,-0.1127915158867836,-0.2628830373287201,-0.2681143581867218
2024-12-07 18:26:43.244300000,1.739300048828125,-0.1304850280284881,-0.2752789855003357,-0.2735677063465118
2024-12-07 18:26:43.254274000,1.749274169921875,-0.1518822610378265,-0.2787274122238159,-0.2698448300361633
2024-12-07 18:26:43.264247300,1.759247314453125,-0.164773553609848,-0.2686047255992889,-0.2559148967266083
2024-12-07 18:26:43.274221000,1.769220947265625,-0.1670057773590088,-0.2504644989967346,-0.229855790734291
2024-12-07 18:26:43.284195000,1.779195068359375,-0.1649761795997619,-0.2303235679864883,-0.2051531076431274
2024-12-07 18:26:43.294169000,1.789169189453125,-0.1602455228567123,-0.2255674302577972,-0.1853111982345581
2024-12-07 18:26:43.304143000,1.79914306640625,-0.1525031775236129,-0.2455368787050247,-0.1623297184705734
2024-12-07 18:26:43.314117000,1.8091171875,-0.1528084725141525,-0.2572311162948608,-0.15047088265419
2024-12-07 18:26:43.324091100,1.819091064453125,-0.1567419618368148,-0.2646141946315765,-0.1289799809455871
2024-12-07 18:26:43.334065200,1.829065185546875,-0.1438921988010406,-0.2513342797756195,-0.0947243347764015
2024-12-07 18:26:43.344039200,1.8390390625,-0.1224891766905784,-0.2052219361066818,-0.0468550771474838
2024-12-07 18:26:43.354012200,1.84901220703125,-0.0973858833312988,-0.1413966566324234,0.0041003348305821
2024-12-07 18:26:43.363986200,1.858986083984375,-0.0777575820684433,-0.0684817060828208,0.0512800961732864
2024-12-07 18:26:43.373960200,1.868960205078125,-0.0659607872366905,0.0145872384309768,0.0939699858427047
2024-12-07 18:26:43.383934200,1.878934326171875,-0.0560410469770431,0.0934096202254295,0.1315948516130447
2024-12-07 18:26:43.393908200,1.888908203125,-0.0553350038826465,0.1529178023338318,0.160169243812561
2024-12-07 18:26:43.403882200,1.89888232421875,-0.0679195076227188,0.1899517178535461,0.1763908267021179
2024-12-07 18:26:43.413856300,1.908856201171875,-0.0950382724404335,0.190980315208435,0.1863852590322494
2024-12-07 18:26:43.423830300,1.918830322265625,-0.1383303552865982,0.1557011604309082,0.1996326297521591
2024-12-07 18:26:43.433804300,1.92880419921875,-0.1647315919399261,0.0980482771992683,0.2182097136974334
2024-12-07 18:26:43.443777300,1.93877734375,-0.1640700697898864,0.0358173958957195,0.2367975115776062
2024-12-07 18:26:43.453751300,1.948751220703125,-0.1345196962356567,-0.0082189878448843,0.2387348860502243
2024-12-07 18:26:43.463725300,1.958725341796875,-0.0898438468575477,-0.0427604541182518,0.2371380478143692
2024-12-07 18:26:43.473699300,1.96869921875,-0.027041845023632,-0.1029011756181716,0.2481973767280578
2024-12-07 18:26:43.483673300,1.97867333984375,0.0409063138067722,-0.1737114489078521,0.2861793935298919
2024-12-07 18:26:43.493647400,1.9886474609375,0.1028629019856453,-0.1879907101392746,0.3533361852169037
2024-12-07 18:26:43.503621400,1.998621337890625,0.1461749523878097,-0.0727237612009048,0.431649386882782
2024-12-07 18:26:43.513595100,2.00859521484375,0.1853237897157669,0.1628552228212356,0.498958557844162
2024-12-07 18:26:43.523569200,2.018569091796875,0.2250544279813766,0.4511908590793609,0.5391553044319153
2024-12-07 18:26:43.533542100,2.028542236328125,0.2644282877445221,0.7296918034553528,0.54815673828125
2024-12-07 18:26:43.543516200,2.03851611328125,0.2872135043144226,0.9689869284629822,0.5337969660758972
2024-12-07 18:26:43.553490200,2.048490234375,0.2849777638912201,1.1239089965820312,0.5124943852424622
2024-12-07 18:26:43.563464200,2.058464111328125,0.2577189803123474,1.1669795513153076,0.4906316995620727
2024-12-07 18:26:43.573438200,2.068438232421875,0.206836313009262,1.0838981866836548,0.4826934039592743
2024-12-07 18:26:43.583412200,2.078412109375,0.1500222980976104,0.8853166103363037,0.4908078014850616
2024-12-07 18:26:43.593386200,2.08838623046875,0.098130889236927,0.6037890911102295,0.5086711049079895
2024-12-07 18:26:43.603360300,2.0983603515625,0.0395053923130035,0.2906551659107208,0.5224337577819824
2024-12-07 18:26:43.613333200,2.108333251953125,-0.0249592773616313,0.0048348121345043,0.5363608598709106
2024-12-07 18:26:43.623307300,2.118307373046875,-0.06087227165699,-0.2232430875301361,0.5637083053588867
2024-12-07 18:26:43.633281300,2.12828125,-0.0677079483866691,-0.3561765551567077,0.5941978693008423
2024-12-07 18:26:43.643255300,2.13825537109375,-0.0589107349514961,-0.4490489661693573,0.6424692869186401
2024-12-07 18:26:43.653229300,2.148229248046875,-0.0345304235816001,-0.4801377654075622,0.6930192112922668
2024-12-07 18:26:43.663203300,2.158203369140625,0.0077581759542226,-0.3622777163982391,0.7297024130821228
2024-12-07 18:26:43.673177300,2.16817724609375,0.061911579221487,-0.2077984809875488,0.7557461857795715
2024-12-07 18:26:43.683151400,2.1781513671875,0.122102752327919,-0.0824456140398979,0.7741499543190002
2024-12-07 18:26:43.693125000,2.188125,0.1479464322328567,0.0384441018104553,0.7850155234336853
2024-12-07 18:26:43.703098400,2.198098388671875,0.124268539249897,0.1498278826475143,0.7907522916793823
2024-12-07 18:26:43.713072400,2.208072265625,0.0834224298596382,0.1704661697149276,0.7648239731788635
2024-12-07 18:26:43.723046400,2.21804638671875,0.0442665070295333,0.1218059509992599,0.6911795735359192
2024-12-07 18:26:43.733020400,2.2280205078125,-0.0050474032759666,0.0774116367101669,0.5946255922317505
2024-12-07 18:26:43.742994400,2.237994384765625,-0.0544612929224967,0.0405335202813148,0.4686119556427002
2024-12-07 18:26:43.752968200,2.24796826171875,-0.0868536531925201,0.0160139128565788,0.343608021736145
2024-12-07 18:26:43.762942200,2.257942138671875,-0.096185103058815,-0.0188596490770578,0.2555988132953644
2024-12-07 18:26:43.772916200,2.267916259765625,-0.0970392674207687,-0.0542970299720764,0.20396389067173
2024-12-07 18:26:43.782890200,2.27789013671875,-0.100469946861267,-0.0636391341686248,0.1555721163749694
2024-12-07 18:26:43.792863200,2.28786328125,-0.1057386547327041,-0.0443506650626659,0.0864031910896301
2024-12-07 18:26:43.802837200,2.297837158203125,-0.0973369181156158,0.0067295623011887,0.0026646140031516
2024-12-07 18:26:43.812811300,2.307811279296875,-0.0796118825674057,0.0619281604886055,-0.0803267732262611
2024-12-07 18:26:43.822785000,2.317784912109375,-0.0774792209267616,0.1384197324514389,-0.1607696712017059
2024-12-07 18:26:43.832759000,2.327759033203125,-0.0845917016267776,0.2286037504673004,-0.2333239018917083
2024-12-07 18:26:43.842733000,2.337733154296875,-0.085851639509201,0.3057864308357239,-0.2963092923164367
2024-12-07 18:26:43.852707000,2.34770703125,-0.0617629736661911,0.3696003556251526,-0.3474617600440979
2024-12-07 18:26:43.862681000,2.35768115234375,-0.0319654010236263,0.3880097270011902,-0.3888126611709595
2024-12-07 18:26:43.872655000,2.367655029296875,-0.0144866639748215,0.3493533134460449,-0.4316433072090149
2024-12-07 18:26:43.882628000,2.377628173828125,-0.0028723520226776,0.258715271949768,-0.4842308759689331
2024-12-07 18:26:43.892602000,2.38760205078125,0.0007949055870994,0.1180353909730911,-0.540432870388031
2024-12-07 18:26:43.902576000,2.397576171875,0.0117349047213792,-0.0563859455287456,-0.5854877233505249
2024-12-07 18:26:43.912550100,2.407550048828125,0.0161103513091802,-0.2052101641893386,-0.6147998571395874
2024-12-07 18:26:43.922524200,2.417524169921875,0.0071192542091012,-0.2924313545227051,-0.6296845078468323
2024-12-07 18:26:43.932498200,2.427498291015625,-0.001740465988405,-0.3021947741508484,-0.6231621503829956
2024-12-07 18:26:43.942472200,2.43747216796875,-0.0015492510283365,-0.2668673992156982,-0.5870878100395203
2024-12-07 18:26:43.952446200,2.4474462890625,-0.002412102650851,-0.2236919403076172,-0.5189748406410217
2024-12-07 18:26:43.962420200,2.457420166015625,-0.0137861976400017,-0.1840206980705261,-0.4540365636348724
2024-12-07 18:26:43.972393200,2.467393310546875,-0.0425793267786502,-0.1221496313810348,-0.4065307974815368
2024-12-07 18:26:43.982367200,2.4773671875,-0.0797876790165901,-0.0454332828521728,-0.3908895254135132
2024-12-07 18:26:43.992341200,2.48734130859375,-0.0948716700077056,0.0231424942612648,-0.3943788707256317
2024-12-07 18:26:44.002315300,2.497315185546875,-0.0805973932147026,0.0614592581987381,-0.3852916359901428
2024-12-07 18:26:44.012289300,2.507289306640625,-0.0534703433513641,0.0744501799345016,-0.3530975580215454
2024-12-07 18:26:44.022263300,2.51726318359375,-0.0254520215094089,0.0105849122628569,-0.2908235192298889
2024-12-07 18:26:44.032237300,2.5272373046875,-0.0128349168226122,-0.1239312663674354,-0.1817275583744049
2024-12-07 18:26:44.042210800,2.5372109375,0.0200985316187143,-0.1205594390630722,-0.0454802364110946
2024-12-07 18:26:44.052184800,2.547184814453125,0.1057354137301445,0.1728857904672622,0.0727731063961982
2024-12-07 18:26:44.062157800,2.55715771484375,0.2167357057332992,0.6914887428283691,0.0978638157248497
2024-12-07 18:26:44.072131800,2.5671318359375,0.2827882468700409,1.2108083963394165,0.0148506294935941
2024-12-07 18:26:44.082105900,2.57710595703125,0.2544649839401245,1.4493660926818848,-0.1209186539053917
2024-12-07 18:26:44.092079900,2.587079833984375,0.1852237731218338,1.2544890642166138,-0.242943450808525
2024-12-07 18:26:44.102054000,2.597053955078125,0.098966397345066,0.780910074710846,-0.3214795291423797
2024-12-07 18:26:44.112027600,2.607027587890625,0.00726745929569,0.2281999737024307,-0.3482823669910431
2024-12-07 18:26:44.122001700,2.617001708984375,-0.0938985720276832,-0.2355876564979553,-0.3439233303070068
2024-12-07 18:26:44.131975700,2.6269755859375,-0.1994187533855438,-0.4422823786735534,-0.3234273791313171
2024-12-07 18:26:44.141949700,2.63694970703125,-0.2774656116962433,-0.3263509571552276,-0.2868105173110962
2024-12-07 18:26:44.151922700,2.646922607421875,-0.2875311970710754,-0.0734334960579872,-0.2283101677894592
2024-12-07 18:26:44.161896700,2.656896728515625,-0.2260603904724121,0.0770998150110244,-0.1644172072410583
2024-12-07 18:26:44.171870700,2.66687060546875,-0.1354728788137436,0.1026001051068306,-0.1334901601076126
2024-12-07 18:26:44.181844700,2.6768447265625,-0.0701332837343216,0.0768025964498519,-0.1338728666305542
2024-12-07 18:26:44.191818800,2.68681884765625,-0.0486182235181331,-0.0132463257759809,-0.1609436422586441
2024-12-07 18:26:44.201792800,2.696792724609375,-0.0545528121292591,-0.2190809845924377,-0.2148308455944061
2024-12-07 18:26:44.211766800,2.706766845703125,-0.0675733312964439,-0.4846411645412445,-0.2631306648254394
2024-12-07 18:26:44.221740800,2.71674072265625,-0.0734796896576881,-0.6791222095489502,-0.2896472215652466
2024-12-07 18:26:44.231714800,2.72671484375,-0.0645331516861915,-0.7326927781105042,-0.265060156583786
2024-12-07 18:26:44.241687800,2.736687744140625,-0.0499808378517627,-0.6684088706970215,-0.184865728020668
2024-12-07 18:26:44.251661800,2.746661865234375,-0.0376219376921653,-0.5615203380584717,-0.0662619248032569
2024-12-07 18:26:44.261635800,2.7566357421875,-0.034430406987667,-0.4326366782188415,0.047699000686407
2024-12-07 18:26:44.271609900,2.76660986328125,-0.0303574670106172,-0.2965992391109466,0.1096351668238639
2024-12-07 18:26:44.281583900,2.776583984375,-0.0082431118935346,-0.1481325477361679,0.1000358089804649
2024-12-07 18:26:44.291558000,2.786557861328125,0.0280114561319351,-0.0138413645327091,0.0203051380813121
2024-12-07 18:26:44.301532000,2.796531982421875,0.0726963654160499,0.0179535821080207,-0.1045361310243606
2024-12-07 18:26:44.311506000,2.806505859375,0.1032879203557968,-0.0598759800195694,-0.211191713809967
2024-12-07 18:26:44.321479700,2.816479736328125,0.1125245615839958,-0.1347584724426269,-0.2625185549259186
2024-12-07 18:26:44.331453000,2.826452880859375,0.0965053290128707,-0.1332899034023285,-0.2574845850467682
2024-12-07 18:26:44.341427000,2.836427001953125,0.0722196921706199,-0.0637845918536186,-0.2242824286222458
2024-12-07 18:26:44.351401000,2.84640087890625,0.0390193276107311,0.0276599172502756,-0.189629778265953
2024-12-07 18:26:44.361375000,2.856375,0.0100324191153049,0.0825050622224807,-0.1684041172266006
2024-12-07 18:26:44.371348700,2.8663486328125,-0.015747869387269,0.0809659883379936,-0.1761024892330169
2024-12-07 18:26:44.381322800,2.87632275390625,-0.040552020072937,0.0104747749865055,-0.203260600566864
2024-12-07 18:26:44.391296800,2.886296875,-0.0713328346610069,-0.0731796398758888,-0.2381967604160308
2024-12-07 18:26:44.401270800,2.896270751953125,-0.0996337160468101,-0.1548076570034027,-0.2584708929061889
2024-12-07 18:26:44.411243800,2.906243896484375,-0.1201471164822578,-0.2306021749973297,-0.2573134005069732
2024-12-07 18:26:44.421217800,2.9162177734375,-0.1337292343378067,-0.2940019071102142,-0.238664373755455
2024-12-07 18:26:44.431191800,2.92619189453125,-0.1483323723077774,-0.3428374826908111,-0.2112772911787033
2024-12-07 18:26:44.441165600,2.93616552734375,-0.1641395539045334,-0.3684776127338409,-0.1917139738798141
2024-12-07 18:26:44.451139600,2.9461396484375,-0.1807654350996017,-0.3643508851528168,-0.1839109063148498
2024-12-07 18:26:44.461113600,2.956113525390625,-0.1962767541408538,-0.3333032131195068,-0.1881517320871353
2024-12-07 18:26:44.471087600,2.966087646484375,-0.1906337141990661,-0.2753888070583343,-0.2131656408309936
2024-12-07 18:26:44.481061600,2.9760615234375,-0.1643656343221664,-0.1873276829719543,-0.2400997877120971
2024-12-07 18:26:44.491035600,2.98603564453125,-0.1361514031887054,-0.0893260613083839,-0.2428022623062133
2024-12-07 18:26:44.501008600,2.996008544921875,-0.1170490905642509,-0.0157051049172878,-0.2235430777072906
2024-12-07 18:26:44.510982700,3.005982666015625,-0.1146565750241279,0.0347075089812278,-0.1977283507585525
2024-12-07 18:26:44.520956700,3.015956787109375,-0.1298760026693344,0.0734935253858566,-0.1866200417280197
2024-12-07 18:26:44.530930700,3.0259306640625,-0.1569617986679077,0.1148792654275894,-0.1880721449851989
2024-12-07 18:26:44.540904700,3.03590478515625,-0.184043750166893,0.1601647138595581,-0.1747123897075653
2024-12-07 18:26:44.550878700,3.045878662109375,-0.1981084793806076,0.2049946039915084,-0.140931487083435
2024-12-07 18:26:44.560852700,3.055852783203125,-0.1944708675146103,0.2381578832864761,-0.0978793576359748
2024-12-07 18:26:44.570826800,3.06582666015625,-0.1869645863771438,0.2462932914495468,-0.0627428963780403
2024-12-07 18:26:44.580800800,3.07580078125,-0.2001853138208389,0.2204947173595428,-0.055326797068119
2024-12-07 18:26:44.590773800,3.085773681640625,-0.2334839701652526,0.1603046357631683,-0.0638776794075965
2024-12-07 18:26:44.600747800,3.095747802734375,-0.2768197059631347,0.0773247927427291,-0.070032775402069
2024-12-07 18:26:44.610721800,3.1057216796875,-0.3183922469615936,-0.0053228791803121,-0.0482951514422893
2024-12-07 18:26:44.620695800,3.11569580078125,-0.3435732424259186,-0.0604034438729286,0.0051776617765426
2024-12-07 18:26:44.630669800,3.125669921875,-0.3568682670593261,-0.0812818259000778,0.0832229331135749
2024-12-07 18:26:44.640643800,3.135643798828125,-0.347683310508728,-0.091854840517044,0.1539389044046402
2024-12-07 18:26:44.650617900,3.145617919921875,-0.313562273979187,-0.1344789713621139,0.1858179569244384
2024-12-07 18:26:44.660591900,3.155591796875,-0.2559040188789367,-0.2185901254415512,0.1740744858980178
2024-12-07 18:26:44.670566000,3.16556591796875,-0.1964279115200042,-0.3357633054256439,0.1440931111574173
2024-12-07 18:26:44.680538600,3.17553857421875,-0.1343379020690918,-0.4529522359371185,0.1175368577241897
2024-12-07 18:26:44.690512600,3.1855126953125,-0.0579253993928432,-0.5200470685958862,0.1102596372365951
2024-12-07 18:26:44.700486700,3.195486572265625,0.0245154146105051,-0.4930426180362701,0.1274695247411728
2024-12-07 18:26:44.710460700,3.205460693359375,0.1007330492138862,-0.3570325672626495,0.1725751757621765
2024-12-07 18:26:44.720434700,3.2154345703125,0.1698807030916214,-0.1404339522123336,0.2323948293924331
2024-12-07 18:26:44.730408700,3.22540869140625,0.2354494929313659,0.1020809262990951,0.2813946306705475
2024-12-07 18:26:44.740382700,3.2353828125,0.2998785376548767,0.337245762348175,0.3179332017898559
2024-12-07 18:26:44.750356700,3.245356689453125,0.3594991564750671,0.538713812828064,0.320290058851242
2024-12-07 18:26:44.760329700,3.255329833984375,0.4267112016677856,0.67155921459198,0.2999874651432037
2024-12-07 18:26:44.770303700,3.2653037109375,0.4923737049102783,0.7040877342224121,0.2709304094314575
2024-12-07 18:26:44.780277800,3.27527783203125,0.5271982550621033,0.6097031831741333,0.2802557349205017
2024-12-07 18:26:44.790251800,3.285251708984375,0.5204306840896606,0.4445458948612213,0.364240437746048
2024-12-07 18:26:44.800225800,3.295225830078125,0.4974515438079834,0.3020438551902771,0.5457857847213745
2024-12-07 18:26:44.810199800,3.30519970703125,0.5070370435714722,0.2554802596569061,0.7937126159667969
2024-12-07 18:26:44.820173800,3.315173828125,0.5396783351898193,0.3718383014202118,1.0075762271881104
2024-12-07 18:26:44.830147800,3.32514794921875,0.5557813048362732,0.6099956035614014,1.1780966520309448
2024-12-07 18:26:44.840121900,3.335121826171875,0.5676746964454651,0.8601042032241821,1.3078298568725586
2024-12-07 18:26:44.850094800,3.3450947265625,0.5568984746932983,0.9447620511054992,1.377089500427246
2024-12-07 18:26:44.860068900,3.35506884765625,0.4911236763000488,0.7669172286987305,1.351760745048523
2024-12-07 18:26:44.870043000,3.36504296875,0.3701996505260467,0.53513103723526,1.260991454124451
2024-12-07 18:26:44.880017000,3.375016845703125,0.2114171981811523,0.370848685503006,1.1096782684326172
2024-12-07 18:26:44.889991000,3.384990966796875,0.0826251283288002,0.2926172614097595,0.9166020154953004
2024-12-07 18:26:44.899965000,3.39496484375,0.0312255881726741,0.3043213188648224,0.7586994767189026
2024-12-07 18:26:44.909938700,3.404938720703125,0.06635282933712,0.3674048781394958,0.724844217300415
2024-12-07 18:26:44.919912700,3.41491259765625,0.1158546060323715,0.4117156267166137,0.808387815952301
2024-12-07 18:26:44.929886700,3.42488671875,0.1339359432458877,0.4918293058872223,0.9559792876243592
2024-12-07 18:26:44.939860000,3.43485986328125,0.1493077129125595,0.5089819431304932,1.0413676500320437
2024-12-07 18:26:44.949834000,3.444833984375,0.1502048224210739,0.3049214482307434,0.945146918296814
2024-12-07 18:26:44.959808000,3.45480810546875,0.1213574782013893,0.0003895319532603,0.6697851419448853
2024-12-07 18:26:44.969781800,3.46478173828125,0.0906750783324241,-0.2163849472999572,0.3694267868995666
2024-12-07 18:26:44.979755800,3.474755859375,0.0777558162808418,-0.2322789579629898,0.1524316221475601
2024-12-07 18:26:44.989729800,3.484729736328125,0.0773783177137374,-0.08287014067173,0.0652516782283783
2024-12-07 18:26:44.999703600,3.49470361328125,0.0873997956514358,0.1048211976885795,0.065197616815567
2024-12-07 18:26:45.009677600,3.504677490234375,0.0776951536536216,0.219501182436943,0.1001356020569801
2024-12-07 18:26:45.019651600,3.514651611328125,0.0360374562442302,0.2440784275531768,0.112394668161869
2024-12-07 18:26:45.029624600,3.52462451171875,-0.0203168801963329,0.1917654871940612,0.081852875649929
2024-12-07 18:26:45.039598600,3.5345986328125,-0.0732690468430519,0.1241182684898376,0.0137398689985275
2024-12-07 18:26:45.049572400,3.544572265625,-0.0939331352710723,0.0980746895074844,-0.0738651007413864
2024-12-07 18:26:45.059546000,3.554546142578125,-0.0698853209614753,0.1103734374046325,-0.1704688668251037
2024-12-07 18:26:45.069520100,3.56452001953125,-0.0342566817998886,0.1370153576135635,-0.2539652287960052
2024-12-07 18:26:45.079494100,3.574494140625,-0.0051576527766883,0.1420420706272125,-0.3100921511650085
2024-12-07 18:26:45.089468200,3.58446826171875,-0.0014579345006495,0.1157967746257782,-0.3479386568069458
2024-12-07 18:26:45.099442200,3.594442138671875,-0.0178683344274759,0.0341202914714813,-0.3813834190368652
2024-12-07 18:26:45.109415200,3.604415283203125,-0.0417744666337966,-0.0817740857601165,-0.4140505492687225
2024-12-07 18:26:45.119389200,3.61438916015625,-0.0750266909599304,-0.2413187474012375,-0.4585317373275757
2024-12-07 18:26:45.129363200,3.62436328125,-0.1083040013909339,-0.4079294204711914,-0.5102998614311218
2024-12-07 18:26:45.139337200,3.634337158203125,-0.1478455513715744,-0.5238951444625854,-0.539197564125061
2024-12-07 18:26:45.149311200,3.644311279296875,-0.1854537725448608,-0.5570409893989563,-0.509981632232666
2024-12-07 18:26:45.159285200,3.65428515625,-0.1994396299123764,-0.5392960906028748,-0.4281586706638336
2024-12-07 18:26:45.169259300,3.66425927734375,-0.1787798851728439,-0.5467340350151062,-0.3422826528549194
2024-12-07 18:26:45.179233300,3.6742333984375,-0.1262833923101425,-0.6271324753761292,-0.2971053421497345
2024-12-07 18:26:45.189207300,3.684207275390625,-0.0300632677972316,-0.7253936529159546,-0.2484876364469528
2024-12-07 18:26:45.199180300,3.69418017578125,0.1265183389186859,-0.7359349727630615,-0.1672918498516082
2024-12-07 18:26:45.209154300,3.704154296875,0.2869486510753631,-0.5545543432235718,-0.0895368158817291
2024-12-07 18:26:45.219128300,3.71412841796875,0.3842224776744842,-0.1847360581159591,-0.0290870573371648
2024-12-07 18:26:45.229102300,3.724102294921875,0.3965198397636413,0.1964533627033233,-0.0340629294514656
2024-12-07 18:26:45.239076400,3.734076416015625,0.3906049430370331,0.3808602392673492,-0.10322255641222
2024-12-07 18:26:45.249050400,3.74405029296875,0.4070427715778351,0.3605326116085052,-0.159111201763153
2024-12-07 18:26:45.259024400,3.7540244140625,0.4064502418041229,0.2487877160310745,-0.1707896888256073
2024-12-07 18:26:45.268998100,3.763998046875,0.3434079587459564,0.0608900003135204,-0.1987896710634231
2024-12-07 18:26:45.278972200,3.77397216796875,0.2189811021089553,-0.2247103303670883,-0.2613470554351806
2024-12-07 18:26:45.288945200,3.783945068359375,0.0826782807707786,-0.5157581567764282,-0.3092074692249298
2024-12-07 18:26:45.298919200,3.793919189453125,-0.0363801941275596,-0.6803500056266785,-0.3323793709278106
2024-12-07 18:26:45.308893200,3.80389306640625,-0.1351512372493744,-0.6585341691970825,-0.3325237929821014
2024-12-07 18:26:45.318867200,3.8138671875,-0.1725630462169647,-0.4299838244915008,-0.3072357475757599
2024-12-07 18:26:45.328841200,3.82384130859375,-0.1748327910900116,-0.0985409617424011,-0.2753805220127105
2024-12-07 18:26:45.338815200,3.833815185546875,-0.1703107357025146,0.1956560462713241,-0.2462218403816223
2024-12-07 18:26:45.348789200,3.843789306640625,-0.1826925873756408,0.3267399966716766,-0.2205310612916946
2024-12-07 18:26:45.358763300,3.85376318359375,-0.2282728552818298,0.1936186999082565,-0.2163291275501251
2024-12-07 18:26:45.368736300,3.863736328125,-0.292285680770874,-0.188575342297554,-0.2342486083507537
2024-12-07 18:26:45.378710300,3.873710205078125,-0.3260327279567718,-0.6856895089149475,-0.2673708796501159
2024-12-07 18:26:45.388684300,3.883684326171875,-0.3134945631027221,-1.1095036268234253,-0.313843309879303
2024-12-07 18:26:45.398658300,3.893658203125,-0.2616662383079529,-1.314919114112854,-0.3701696991920471
2024-12-07 18:26:45.408632300,3.90363232421875,-0.1749012321233749,-1.238515853881836,-0.4249212741851806
2024-12-07 18:26:45.418606300,3.9136064453125,-0.0652756690979003,-0.9174014925956726,-0.4534613192081451
2024-12-07 18:26:45.437931300,3.93293115234375,0.056909754872322,0.0398993231356143,-0.3623760938644409
2024-12-07 18:26:45.447905300,3.9429052734375,0.054784819483757,0.3177690207958221,-0.2868296802043915
2024-12-07 18:26:45.457878300,3.952878173828125,0.044347945600748,0.2996003031730652,-0.2793076336383819
2024-12-07 18:26:45.467852300,3.962852294921875,0.0396091192960739,0.0937264859676361,-0.3516113758087158
2024-12-07 18:26:45.477826300,3.972826416015625,0.0266135800629854,-0.1281457692384719,-0.4402626156806946
2024-12-07 18:26:45.487800300,3.98280029296875,-0.0084357494488358,-0.2906622290611267,-0.4998862445354461
2024-12-07 18:26:45.497774300,3.9927744140625,-0.0468326918780803,-0.3462893664836883,-0.5177018642425537
2024-12-07 18:26:45.507748400,4.002748291015625,-0.0822774991393089,-0.3485788702964782,-0.5121225118637085
2024-12-07 18:26:45.517722400,4.012722412109375,-0.1026971861720085,-0.3560668528079986,-0.4834867417812347
2024-12-07 18:26:45.527696400,4.0226962890625,-0.0963591337203979,-0.3972795307636261,-0.4454799592494964
2024-12-07 18:26:45.537670400,4.03267041015625,-0.0640754252672195,-0.4181116223335266,-0.4138902127742767
2024-12-07 18:26:45.547643100,4.04264306640625,-0.0211356803774833,-0.3838005363941192,-0.4117852449417114
2024-12-07 18:26:45.557617200,4.0526171875,0.0153879513964056,-0.3276587426662445,-0.4260231554508209
2024-12-07 18:26:45.567591200,4.062591064453125,0.0287783257663249,-0.2809394598007202,-0.4459028542041778
2024-12-07 18:26:45.577565200,4.072565185546875,0.0140601657330989,-0.2859154045581817,-0.4561918675899505
2024-12-07 18:26:45.587539200,4.082539306640625,-0.0325009450316429,-0.3452716767787933,-0.4369278848171234
2024-12-07 18:26:45.597513200,4.09251318359375,-0.0918378010392189,-0.4097442328929901,-0.3830231726169586
2024-12-07 18:26:45.607487200,4.1024873046875,-0.1191557049751281,-0.4762082099914551,-0.3108634948730469
2024-12-07 18:26:45.617461200,4.112461181640625,-0.1152997910976409,-0.5543434619903564,-0.2601242363452911
2024-12-07 18:26:45.627435300,4.122435302734375,-0.1050279811024665,-0.6304842829704285,-0.2481426745653152
2024-12-07 18:26:45.637408300,4.132408203125,-0.110373355448246,-0.6705743074417114,-0.2543739080429077
2024-12-07 18:26:45.647382300,4.14238232421875,-0.1259863972663879,-0.6584071516990662,-0.2594040930271148
2024-12-07 18:26:45.657356300,4.152356201171875,-0.1309311538934707,-0.6529028415679932,-0.2654679715633392
2024-12-07 18:26:45.667330300,4.162330322265625,-0.1123073995113372,-0.6482452154159546,-0.2885485291481018
2024-12-07 18:26:45.677304300,4.17230419921875,-0.0912747383117675,-0.6112790107727051,-0.3251725733280182
2024-12-07 18:26:45.687278300,4.1822783203125,-0.0794750675559043,-0.4937027990818023,-0.3447169661521911
2024-12-07 18:26:45.697252400,4.19225244140625,-0.0870730355381965,-0.3344802856445312,-0.3302716612815857
2024-12-07 18:26:45.707226400,4.202226318359375,-0.0930177494883537,-0.1714375764131546,-0.2968210279941559
2024-12-07 18:26:45.717199400,4.212199462890625,-0.1011749655008316,-0.0259470976889133,-0.2426280528306961
2024-12-07 18:26:45.727173400,4.22217333984375,-0.1053273677825927,0.0891760289669036,-0.1758290529251098
2024-12-07 18:26:45.737147400,4.2321474609375,-0.1089701652526855,0.2063334286212921,-0.1253395527601242
2024-12-07 18:26:45.747744300,4.242744140625,-0.1296882182359695,0.3159275650978088,-0.0777193009853363
2024-12-07 18:26:45.757718300,4.25271826171875,-0.1464066803455352,0.38482266664505,-0.0432757027447223
2024-12-07 18:26:45.767692300,4.2626923828125,-0.1461693942546844,0.4276572167873382,-0.0221666879951953
2024-12-07 18:26:45.777666300,4.272666259765625,-0.1323122084140777,0.4640063345432281,-0.0131391715258359
2024-12-07 18:26:45.787640300,4.282640380859375,-0.1112689822912216,0.4975741505622864,-0.0068298764526844
2024-12-07 18:26:45.797614300,4.2926142578125,-0.0928109884262085,0.5178819894790649,-0.0025548038538545
2024-12-07 18:26:45.807588400,4.30258837890625,-0.0867999717593193,0.5105218291282654,0.0037989658303558
2024-12-07 18:26:45.817562400,4.312562255859375,-0.08344167470932,0.4570070505142212,0.0036202790215611
2024-12-07 18:26:45.827535000,4.32253515625,-0.0937861949205398,0.3807104229927063,0.0123210931196808
2024-12-07 18:26:45.837509000,4.332509033203125,-0.1188720092177391,0.2837929725646972,0.0384948067367076
2024-12-07 18:26:45.847483100,4.342483154296875,-0.1546672731637954,0.1809795349836349,0.0710767209529876
2024-12-07 18:26:45.857457200,4.35245703125,-0.1942425817251205,0.0986550822854042,0.1025816723704338
2024-12-07 18:26:45.867431200,4.36243115234375,-0.2251704037189483,0.0197059419006109,0.1443932950496673
2024-12-07 18:26:45.877405200,4.3724052734375,-0.2450302541255951,-0.0396912284195423,0.1837729513645172
2024-12-07 18:26:45.887379200,4.382379150390625,-0.2545140385627746,-0.0857306271791458,0.2067432552576065
2024-12-07 18:26:45.897353200,4.392353271484375,-0.2514676451683044,-0.1184299513697624,0.1942694634199142
2024-12-07 18:26:45.907326200,4.402326171875,-0.2285756319761276,-0.1506542116403579,0.1517331898212433
2024-12-07 18:26:45.917300200,4.41230029296875,-0.1803027689456939,-0.1803243458271026,0.0883619040250778
2024-12-07 18:26:45.927274200,4.422274169921875,-0.130591943860054,-0.204431802034378,0.0155915655195713
2024-12-07 18:26:45.937248300,4.432248291015625,-0.0853102505207061,-0.2287963926792144,-0.0461085624992847
2024-12-07 18:26:45.947222300,4.44222216796875,-0.0399164073169231,-0.2292160987854004,-0.0857118964195251
2024-12-07 18:26:45.957196300,4.4521962890625,0.0014009688748046,-0.202388122677803,-0.0886000171303749
2024-12-07 18:26:45.967170300,4.46217041015625,0.0357632040977478,-0.1061364188790321,-0.0576548874378204
2024-12-07 18:26:45.977144300,4.472144287109375,0.0857950523495674,0.0196082536131143,0.0059279859997332
2024-12-07 18:26:45.987118300,4.482118408203125,0.147455483675003,0.1435309946537017,0.0683910995721817
2024-12-07 18:26:45.997091300,4.49209130859375,0.2132501900196075,0.2580465972423553,0.1102686300873756
2024-12-07 18:26:46.007065300,4.5020654296875,0.2568341493606567,0.360510915517807,0.1327401101589203
2024-12-07 18:26:46.017039400,4.512039306640625,0.2623103559017181,0.4769644141197204,0.1461084485054016
2024-12-07 18:26:46.027013400,4.522013427734375,0.2426871210336685,0.6044328808784485,0.1683580875396728
2024-12-07 18:26:46.036987400,4.5319873046875,0.220214769244194,0.7435812950134277,0.222085028886795
2024-12-07 18:26:46.046961700,4.541961669921875,0.2023713290691375,0.8965681791305542,0.3295366466045379
2024-12-07 18:26:46.056935700,4.551935791015625,0.2050908058881759,1.0254961252212524,0.5169902443885803
2024-12-07 18:26:46.066909700,4.56190966796875,0.2472177594900131,1.1196328401565552,0.7771751880645752
2024-12-07 18:26:46.076883700,4.5718837890625,0.3228796720504761,1.212843656539917,1.0605995655059814
2024-12-07 18:26:46.086857000,4.58185693359375,0.4024730324745178,1.347550630569458,1.3126709461212158
2024-12-07 18:26:46.096830700,4.591830810546875,0.4623060822486877,1.538566827774048,1.5114160776138306
2024-12-07 18:26:46.106804700,4.6018046875,0.5234085917472839,1.6833841800689695,1.6253104209899902
2024-12-07 18:26:46.116778800,4.61177880859375,0.5876697897911072,1.72994065284729,1.633378982543945
2024-12-07 18:26:46.126752800,4.621752685546875,0.6348698139190674,1.6900557279586792,1.5676339864730835
2024-12-07 18:26:46.136726800,4.631726806640625,0.6039870381355286,1.5639114379882812,1.4526128768920898
2024-12-07 18:26:46.146700800,4.64170068359375,0.4688383340835571,1.4174543619155884,1.3176628351211548
2024-12-07 18:26:46.156674800,4.6516748046875,0.3227664232254028,1.2544817924499512,1.2015725374221802
2024-12-07 18:26:46.166648800,4.66164892578125,0.1752845644950866,1.1475502252578735,1.091614842414856
2024-12-07 18:26:46.176621800,4.671621826171875,0.043603129684925,1.149672269821167,0.9726511240005492
2024-12-07 18:26:46.186595800,4.681595947265625,-0.0265397373586893,1.166566252708435,0.827053964138031
2024-12-07 18:26:46.196569900,4.69156982421875,-0.0753872618079185,1.120398759841919,0.6951203942298889
2024-12-07 18:26:46.206544000,4.7015439453125,-0.0982020273804664,1.0594749450683594,0.6026163101196289
2024-12-07 18:26:46.216518000,4.711517822265625,-0.0887067914009094,0.9733789563179016,0.5625833868980408
2024-12-07 18:26:46.226492000,4.721491943359375,-0.0618834309279918,0.9329481720924376,0.5246980786323547
2024-12-07 18:26:46.236466000,4.7314658203125,-0.0430471114814281,0.8725144863128662,0.4381794333457947
2024-12-07 18:26:46.246440000,4.74143994140625,-0.0381873734295368,0.7575237154960632,0.2649546563625335
2024-12-07 18:26:46.256414000,4.7514140625,-0.0434829555451869,0.5650478601455688,0.0548947378993034
2024-12-07 18:26:46.266387000,4.761386962890625,-0.0235441327095031,0.2429193407297134,-0.1149875074625015
2024-12-07 18:26:46.276361000,4.77136083984375,0.0272386446595191,-0.1042667776346206,-0.2197452038526535
2024-12-07 18:26:46.286335000,4.7813349609375,0.0682558491826057,-0.3240374624729156,-0.2721889615058899
2024-12-07 18:26:46.296309000,4.79130908203125,0.0982188805937767,-0.3886146545410156,-0.2989070415496826
2024-12-07 18:26:46.306283000,4.801282958984375,0.1230398043990135,-0.3328254222869873,-0.3190602660179138
2024-12-07 18:26:46.316257000,4.811257080078125,0.1414566189050674,-0.2328447997570037,-0.3372557163238525
2024-12-07 18:26:46.326231000,4.82123095703125,0.1497960388660431,-0.1883359253406524,-0.3610318899154663
2024-12-07 18:26:46.336205000,4.831205078125,0.1367706060409546,-0.1889220923185348,-0.4092995226383209
2024-12-07 18:26:46.346178800,4.8411787109375,0.1116972118616104,-0.2258534729480743,-0.4806647598743438
2024-12-07 18:26:46.356151800,4.85115185546875,0.069843053817749,-0.3313479423522949,-0.5530102849006653
2024-12-07 18:26:46.366125800,4.861125732421875,0.0063562276773154,-0.4733003079891205,-0.6155698299407959
2024-12-07 18:26:46.376099800,4.871099853515625,-0.0655076280236244,-0.670360267162323,-0.6517871618270874
2024-12-07 18:26:46.386073900,4.881073974609375,-0.1202044263482093,-0.915346086025238,-0.6607012748718262
2024-12-07 18:26:46.396048000,4.8910478515625,-0.1630999445915222,-1.1306769847869873,-0.665762186050415
2024-12-07 18:26:46.406022000,4.90102197265625,-0.2165485322475433,-1.2009515762329102,-0.685427725315094
2024-12-07 18:26:46.415996000,4.910995849609375,-0.2570463716983795,-1.1867549419403076,-0.677126944065094
2024-12-07 18:26:46.425970000,4.920969970703125,-0.3003107607364654,-1.0988261699676514,-0.6158947348594666
2024-12-07 18:26:46.435944000,4.93094384765625,-0.3334191441535949,-0.912376880645752,-0.4991046786308288
2024-12-07 18:26:46.445917000,4.9409169921875,-0.3484798669815063,-0.6840635538101196,-0.3440668880939483
2024-12-07 18:26:46.455891000,4.950890869140625,-0.3092704713344574,-0.4769105017185211,-0.1860303878784179
2024-12-07 18:26:46.465865000,4.960864990234375,-0.2053799927234649,-0.2837604880332947,-0.0142442500218749
2024-12-07 18:26:46.475839000,4.9708388671875,-0.055068626999855,0.0108964229002594,0.1695583909749984
2024-12-07 18:26:46.485813000,4.98081298828125,0.0781576037406921,0.412149578332901,0.3013126850128174
2024-12-07 18:26:46.495787000,4.990787109375,0.095217540860176,0.7521270513534546,0.2751162946224212
2024-12-07 18:26:46.505761000,5.000760986328125,0.0035850941203534,0.8137989640235901,0.0283832047134637
2024-12-07 18:26:46.515734800,5.01073486328125,-0.0653045326471328,0.5404525399208069,-0.3403841853141784
2024-12-07 18:26:46.525708800,5.020708740234375,-0.0355884470045566,0.0808835998177528,-0.6029151678085327
2024-12-07 18:26:46.535682000,5.03068212890625,-0.0054397657513618,-0.3738124966621399,-0.6600088477134705
2024-12-07 18:26:46.545656000,5.040656005859375,-0.059663325548172,-0.7158854007720947,-0.5954378843307495
2024-12-07 18:26:46.555630000,5.050630126953125,-0.1805231571197509,-0.8063628673553467,-0.4940114021301269
2024-12-07 18:26:46.565604000,5.06060400390625,-0.2529765963554382,-0.5757312178611755,-0.3950248956680298
2024-12-07 18:26:46.575577900,5.070577880859375,-0.1997558325529098,-0.154259443283081,-0.3048450350761413
2024-12-07 18:26:46.585552000,5.0805517578125,-0.0794403403997421,0.2403845340013504,-0.2544058263301849
2024-12-07 18:26:46.595526000,5.09052587890625,-0.023640202358365,0.420768141746521,-0.2228843122720718
2024-12-07 18:26:46.605500000,5.1005,-0.0929015651345253,0.3452869653701782,-0.1640873104333877
2024-12-07 18:26:46.615474000,5.110473876953125,-0.1901999711990356,0.0599585585296154,-0.0857952013611793
2024-12-07 18:26:46.625447000,5.120447021484375,-0.2391778975725174,-0.3547749817371368,-0.0572596974670887
2024-12-07 18:26:46.635420700,5.130420654296875,-0.2471314817667007,-0.7320191264152527,-0.1121207550168037
2024-12-07 18:26:46.645394700,5.140394775390625,-0.2270536422729492,-0.9058260321617126,-0.2216738760471344
2024-12-07 18:26:46.655368700,5.15036865234375,-0.1850347965955734,-0.8420131802558899,-0.3272425234317779
2024-12-07 18:26:46.665342700,5.1603427734375,-0.1245331093668937,-0.5736315250396729,-0.3725892305374145
2024-12-07 18:26:46.675316700,5.170316650390625,-0.0647404938936233,-0.2345612049102783,-0.3344159722328186
2024-12-07 18:26:46.685290800,5.180290771484375,-0.0624296627938747,0.0342862382531166,-0.2305750697851181
2024-12-07 18:26:46.695264800,5.1902646484375,-0.1124942302703857,0.1541213691234588,-0.1385379582643509
2024-12-07 18:26:46.705238800,5.20023876953125,-0.1589821130037307,0.0915091261267662,-0.1194665282964706
2024-12-07 18:26:46.715211800,5.210211669921875,-0.1679726690053939,-0.1112522855401039,-0.1950693577528
2024-12-07 18:26:46.725185800,5.220185791015625,-0.1443762630224228,-0.3492560684680938,-0.3371721804141998
2024-12-07 18:26:46.735159800,5.230159912109375,-0.120072416961193,-0.5265913009643555,-0.4774641692638397
2024-12-07 18:26:46.745133800,5.2401337890625,-0.1143104061484336,-0.5850802063941956,-0.5541424751281738
2024-12-07 18:26:46.755107800,5.25010791015625,-0.1190172359347343,-0.5032326579093933,-0.5492245554924011
2024-12-07 18:26:46.765081900,5.260081787109375,-0.1187226921319961,-0.285111516714096,-0.4766593277454376
2024-12-07 18:26:46.775056000,5.270055908203125,-0.1054146811366081,-0.0468453280627727,-0.3779379427433014
2024-12-07 18:26:46.785030000,5.28002978515625,-0.0962440818548202,0.1108388379216194,-0.3037406802177429
2024-12-07 18:26:46.795004000,5.29000390625,-0.1002756357192993,0.1429425179958343,-0.2868926227092743
2024-12-07 18:26:46.804977000,5.299976806640625,-0.1132316440343856,0.025763165205717,-0.3144755065441131
2024-12-07 18:26:46.814951000,5.309950927734375,-0.1317476332187652,-0.2001623958349228,-0.3657037615776062
2024-12-07 18:26:46.824925000,5.319925048828125,-0.1595331877470016,-0.4310472905635834,-0.4145884811878204
2024-12-07 18:26:46.834899000,5.32989892578125,-0.1952213197946548,-0.5983707308769226,-0.4477970600128174
2024-12-07 18:26:46.844873000,5.339873046875,-0.2360435873270034,-0.7014715075492859,-0.4612710773944855
2024-12-07 18:26:46.854847000,5.349846923828125,-0.2793290317058563,-0.7513648867607117,-0.4523634910583496
2024-12-07 18:26:46.864821000,5.359821044921875,-0.3131703436374664,-0.7542285323143005,-0.4139833450317383
2024-12-07 18:26:46.874795000,5.369794921875,-0.3194664716720581,-0.6928310990333557,-0.3553597331047058
2024-12-07 18:26:46.884769000,5.37976904296875,-0.3061786293983459,-0.5877707600593567,-0.2836815416812897
2024-12-07 18:26:46.894741800,5.38974169921875,-0.2744956314563751,-0.4566477239131927,-0.2205191254615783
2024-12-07 18:26:46.904715800,5.3997158203125,-0.2300107479095459,-0.3135022819042206,-0.1716929823160171
2024-12-07 18:26:46.914689800,5.409689697265625,-0.1923999190330505,-0.2169167101383209,-0.1237815096974372
2024-12-07 18:26:46.924663800,5.419663818359375,-0.1646971851587295,-0.1741956025362014,-0.0863358676433563
2024-12-07 18:26:46.934637800,5.429637939453125,-0.143665924668312,-0.1801381409168243,-0.0647451505064964
2024-12-07 18:26:46.944611800,5.43961181640625,-0.1299027055501938,-0.2134723961353302,-0.0467203482985496
2024-12-07 18:26:46.954585900,5.4495859375,-0.13423553109169,-0.2422541230916977,-0.034703329205513
2024-12-07 18:26:46.964560000,5.459559814453125,-0.1486488282680511,-0.2450978457927703,-0.0399074107408523
2024-12-07 18:26:46.974534000,5.469533935546875,-0.1604961156845092,-0.1914613246917724,-0.0517348907887935
2024-12-07 18:26:46.984507000,5.4795068359375,-0.1680349856615066,-0.0770351514220237,-0.0554033927619457
2024-12-07 18:26:46.994481000,5.48948095703125,-0.1751150041818618,0.0748611316084861,-0.0458772107958793
2024-12-07 18:26:47.004455000,5.499454833984375,-0.1815177649259567,0.232329323887825,-0.0235183760523796
2024-12-07 18:26:47.014429000,5.509428955078125,-0.1688585579395294,0.36387899518013,0.0082730203866958
2024-12-07 18:26:47.024403000,5.51940283203125,-0.1482717990875244,0.4623903930187225,0.0430874601006507
2024-12-07 18:26:47.034377000,5.529376953125,-0.1258636116981506,0.5396172404289246,0.0781767591834068
2024-12-07 18:26:47.044350500,5.5393505859375,-0.1122966706752777,0.57902592420578,0.1109847724437713
2024-12-07 18:26:47.054324500,5.549324462890625,-0.1069662794470787,0.5598803758621216,0.1212394163012504
2024-12-07 18:26:47.064297500,5.55929736328125,-0.1150750741362571,0.465779185295105,0.1170057952404022
2024-12-07 18:26:47.074271500,5.569271484375,-0.1363841146230697,0.3129235208034515,0.0912747979164123
2024-12-07 18:26:47.084245500,5.57924560546875,-0.1630660593509674,0.1351931989192962,0.0690749585628509
2024-12-07 18:26:47.094219500,5.589219482421875,-0.1773570328950882,-0.034923393279314,0.0609807632863521
2024-12-07 18:26:47.104193500,5.599193603515625,-0.1742062419652938,-0.1823424100875854,0.0706693455576896
2024-12-07 18:26:47.114167600,5.60916748046875,-0.1506777703762054,-0.2907765507698059,0.0922485440969467
2024-12-07 18:26:47.124141600,5.6191416015625,-0.1242325827479362,-0.3651743531227112,0.1156220436096191
2024-12-07 18:26:47.134115600,5.629115478515625,-0.0919926017522811,-0.4110336303710937,0.1662888079881668
2024-12-07 18:26:47.144089300,5.63908935546875,-0.0479676164686679,-0.3815798759460449,0.2274853289127349
2024-12-07 18:26:47.154063400,5.6490634765625,0.0122179724276065,-0.2886933088302612,0.2831812798976898
2024-12-07 18:26:47.164036400,5.659036376953125,0.0931266695261001,-0.1880226284265518,0.323553204536438
2024-12-07 18:26:47.174010400,5.66901025390625,0.1862268298864364,-0.0556127987802028,0.3450182974338531
2024-12-07 18:26:47.183984400,5.678984375,0.278893381357193,0.1247508525848388,0.3664588630199432
2024-12-07 18:26:47.193958400,5.68895849609375,0.3660676181316376,0.345812976360321,0.3921456933021545
2024-12-07 18:26:47.203932200,5.69893212890625,0.449794203042984,0.5753298401832581,0.41695037484169
2024-12-07 18:26:47.213906200,5.70890625,0.5299806594848633,0.7665129899978638,0.4490869641304016
2024-12-07 18:26:47.223880200,5.718880126953125,0.6008852124214172,0.8696241974830627,0.4907630383968353
2024-12-07 18:26:47.233854200,5.728854248046875,0.6522776484489441,0.8849223256111145,0.5435751676559448
2024-12-07 18:26:47.243827500,5.738827392578125,0.6890780329704285,0.8294686079025269,0.6017489433288574
2024-12-07 18:26:47.253801500,5.748801513671875,0.6960527896881104,0.7404607534408569,0.659034013748169
2024-12-07 18:26:47.263775200,5.758775146484375,0.6734694838523865,0.638550341129303,0.7002201080322266
2024-12-07 18:26:47.273749200,5.768749267578125,0.6319693326950073,0.5368831157684326,0.7218769192695618
2024-12-07 18:26:47.283723300,5.77872314453125,0.5938459038734436,0.45656618475914,0.7239901423454285
2024-12-07 18:26:47.293697300,5.788697265625,0.5671501755714417,0.3329442739486694,0.7240778803825378
2024-12-07 18:26:47.303671300,5.79867138671875,0.535058856010437,0.1089426204562187,0.732658326625824
2024-12-07 18:26:47.313645300,5.808645263671875,0.464266300201416,-0.1726471185684204,0.7476400136947632
2024-12-07 18:26:47.323619300,5.818619384765625,0.3463955819606781,-0.442623496055603,0.7612839341163635
2024-12-07 18:26:47.333592300,5.82859228515625,0.2072118520736694,-0.57442307472229,0.7583960294723511
2024-12-07 18:26:47.343566300,5.83856640625,0.107842668890953,-0.4885156452655792,0.7090194225311279
2024-12-07 18:26:47.353540400,5.848540283203125,0.0857090726494789,-0.2341407984495163,0.6233094334602356
2024-12-07 18:26:47.363514400,5.858514404296875,0.1235275566577911,0.1196827739477157,0.5412648916244507
2024-12-07 18:26:47.373488400,5.86848828125,0.2030740976333618,0.5318401455879211,0.5000293254852295
2024-12-07 18:26:47.383462400,5.87846240234375,0.3014006614685058,0.9034442901611328,0.4893993139266968
2024-12-07 18:26:47.393436400,5.8884365234375,0.3817106187343597,1.0856239795684814,0.4530542194843292
2024-12-07 18:26:47.403410400,5.898410400390625,0.3881440162658691,0.930984377861023,0.3587154448032379
2024-12-07 18:26:47.413384400,5.908384521484375,0.3210740387439728,0.5161939859390259,0.2145332247018814
2024-12-07 18:26:47.423357200,5.918357177734375,0.2438016235828399,0.0576802119612693,0.0784920305013656
2024-12-07 18:26:47.433331200,5.928331298828125,0.2170137763023376,-0.2849298417568207,-0.0005237334407866
2024-12-07 18:26:47.443305200,5.93830517578125,0.2317045778036117,-0.3612432777881622,-0.030257660895586
2024-12-07 18:26:47.453279200,5.948279296875,0.2463251799345016,-0.1765114367008209,-0.0300548393279314
2024-12-07 18:26:47.463253200,5.958253173828125,0.2248507887125015,0.1291235834360122,-0.0030597066506743
2024-12-07 18:26:47.473227300,5.968227294921875,0.1606903076171875,0.4192962050437927,0.028193462640047
2024-12-07 18:26:47.483201300,5.978201171875,0.0692392215132713,0.5848955512046814,0.0436339378356933
2024-12-07 18:26:47.493175300,5.98817529296875,-0.00772007368505,0.601193368434906,0.0249914024025201
2024-12-07 18:26:47.503149300,5.9981494140625,-0.0582610107958316,0.4926389157772064,-0.0300769098103046
2024-12-07 18:26:47.513122300,6.008122314453125,-0.0810672715306282,0.322210431098938,-0.1028740331530571
2024-12-07 18:26:47.523096300,6.018096435546875,-0.0941977202892303,0.1858797222375869,-0.169127881526947
2024-12-07 18:26:47.533070300,6.0280703125,-0.1132735386490821,0.130746841430664,-0.2244865149259567
2024-12-07 18:26:47.543044400,6.03804443359375,-0.1522116214036941,0.0877908617258071,-0.2543685138225555
2024-12-07 18:26:47.553018400,6.048018310546875,-0.2078243941068649,0.0238107629120349,-0.2787365913391113
2024-12-07 18:26:47.562992400,6.057992431640625,-0.2513955533504486,-0.0754452496767044,-0.3084558546543121
2024-12-07 18:26:47.572966400,6.06796630859375,-0.2822495400905609,-0.1905375272035598,-0.3344860374927521
2024-12-07 18:26:47.582940400,6.0779404296875,-0.3037287294864654,-0.2840829193592071,-0.3313640356063843
2024-12-07 18:26:47.592914400,6.08791455078125,-0.3191295862197876,-0.3745344281196594,-0.2983234822750091
2024-12-07 18:26:47.602887400,6.097887451171875,-0.3138791620731354,-0.4566881656646728,-0.2322539091110229
2024-12-07 18:26:47.612861400,6.107861328125,-0.2904719114303589,-0.4579954147338867,-0.1192992776632309
2024-12-07 18:26:47.622835500,6.11783544921875,-0.2386486679315567,-0.3076229691505432,0.0060370750725269
2024-12-07 18:26:47.632809500,6.1278095703125,-0.1430736780166626,-0.0916272848844528,0.0730850845575332
2024-12-07 18:26:47.642783500,6.137783447265625,-0.0017833854071795,0.0640003979206085,0.0193512812256813
2024-12-07 18:26:47.652757500,6.147757568359375,0.1776632517576217,0.2129760086536407,-0.143735870718956
2024-12-07 18:26:47.662731500,6.1577314453125,0.3790653347969055,0.4110944271087646,-0.3235421180725097
2024-12-07 18:26:47.672705500,6.16770556640625,0.5439928770065308,0.628862738609314,-0.4019170999526977
2024-12-07 18:26:47.682679300,6.17767919921875,0.5302813053131104,0.7699506282806396,-0.361209362745285
2024-12-07 18:26:47.692652500,6.187652587890625,0.3542259037494659,0.8932881355285645,-0.2789672911167145
2024-12-07 18:26:47.702626300,6.197626220703125,0.1635467708110809,0.988893747329712,-0.2611395418643951
2024-12-07 18:26:47.712600300,6.207600341796875,0.0782886669039726,0.7751742005348206,-0.3269524872303009
2024-12-07 18:26:47.722574300,6.21757421875,0.0523846372961998,0.2440560013055801,-0.4786637425422668
2024-12-07 18:26:47.732548400,6.22754833984375,-0.0123728206381201,-0.4772711396217346,-0.6128908395767212
2024-12-07 18:26:47.742522000,6.237522216796875,-0.1436767876148224,-1.0682158470153809,-0.6551685333251953
2024-12-07 18:26:47.752496000,6.24749609375,-0.2833338379859924,-1.3311213254928589,-0.6068284511566162
2024-12-07 18:26:47.762470100,6.25747021484375,-0.3772366344928741,-1.3261902332305908,-0.4978433847427368
2024-12-07 18:26:47.772443400,6.267443359375,-0.380740761756897,-1.1875783205032349,-0.3611197173595428
2024-12-07 18:26:47.782417400,6.27741748046875,-0.3007830679416656,-1.0210301876068115,-0.2296352088451385
2024-12-07 18:26:47.792391400,6.287391357421875,-0.197796955704689,-0.863431990146637,-0.1218098700046539
2024-12-07 18:26:47.802365200,6.297365234375,-0.1099880114197731,-0.7693313360214233,-0.061196856200695
2024-12-07 18:26:47.812339200,6.307339111328125,-0.0596316196024417,-0.7382074594497681,-0.0938968136906623
2024-12-07 18:26:47.822313200,6.317313232421875,-0.020930029451847,-0.7469834089279175,-0.2082966268062591
2024-12-07 18:26:47.832287200,6.327287353515625,0.0108174886554479,-0.7548064589500427,-0.3423349857330322
2024-12-07 18:26:47.842261200,6.33726123046875,0.0190708916634321,-0.7221092581748962,-0.4213248789310455
2024-12-07 18:26:47.852235300,6.3472353515625,0.0021342940162867,-0.6191920638084412,-0.413703978061676
2024-12-07 18:26:47.862208300,6.357208251953125,-0.0424084067344665,-0.4399125576019287,-0.3223860263824463
2024-12-07 18:26:47.872182300,6.367182373046875,-0.0988330021500587,-0.2254674583673477,-0.1595295965671539
2024-12-07 18:26:47.882156300,6.37715625,-0.1417056322097778,-0.0587541162967681,0.0303995944559574
2024-12-07 18:26:47.892130300,6.38713037109375,-0.1450438350439071,-0.0297139827162027,0.1801809221506118
2024-12-07 18:26:47.902104300,6.397104248046875,-0.1108762770891189,-0.1109270751476287,0.226981982588768
2024-12-07 18:26:47.912078300,6.407078369140625,-0.065254122018814,-0.1964380294084549,0.1535664498805999
2024-12-07 18:26:47.922052400,6.41705224609375,-0.0177414640784263,-0.2608819901943207,-0.0154811665415763
2024-12-07 18:26:47.932026400,6.4270263671875,0.0220282413065433,-0.2764367163181305,-0.1908780485391616
2024-12-07 18:26:47.942000400,6.43700048828125,0.0515184886753559,-0.2230358123779297,-0.3108305633068084
2024-12-07 18:26:47.951973400,6.446973388671875,0.0676125064492225,-0.1011503487825393,-0.353894978761673
2024-12-07 18:26:47.961947400,6.456947509765625,0.0760994702577591,0.0727905556559562,-0.3198749721050262
2024-12-07 18:26:47.971921400,6.46692138671875,0.0651645138859748,0.2608847916126251,-0.2281495183706283
2024-12-07 18:26:47.981895400,6.4768955078125,0.0300757735967636,0.392210841178894,-0.1225916594266891
2024-12-07 18:26:47.991869400,6.486869384765625,-0.0301149040460586,0.4423223733901977,-0.048694547265768
2024-12-07 18:26:48.001843500,6.496843505859375,-0.0901260375976562,0.4218439757823944,-0.0245932042598724
2024-12-07 18:26:48.011817500,6.5068173828125,-0.1361992359161377,0.3429487347602844,-0.058435246348381
2024-12-07 18:26:48.021791500,6.51679150390625,-0.1563388556241989,0.2305111587047577,-0.1414457112550735
2024-12-07 18:26:48.031765500,6.526765625,-0.1707823127508163,0.1119770482182502,-0.2492779344320297
2024-12-07 18:26:48.041738200,6.53673828125,-0.1876899302005767,0.0114150187000632,-0.352869838476181
2024-12-07 18:26:48.051712500,6.54671240234375,-0.1930133551359176,-0.05684694647789,-0.4392250478267669
2024-12-07 18:26:48.061686500,6.5566865234375,-0.1713312268257141,-0.1093144193291664,-0.4994130134582519
2024-12-07 18:26:48.071660500,6.56666064453125,-0.1458697170019149,-0.1563399285078048,-0.5238918662071228
2024-12-07 18:26:48.081634600,6.576634521484375,-0.1400360614061355,-0.205679252743721,-0.5003321766853333
2024-12-07 18:26:48.091608600,6.586608642578125,-0.1465733051300048,-0.224599078297615,-0.4517847299575805
2024-12-07 18:26:48.101582600,6.59658251953125,-0.1684567630290985,-0.2208232432603836,-0.3951414227485657
2024-12-07 18:26:48.111556600,6.606556640625,-0.1980390846729278,-0.2018576264381408,-0.3495247960090637
2024-12-07 18:26:48.121529600,6.616529541015625,-0.2165826708078384,-0.1689814329147339,-0.3311409950256347
2024-12-07 18:26:48.131503600,6.626503662109375,-0.2475251257419586,-0.169959545135498,-0.3209028542041778
2024-12-07 18:26:48.141477600,6.6364775390625,-0.2641882598400116,-0.1494446843862533,-0.3295866250991821
2024-12-07 18:26:48.151451600,6.64645166015625,-0.2890662848949432,-0.1096862033009529,-0.3441546857357025
2024-12-07 18:26:48.161425700,6.65642578125,-0.2968360781669616,-0.0653634816408157,-0.3521676063537597
2024-12-07 18:26:48.171399700,6.666399658203125,-0.290626585483551,-0.036494854837656,-0.3457847237586975
2024-12-07 18:26:48.181373700,6.676373779296875,-0.297461062669754,-0.0361758060753345,-0.3093521296977997
2024-12-07 18:26:48.191347700,6.68634765625,-0.2992500364780426,-0.052216175943613,-0.2553261518478393
2024-12-07 18:26:48.201321700,6.69632177734375,-0.2990034222602844,-0.0931926369667053,-0.2003161758184433
2024-12-07 18:26:48.211294700,6.706294677734375,-0.3018501400947571,-0.1326915323734283,-0.1490259021520614
2024-12-07 18:26:48.221268700,6.716268798828125,-0.3104502856731415,-0.1297250390052795,-0.1090939342975616
2024-12-07 18:26:48.231242800,6.72624267578125,-0.3097862303256988,-0.0882938280701637,-0.0726313069462776
2024-12-07 18:26:48.241216800,6.736216796875,-0.2921611666679382,-0.033246025443077,-0.0304148755967617
2024-12-07 18:26:48.251190800,6.746190673828125,-0.2579178214073181,0.0257528275251388,0.0211839154362678
2024-12-07 18:26:48.261164500,6.75616455078125,-0.2262554764747619,0.1033163219690322,0.0658563077449798
2024-12-07 18:26:48.271138600,6.766138671875,-0.2018917649984359,0.2153828591108322,0.0873606875538826
2024-12-07 18:26:48.281112600,6.776112548828125,-0.1945584863424301,0.3172796666622162,0.0807283520698547
2024-12-07 18:26:48.291085600,6.78608544921875,-0.1923956125974655,0.3795231282711029,0.0546692013740539
2024-12-07 18:26:48.301059600,6.7960595703125,-0.2098081558942794,0.4057105183601379,0.0301239136606454
2024-12-07 18:26:48.311033600,6.80603369140625,-0.2406846135854721,0.3861265778541565,0.0345476232469081
2024-12-07 18:26:48.321007600,6.816007568359375,-0.2719506621360779,0.3127421140670776,0.0763997361063957
2024-12-07 18:26:48.330981400,6.8259814453125,-0.2785539925098419,0.2108838558197021,0.1415733247995376
2024-12-07 18:26:48.340955400,6.835955322265625,-0.2662683129310608,0.121208019554615,0.1893192827701568
2024-12-07 18:26:48.350929400,6.845929443359375,-0.2399770766496658,0.0261696018278598,0.2145480662584304
2024-12-07 18:26:48.360903400,6.8559033203125,-0.1978703737258911,-0.0683550387620925,0.2087951153516769
2024-12-07 18:26:48.370877400,6.86587744140625,-0.1495374739170074,-0.1742224842309951,0.1888656020164489
2024-12-07 18:26:48.380850400,6.875850341796875,-0.0981201007962226,-0.2765240967273712,0.1766217201948166
2024-12-07 18:26:48.390824400,6.885824462890625,-0.0566739551723003,-0.3763329982757568,0.2187559008598327
2024-12-07 18:26:48.400798500,6.895798583984375,0.0025249198079109,-0.4246169030666351,0.3122765123844147
2024-12-07 18:26:48.410772500,6.9057724609375,0.0902912616729736,-0.3823463916778564,0.4112001061439514
2024-12-07 18:26:48.420746500,6.91574658203125,0.1830944418907165,-0.242826834321022,0.4819693565368652
2024-12-07 18:26:48.430720500,6.925720458984375,0.2640665769577026,-0.0157695524394512,0.5269982814788818
2024-12-07 18:26:48.440694500,6.935694580078125,0.3407504260540008,0.2612663209438324,0.55462646484375
2024-12-07 18:26:48.450668500,6.94566845703125,0.4091159999370575,0.5532765984535217,0.5947589874267578
2024-12-07 18:26:48.460641500,6.9556416015625,0.4826709032058716,0.8630179762840271,0.7018337249755859
2024-12-07 18:26:48.470615600,6.965615478515625,0.5758434534072876,1.1664913892745972,0.9365727305412292
2024-12-07 18:26:48.480589600,6.975589599609375,0.6711750030517578,1.4181777238845823,1.2275099754333496
2024-12-07 18:26:48.490563600,6.9855634765625,0.7214751243591309,1.556133270263672,1.4421542882919312
2024-12-07 18:26:48.500537600,6.99553759765625,0.6978840231895447,1.4974502325057983,1.529517650604248
2024-12-07 18:26:48.510511600,7.00551171875,0.6139775514602661,1.2269655466079712,1.5094319581985474
2024-12-07 18:26:48.520485600,7.015485595703125,0.5420434474945068,0.7007888555526733,1.4299097061157229
2024-12-07 18:26:48.530459600,7.025459716796875,0.4777152240276336,0.0625351071357727,1.3205710649490356
2024-12-07 18:26:48.540433700,7.03543359375,0.4101364314556122,-0.5039863586425781,1.1923973560333252
2024-12-07 18:26:48.550406700,7.04540673828125,0.3172131776809692,-0.9312691688537598,1.0475486516952517
2024-12-07 18:26:48.560380700,7.055380615234375,0.2435456216335296,-1.2245314121246338,0.8867048621177673
2024-12-07 18:26:48.570354700,7.065354736328125,0.2287297993898391,-1.440471053123474,0.7469626069068909
2024-12-07 18:26:48.580328700,7.07532861328125,0.2476603537797927,-1.4184911251068115,0.6503231525421143
2024-12-07 18:26:48.590302700,7.085302734375,0.263387382030487,-1.0469460487365725,0.5459491014480591
2024-12-07 18:26:48.600276700,7.09527685546875,0.2485024482011795,-0.3289453089237213,0.4257978796958923
2024-12-07 18:26:48.610250800,7.105250732421875,0.2418689280748367,0.6061892509460449,0.3380239307880401
2024-12-07 18:26:48.620224800,7.115224853515625,0.2921991944313049,1.4724748134613037,0.322937935590744
2024-12-07 18:26:48.630198500,7.125198486328125,0.3958345651626587,2.082909107208252,0.3999159932136535
2024-12-07 18:26:48.640171500,7.135171630859375,0.4940844476222992,2.413216590881348,0.5442255735397339
2024-12-07 18:26:48.650145500,7.1451455078125,0.5473451018333435,2.387245178222656,0.6746233701705933
2024-12-07 18:26:48.660119600,7.15511962890625,0.548951268196106,1.9545106887817385,0.6866632699966431
2024-12-07 18:26:48.670093600,7.165093505859375,0.5234819650650024,1.1564668416976929,0.5348449349403381
2024-12-07 18:26:48.680067600,7.175067626953125,0.4687899351119995,0.1555938720703125,0.284894198179245
2024-12-07 18:26:48.690041600,7.18504150390625,0.3990467190742492,-0.6983264088630676,0.0136204585433006
2024-12-07 18:26:48.700015600,7.195015625,0.3399325311183929,-1.171643614768982,-0.2140193581581115
2024-12-07 18:26:48.709989600,7.20498974609375,0.3091462254524231,-1.211764216423035,-0.3453579843044281
2024-12-07 18:26:48.719962600,7.214962646484375,0.2971934378147125,-0.9581630229949952,-0.3579347729682922
2024-12-07 18:26:48.729936600,7.2249365234375,0.2941204905509949,-0.5605690479278564,-0.2875964641571045
2024-12-07 18:26:48.739910700,7.23491064453125,0.2966718077659607,-0.1404268741607666,-0.1969030499458313
2024-12-07 18:26:48.749884700,7.244884765625,0.298041433095932,0.1635065823793411,-0.1352150440216064
2024-12-07 18:26:48.759858700,7.254858642578125,0.2853845059871673,0.2980614602565765,-0.1458296179771423
2024-12-07 18:26:48.769832700,7.264832763671875,0.2480591833591461,0.2851532399654388,-0.224965438246727
2024-12-07 18:26:48.779806700,7.274806640625,0.1945208609104156,0.2066355347633361,-0.3460729718208313
2024-12-07 18:26:48.789780700,7.28478076171875,0.134681835770607,0.1257569044828415,-0.4703146517276764
2024-12-07 18:26:48.799754500,7.29475439453125,0.0608275905251503,0.0329119153320789,-0.5753793120384216
2024-12-07 18:26:48.809727700,7.304727783203125,-0.0079079112038016,-0.0564319007098674,-0.643766462802887
2024-12-07 18:26:48.819701800,7.31470166015625,-0.0790585204958915,-0.1487019062042236,-0.6649575233459473
2024-12-07 18:26:48.829675800,7.32467578125,-0.1666216552257537,-0.21396504342556,-0.655113697052002
2024-12-07 18:26:48.839649800,7.33464990234375,-0.2481119781732559,-0.2300947457551956,-0.643665611743927
2024-12-07 18:26:48.849623800,7.344623779296875,-0.3229184150695801,-0.2135221660137176,-0.6452080011367798
2024-12-07 18:26:48.859597600,7.35459765625,-0.3910878896713257,-0.2322990447282791,-0.6583917140960693
2024-12-07 18:26:48.869571600,7.364571533203125,-0.4335394501686096,-0.3248576819896698,-0.6714871525764465
2024-12-07 18:26:48.879545600,7.374545654296875,-0.4527309834957123,-0.4697421789169311,-0.6570504307746887
2024-12-07 18:26:48.889518600,7.3845185546875,-0.4514245092868805,-0.5875788331031799,-0.5877271890640259
2024-12-07 18:26:48.899492600,7.39449267578125,-0.4360226690769195,-0.6275318264961243,-0.4705305099487304
2024-12-07 18:26:48.909466600,7.404466552734375,-0.4017269611358642,-0.5999435186386108,-0.3441104590892792
2024-12-07 18:26:48.919440400,7.4144404296875,-0.3669282495975494,-0.5957253575325012,-0.2577372193336487
2024-12-07 18:26:48.929414400,7.424414306640625,-0.3225750029087066,-0.6926743388175964,-0.1867671310901641
2024-12-07 18:26:48.939388400,7.434388427734375,-0.2319939881563186,-0.7401291728019714,-0.0856154784560203
2024-12-07 18:26:48.949362400,7.444362548828125,-0.0677271038293838,-0.5040868520736694,0.0310782119631767
2024-12-07 18:26:48.959336400,7.45433642578125,0.1523032635450363,-0.0229276940226554,0.0874277725815773
2024-12-07 18:26:48.969310500,7.464310546875,0.3122411370277405,0.5235680341720581,0.0326473116874694
2024-12-07 18:26:48.979283500,7.474283447265625,0.3324087262153625,1.041439175605774,-0.1265077143907547
2024-12-07 18:26:48.989257500,7.484257568359375,0.258921205997467,1.3731777667999268,-0.2910049259662628
2024-12-07 18:26:48.999231500,7.4942314453125,0.1773831993341446,1.3208556175231934,-0.3407005667686462
2024-12-07 18:26:49.009205500,7.50420556640625,0.0977290347218513,0.9887924790382384,-0.306111991405487
2024-12-07 18:26:49.019179500,7.514179443359375,-0.005433302372694,0.5935937762260437,-0.2810045182704925
2024-12-07 18:26:49.029153500,7.524153564453125,-0.119724117219448,0.2483249902725219,-0.2912956178188324
2024-12-07 18:26:49.039127600,7.53412744140625,-0.2108609676361084,0.0966987162828445,-0.2764676511287689
2024-12-07 18:26:49.049101300,7.544101318359375,-0.2503411173820495,0.0592026636004447,-0.214640587568283
2024-12-07 18:26:49.059074300,7.55407421875,-0.2524554133415222,-0.0461597107350826,-0.1188725233078002
2024-12-07 18:26:49.069048300,7.56404833984375,-0.2440119087696075,-0.2943263053894043,-0.031218197196722
2024-12-07 18:26:49.079022300,7.574022216796875,-0.259778082370758,-0.5763779878616333,0.0085902027785778
2024-12-07 18:26:49.088996400,7.583996337890625,-0.2872025370597839,-0.763853132724762,-0.01036471221596
2024-12-07 18:26:49.098970400,7.593970458984375,-0.2980772852897644,-0.8814883828163147,-0.0936353653669357
2024-12-07 18:26:49.108944400,7.6039443359375,-0.2651580572128296,-0.9893909692764282,-0.2144142091274261
2024-12-07 18:26:49.118918400,7.61391845703125,-0.1908761113882064,-1.0927367210388184,-0.3351949453353882
2024-12-07 18:26:49.128892400,7.623892333984375,-0.1154221445322036,-1.1193701028823853,-0.4301733374595642
2024-12-07 18:26:49.138866400,7.633866455078125,-0.0751644745469093,-1.0489331483840942,-0.4854437708854675
2024-12-07 18:26:49.148839400,7.64383935546875,-0.084959790110588,-0.8932532072067261,-0.4869714379310608
2024-12-07 18:26:49.158813400,7.6538134765625,-0.1273221671581268,-0.6721956729888916,-0.4205295443534851
2024-12-07 18:26:49.168787500,7.663787353515625,-0.1618914157152176,-0.3850461840629577,-0.3072857856750488
2024-12-07 18:26:49.178761500,7.673761474609375,-0.151600956916809,-0.1182754784822464,-0.1807805597782135
2024-12-07 18:26:49.188735500,7.683735595703125,-0.0922925546765327,0.0753613114356994,-0.0965207368135452
2024-12-07 18:26:49.198709500,7.69370947265625,-0.0273268707096576,0.163503423333168,-0.0852166786789894
2024-12-07 18:26:49.208683500,7.70368359375,0.0106206266209483,0.1300725936889648,-0.1448181271553039
2024-12-07 18:26:49.218657500,7.713657470703125,0.0155922146514058,0.0370670109987258,-0.2491570562124252
2024-12-07 18:26:49.228630500,7.723630615234375,-0.0004218080430291,-0.0436469875276088,-0.365026444196701
2024-12-07 18:26:49.238604500,7.7336044921875,-0.0257268995046615,-0.0798015370965004,-0.4595710635185241
2024-12-07 18:26:49.248578600,7.74357861328125,-0.0582884438335895,-0.1207339316606521,-0.4966132044792175
2024-12-07 18:26:49.258552600,7.753552490234375,-0.1032268926501274,-0.119208738207817,-0.4638619124889374
2024-12-07 18:26:49.268526600,7.763526611328125,-0.1419652551412582,-0.0754232406616211,-0.3907026052474975
2024-12-07 18:26:49.278500600,7.77350048828125,-0.1702259182929992,-0.0748312175273895,-0.2995662987232208
2024-12-07 18:26:49.288474600,7.783474609375,-0.162924587726593,-0.1666359603404998,-0.2442434728145599
2024-12-07 18:26:49.298448600,7.79344873046875,-0.1477743983268737,-0.286996454000473,-0.2448011338710785
2024-12-07 18:26:49.308422700,7.803422607421875,-0.129502072930336,-0.4286965429782867,-0.2926172316074371
2024-12-07 18:26:49.318395400,7.8133955078125,-0.1163561716675758,-0.5617920160293579,-0.360512375831604
2024-12-07 18:26:49.328369400,7.823369384765625,-0.116732470691204,-0.6698547601699829,-0.4171317815780639
2024-12-07 18:26:49.338343400,7.833343505859375,-0.13161101937294,-0.7157442569732666,-0.4372532963752746
2024-12-07 18:26:49.348317400,7.8433173828125,-0.1388952583074569,-0.6836320161819458,-0.4233965873718261
2024-12-07 18:26:49.358291500,7.85329150390625,-0.1429491192102432,-0.5873390436172485,-0.3704974353313446
2024-12-07 18:26:49.368265500,7.863265380859375,-0.1461426615715026,-0.4599140882492065,-0.2947451174259186
2024-12-07 18:26:49.378239500,7.873239501953125,-0.1449980288743972,-0.3259762525558471,-0.2173459380865097
2024-12-07 18:26:49.388213500,7.883213623046875,-0.1406521946191787,-0.2123469114303589,-0.1577843129634857
2024-12-07 18:26:49.398186500,7.8931865234375,-0.1419299840927124,-0.1319687217473983,-0.1214915513992309
2024-12-07 18:26:49.408160500,7.903160400390625,-0.1494513750076294,-0.0858997851610183,-0.1050949543714523
2024-12-07 18:26:49.418134500,7.913134521484375,-0.1656617671251297,-0.0536497049033641,-0.1009518802165985
2024-12-07 18:26:49.431225600,7.9262255859375,-0.1706173717975616,0.0081915883347392,-0.1200715750455856
2024-12-07 18:26:49.441199600,7.93619970703125,-0.1821582615375518,0.0915112569928169,-0.1193863674998283
2024-12-07 18:26:49.451173600,7.946173583984375,-0.189749076962471,0.2060109376907348,-0.0987079888582229
2024-12-07 18:26:49.461147600,7.956147705078125,-0.1931369602680206,0.3106734454631805,-0.0371026918292045
2024-12-07 18:26:49.471121700,7.96612158203125,-0.1678411960601806,0.3846794962882995,0.0464268215000629
2024-12-07 18:26:49.481095700,7.976095703125,-0.1197008490562439,0.4317039251327514,0.121807724237442
2024-12-07 18:26:49.491068400,7.986068359375,-0.0858193188905716,0.4688960313796997,0.1534492671489715
2024-12-07 18:26:49.501042400,7.99604248046875,-0.0784765779972076,0.5147859454154968,0.13603375852108
2024-12-07 18:26:49.511016400,8.006016357421874,-0.0947815105319023,0.5811820030212402,0.0879277437925338
2024-12-07 18:26:49.520990500,8.015990478515626,-0.1187561079859733,0.636582612991333,0.0414186902344226
2024-12-07 18:26:49.530964500,8.025964599609376,-0.1468170434236526,0.663705587387085,0.025175005197525
2024-12-07 18:26:49.540938500,8.0359384765625,-0.1760903894901275,0.6415918469429016,0.045630045235157
2024-12-07 18:26:49.550912300,8.045912353515625,-0.1973211020231247,0.5824446082115173,0.0909077823162078
2024-12-07 18:26:49.560886300,8.05588623046875,-0.2133782505989074,0.5071669220924377,0.1612492054700851
2024-12-07 18:26:49.570859500,8.065859619140625,-0.2362574785947799,0.4795872569084167,0.231496199965477
2024-12-07 18:26:49.580833500,8.07583349609375,-0.2543781995773315,0.4849211871623993,0.2991673350334167
2024-12-07 18:26:49.590807600,8.0858076171875,-0.2589412629604339,0.5114417672157288,0.3403882682323456
2024-12-07 18:26:49.600781600,8.095781494140626,-0.2436835318803787,0.5289137959480286,0.3460075855255127
2024-12-07 18:26:49.610755300,8.10575537109375,-0.2115937620401382,0.5274139046669006,0.315641701221466
2024-12-07 18:26:49.620729300,8.115729248046875,-0.1802824139595031,0.529082179069519,0.2547368705272674
2024-12-07 18:26:49.630703400,8.125703369140625,-0.1507828384637832,0.54925537109375,0.1671628206968307
2024-12-07 18:26:49.640677400,8.135677490234375,-0.0984741374850273,0.5258988738059998,0.0909745097160339
2024-12-07 18:26:49.650651400,8.1456513671875,-0.0334005951881408,0.4720918238162994,0.051599133759737
2024-12-07 18:26:49.660624400,8.155624267578125,0.0224861167371273,0.4495092928409576,0.0448836386203765
2024-12-07 18:26:49.670598400,8.165598388671874,0.0697178095579147,0.4635476171970367,0.07173603028059
2024-12-07 18:26:49.680572400,8.175572509765624,0.1207383126020431,0.478489875793457,0.1208994910120964
2024-12-07 18:26:49.690546400,8.18554638671875,0.1700038611888885,0.4942565858364105,0.1823785603046417
2024-12-07 18:26:49.700520400,8.1955205078125,0.2170532643795013,0.4943690896034241,0.2565186023712158
2024-12-07 18:26:49.710494500,8.205494384765625,0.26283860206604,0.5008684992790222,0.3348224759101867
2024-12-07 18:26:49.720468500,8.215468505859375,0.3077399730682373,0.5220639109611511,0.4104717373847961
2024-12-07 18:26:49.730442500,8.2254423828125,0.3597081005573272,0.5444285869598389,0.4804731905460357
2024-12-07 18:26:49.740415500,8.23541552734375,0.427281379699707,0.5742529034614563,0.5580266118049622
2024-12-07 18:26:49.750389500,8.245389404296875,0.5061237215995789,0.6522670388221741,0.6778709888458252
2024-12-07 18:26:49.760987600,8.255987548828125,0.6293601989746094,0.74358069896698,0.9137498736381532
2024-12-07 18:26:49.770961400,8.26596142578125,0.7587689161300659,0.760746419429779,1.154679298400879
2024-12-07 18:26:49.780934700,8.2759345703125,0.831534743309021,0.6467263698577881,1.3186904191970823
2024-12-07 18:26:49.790908700,8.28590869140625,0.8115655183792114,0.4945522248744964,1.3928487300872805
2024-12-07 18:26:49.800882700,8.295882568359374,0.7155886888504028,0.2999135255813598,1.3982661962509155
2024-12-07 18:26:49.810856700,8.305856689453124,0.6127671599388123,0.0204651318490505,1.334908962249756
2024-12-07 18:26:49.820830500,8.31583056640625,0.5483799576759338,-0.2075089067220688,1.216990351676941
2024-12-07 18:26:49.830804500,8.325804443359376,0.4991127252578735,-0.3526501357555389,1.0881202220916748
2024-12-07 18:26:49.840778500,8.335778564453125,0.4694616198539734,-0.4354983866214752,0.9997079968452454
2024-12-07 18:26:49.850752300,8.345752197265625,0.431646853685379,-0.3181907832622528,0.928156554698944
2024-12-07 18:26:49.860726300,8.355726318359375,0.4033637940883636,0.0272390581667423,0.8453149795532227
2024-12-07 18:26:49.870699500,8.365699462890625,0.37348273396492,0.4852786660194397,0.7573640942573547
2024-12-07 18:26:49.880673500,8.375673583984375,0.3466319441795349,0.9253657460212708,0.6717442274093628
2024-12-07 18:26:49.890647300,8.385647216796874,0.3420152068138122,1.22132670879364,0.601333498954773
2024-12-07 18:26:49.900621300,8.395621337890624,0.3383919596672058,1.2785471677780151,0.5500447750091553
2024-12-07 18:26:49.910595300,8.40559521484375,0.3220353424549103,1.09501850605011,0.4917649328708648
2024-12-07 18:26:49.920569300,8.4155693359375,0.2833281457424164,0.7373058199882507,0.4191844761371612
2024-12-07 18:26:49.930543400,8.42554345703125,0.2220701724290847,0.3342328071594238,0.3368366062641144
2024-12-07 18:26:49.940517400,8.435517333984375,0.1981885433197021,-0.0816861242055893,0.2260991930961609
2024-12-07 18:26:49.950490400,8.445490478515625,0.2136586308479309,-0.3469500839710235,0.1161645799875259
2024-12-07 18:26:49.960464400,8.45546435546875,0.2181884050369262,-0.4083524644374847,0.0283532328903675
2024-12-07 18:26:49.970438400,8.4654384765625,0.1780087053775787,-0.3254012763500213,-0.0353700332343578
2024-12-07 18:26:49.980412400,8.475412353515624,0.1143828630447387,-0.1714830994606018,-0.0809606835246086
2024-12-07 18:26:49.990386400,8.485386474609374,0.0563559755682945,-0.0225228257477283,-0.1177276298403739
2024-12-07 18:26:50.000360400,8.4953603515625,0.0213852077722549,0.1152848452329635,-0.1670863926410675
2024-12-07 18:26:50.010334500,8.50533447265625,-0.0004674625815823,0.1970638036727905,-0.2220653891563415
2024-12-07 18:26:50.020308500,8.51530859375,-0.0416923947632312,0.21152263879776,-0.2960333526134491
2024-12-07 18:26:50.030282500,8.525282470703125,-0.1071935147047042,0.1924289911985397,-0.3863845765590668
2024-12-07 18:26:50.040255500,8.53525537109375,-0.1748766750097274,0.1516083180904388,-0.476139485836029
2024-12-07 18:26:50.050230000,8.54522998046875,-0.219617486000061,0.0875413119792938,-0.5430564880371094
2024-12-07 18:26:50.060204000,8.5552041015625,-0.2322248816490173,0.0274058021605014,-0.5917582511901855
2024-12-07 18:26:50.070178000,8.565177978515624,-0.2332197278738021,-0.0311698354780673,-0.6360059380531311
2024-12-07 18:26:50.080152000,8.575152099609374,-0.2529263198375702,-0.1247461214661598,-0.6580001711845398
2024-12-07 18:26:50.090126000,8.5851259765625,-0.2910812497138977,-0.2620389759540558,-0.6805189251899719
2024-12-07 18:26:50.100100000,8.59510009765625,-0.3267833292484283,-0.348585844039917,-0.7233167290687561
2024-12-07 18:26:50.110074000,8.60507421875,-0.361014574766159,-0.352234274148941,-0.7793540358543396
2024-12-07 18:26:50.120048000,8.615048095703125,-0.4074787497520447,-0.3026715219020843,-0.8267835974693298
2024-12-07 18:26:50.130021000,8.625021240234375,-0.4663091897964477,-0.2466779947280883,-0.8495851755142212
2024-12-07 18:26:50.139995100,8.6349951171875,-0.5332486033439636,-0.2220584005117416,-0.8256718516349792
2024-12-07 18:26:50.149969200,8.64496923828125,-0.5747648477554321,-0.2385878413915634,-0.7449970245361328
2024-12-07 18:26:50.159943200,8.654943115234374,-0.5717238187789917,-0.2761149704456329,-0.6209429502487183
2024-12-07 18:26:50.169917200,8.664917236328124,-0.5247533917427063,-0.3327243626117706,-0.4827995896339416
2024-12-07 18:26:50.179891200,8.67489111328125,-0.4145757853984833,-0.3893066942691803,-0.3339144885540008
2024-12-07 18:26:50.189865200,8.684865234375,-0.2365272939205169,-0.4006717503070831,-0.1655177474021911
2024-12-07 18:26:50.199839200,8.694839111328125,-0.0058613317087292,-0.2818899750709533,0.0165506023913621
2024-12-07 18:26:50.209812200,8.704812255859375,0.2302353382110595,0.0152782797813415,0.1390158683061599
2024-12-07 18:26:50.219786200,8.7147861328125,0.4118163287639618,0.4308760166168213,0.1368006467819214
2024-12-07 18:26:50.229760300,8.72476025390625,0.4943351447582245,0.8381382822990417,0.0256162025034427
2024-12-07 18:26:50.239734300,8.734734375,0.4750874042510986,1.0722383260726929,-0.1002202853560447
2024-12-07 18:26:50.249708300,8.744708251953124,0.4229606091976166,1.035318374633789,-0.1714662909507751
2024-12-07 18:26:50.259682300,8.754682373046874,0.376042902469635,0.8213841915130615,-0.2162721157073974
2024-12-07 18:26:50.269656000,8.764656005859376,0.2866334617137909,0.5385341048240662,-0.2898375391960144
2024-12-07 18:26:50.279630000,8.774630126953125,0.1236096620559692,0.195003867149353,-0.4132665395736694
2024-12-07 18:26:50.289604000,8.78460400390625,-0.0766495168209075,-0.2519138157367706,-0.5496617555618286
2024-12-07 18:26:50.299577300,8.794577392578125,-0.2660162448883056,-0.5562023520469666,-0.5862887501716614
2024-12-07 18:26:50.309551400,8.80455126953125,-0.3906647861003876,-0.5399706363677979,-0.4779052436351776
2024-12-07 18:26:50.319525000,8.814525146484375,-0.4534477591514587,-0.3452586829662323,-0.3134678304195404
2024-12-07 18:26:50.329499100,8.8244990234375,-0.4827315211296081,-0.1705438494682312,-0.1307249516248703
2024-12-07 18:26:50.339473200,8.83447314453125,-0.4824468195438385,-0.1314675509929657,0.0450793728232383
2024-12-07 18:26:50.349447200,8.844447265625,-0.4635747075080871,-0.2076153755187988,0.1400973498821258
2024-12-07 18:26:50.359421200,8.854421142578126,-0.4268853962421417,-0.3456661701202392,0.0992891862988472
2024-12-07 18:26:50.369395200,8.864395263671875,-0.3672500252723694,-0.5257480144500732,-0.0569577924907207
2024-12-07 18:26:50.379369000,8.874368896484375,-0.2872499823570251,-0.716752290725708,-0.2629154920578003
2024-12-07 18:26:50.389342000,8.884342041015625,-0.2068304717540741,-0.8662729859352112,-0.4476229548454284
2024-12-07 18:26:50.399316000,8.89431591796875,-0.1285788118839264,-0.9244116544723512,-0.5471106767654419
2024-12-07 18:26:50.409290000,8.9042900390625,-0.0635804012417793,-0.9094959497451782,-0.5339858531951904
2024-12-07 18:26:50.419264000,8.914263916015624,-0.0265395604074001,-0.8632009029388428,-0.4336848258972168
2024-12-07 18:26:50.429238000,8.924238037109374,-0.0268806107342243,-0.8207513689994812,-0.2924090623855591
2024-12-07 18:26:50.439212000,8.9342119140625,-0.0519934184849262,-0.8082049489021301,-0.1776017546653747
2024-12-07 18:26:50.449186000,8.94418603515625,-0.0776431486010551,-0.8108381032943726,-0.1280590593814849
2024-12-07 18:26:50.459160000,8.95416015625,-0.0763712227344513,-0.8172001242637634,-0.1557934731245041
2024-12-07 18:26:50.469133000,8.964133056640625,-0.0491981953382492,-0.7841444611549377,-0.2179899960756302
2024-12-07 18:26:50.479107000,8.974107177734375,-0.0197766572237014,-0.6803600192070007,-0.2876662909984588
2024-12-07 18:26:50.489081000,8.9840810546875,0.0017070260364562,-0.5363157987594604,-0.3222115337848663
2024-12-07 18:26:50.499055000,8.99405517578125,0.0002337654586881,-0.3812783062458038,-0.3079063594341278
2024-12-07 18:26:50.509029000,9.004029052734374,-0.0212487373501062,-0.2035771161317825,-0.2510197758674621
2024-12-07 18:26:50.519003100,9.014003173828126,-0.0595886707305908,-0.0269570685923099,-0.1828415095806121
2024-12-07 18:26:50.528977200,9.02397705078125,-0.0959207266569137,0.1169389337301254,-0.1308277547359466
2024-12-07 18:26:50.538951200,9.033951171875,-0.1107542663812637,0.1609998643398285,-0.1184075698256492
2024-12-07 18:26:50.548925200,9.04392529296875,-0.1066885516047477,0.0688674300909042,-0.1473524272441864
2024-12-07 18:26:50.558898200,9.053898193359377,-0.1007875204086303,-0.1414154917001724,-0.2003892809152603
2024-12-07 18:26:50.568872200,9.0638720703125,-0.106174886226654,-0.402918666601181,-0.2820262312889099
2024-12-07 18:26:50.578846200,9.07384619140625,-0.1212560981512069,-0.651089072227478,-0.3757924139499664
2024-12-07 18:26:50.588820200,9.0838203125,-0.1577421873807907,-0.8392711877822876,-0.4625298380851745
2024-12-07 18:26:50.598794200,9.093794189453124,-0.1886947751045227,-0.9442798495292664,-0.526160478591919
2024-12-07 18:26:50.608768300,9.103768310546876,-0.2147214263677597,-0.9610253572463988,-0.5534458160400391
2024-12-07 18:26:50.618742300,9.1137421875,-0.2127656042575836,-0.9084692001342772,-0.5541555285453796
2024-12-07 18:26:50.628716300,9.12371630859375,-0.2007177323102951,-0.7568756341934204,-0.5328856110572815
2024-12-07 18:26:50.638690300,9.133690185546875,-0.1948952674865722,-0.6129656434059143,-0.4894318878650665
2024-12-07 18:26:50.648663000,9.1436630859375,-0.2023558318614959,-0.5250160098075867,-0.4325356483459472
2024-12-07 18:26:50.658637000,9.153636962890625,-0.2187411934137344,-0.5001908540725708,-0.3840903639793396
2024-12-07 18:26:50.668611000,9.163611083984376,-0.2249975502490997,-0.5056068301200867,-0.3796728849411011
2024-12-07 18:26:50.678585000,9.173585205078124,-0.2378331869840622,-0.5109975934028625,-0.409829169511795
2024-12-07 18:26:50.688559000,9.18355908203125,-0.2450172752141952,-0.5267354249954224,-0.4513820111751556
2024-12-07 18:26:50.698533000,9.193533203125,-0.2619645595550537,-0.5423207879066467,-0.474363774061203
2024-12-07 18:26:50.708507100,9.203507080078126,-0.2785500288009643,-0.4959101378917694,-0.4864765703678131
2024-12-07 18:26:50.718481200,9.213481201171875,-0.2961391508579254,-0.375269204378128,-0.4772351086139679
2024-12-07 18:26:50.728454100,9.2234541015625,-0.2883813083171844,-0.1843023300170898,-0.4475339651107788
2024-12-07 18:26:50.738428200,9.23342822265625,-0.265472263097763,0.0305900052189826,-0.3857398331165313
2024-12-07 18:26:50.748402200,9.243402099609376,-0.2325444668531417,0.2446616888046264,-0.3160715401172638
2024-12-07 18:26:50.758376200,9.253376220703124,-0.2056223005056381,0.4528779983520508,-0.2376978993415832
2024-12-07 18:26:50.768350200,9.26335009765625,-0.1747496426105499,0.6212167739868164,-0.1746965795755386
2024-12-07 18:26:50.778324200,9.27332421875,-0.1578984856605529,0.7173105478286743,-0.1039422452449798
2024-12-07 18:26:50.788298200,9.28329833984375,-0.1495201587677002,0.7562122941017151,-0.0290807113051414
2024-12-07 18:26:50.798272300,9.293272216796876,-0.1361947655677795,0.7379826903343201,0.0308052599430084
2024-12-07 18:26:50.808246000,9.30324609375,-0.1336020976305008,0.6506887674331665,0.0902502387762069
2024-12-07 18:26:50.818219300,9.31321923828125,-0.1412275284528732,0.5405577421188354,0.120887242257595
2024-12-07 18:26:50.828193300,9.323193359375,-0.1556547284126281,0.4322540163993835,0.1167854964733123
2024-12-07 18:26:50.838167300,9.333167236328125,-0.1685153990983963,0.3425236046314239,0.0876979157328605
2024-12-07 18:26:50.848141300,9.343141357421874,-0.1672990769147873,0.2884000837802887,0.0366668999195098
2024-12-07 18:26:50.858115000,9.353114990234374,-0.1308920681476593,0.1907070726156234,-0.0026932882610708
2024-12-07 18:26:50.868089000,9.363089111328126,-0.0956951677799224,0.0894127339124679,-0.0238138865679502
2024-12-07 18:26:50.878063000,9.37306298828125,-0.0559751838445663,-0.0188735257834196,0.0211187005043029
2024-12-07 18:26:50.888037000,9.383037109375,0.0110287191346287,-0.1109019294381141,0.1423137336969375
2024-12-07 18:26:50.898011100,9.39301123046875,0.0935771241784095,-0.1279632002115249,0.2838093340396881
2024-12-07 18:26:50.907984400,9.402984375,0.1988232135772705,-0.1041020601987838,0.4275265336036682
2024-12-07 18:26:50.917958100,9.412958251953125,0.2958080768585205,-0.0283676162362098,0.5222117304801941
2024-12-07 18:26:50.927932000,9.422931884765624,0.3658830225467682,0.0914098471403122,0.5597475171089172
2024-12-07 18:26:50.937906000,9.432906005859374,0.4036013782024383,0.2528922259807586,0.5567101836204529
2024-12-07 18:26:50.947880000,9.4428798828125,0.4282900989055633,0.4363437294960022,0.5510814785957336
2024-12-07 18:26:50.957854000,9.45285400390625,0.4555747210979461,0.6443834900856018,0.571975588798523
2024-12-07 18:26:50.967828000,9.462827880859376,0.4961441457271576,0.8886160850524902,0.6566173434257507
2024-12-07 18:26:50.977802000,9.472802001953124,0.5714583396911621,1.1829748153686523,0.876351535320282
2024-12-07 18:26:50.987776000,9.48277587890625,0.7059540152549744,1.5321027040481567,1.248847246170044
2024-12-07 18:26:50.997749000,9.4927490234375,0.8323127627372742,1.876007080078125,1.5831022262573242
2024-12-07 18:26:51.007723000,9.502722900390625,0.8740924596786499,2.0810816287994385,1.739736557006836
2024-12-07 18:26:51.017697000,9.512697021484374,0.8228644132614136,1.9437508583068848,1.706189751625061
2024-12-07 18:26:51.027671000,9.522671142578124,0.7115331888198853,1.3254305124282837,1.5509151220321655
2024-12-07 18:26:51.037645000,9.53264501953125,0.6358469128608704,0.4235173761844635,1.3835002183914185
2024-12-07 18:26:51.047619000,9.542619140625,0.5675832033157349,-0.4668453633785248,1.2682424783706665
2024-12-07 18:26:51.057592300,9.55259228515625,0.4308818280696869,-1.2446160316467283,1.1852900981903076
2024-12-07 18:26:51.067566300,9.56256640625,0.215288758277893,-1.7817448377609253,1.059734344482422
2024-12-07 18:26:51.077539300,9.572539306640625,-0.0094844354316592,-1.9489223957061768,0.8730559945106506
2024-12-07 18:26:51.087513300,9.582513427734376,-0.1537710279226303,-1.7711529731750488,0.6829083561897278
2024-12-07 18:26:51.097487400,9.5924873046875,-0.1698008626699447,-1.3020347356796265,0.5613324046134949
2024-12-07 18:26:51.107461400,9.60246142578125,-0.065567523241043,-0.5032031536102295,0.5136257410049438
2024-12-07 18:26:51.117435400,9.612435302734376,0.1112024560570716,0.4155778586864471,0.5475765466690063
2024-12-07 18:26:51.127409400,9.622409423828126,0.2645446062088012,1.259040355682373,0.6543660163879395
2024-12-07 18:26:51.137383400,9.632383544921876,0.3573791980743408,1.7100470066070557,0.7364460229873657
2024-12-07 18:26:51.147357400,9.642357421875,0.3689475953578949,1.6114561557769775,0.6639850735664368
2024-12-07 18:26:51.157331500,9.65233154296875,0.3017531335353851,1.104731202125549,0.4248204529285431
2024-12-07 18:26:51.167304400,9.662304443359377,0.2183555960655212,0.4917433857917785,0.1210908889770507
2024-12-07 18:26:51.177278500,9.672278564453125,0.1959765255451202,-0.0708384737372398,-0.1446329355239868
2024-12-07 18:26:51.187252500,9.68225244140625,0.2157934010028839,-0.3282078802585602,-0.3327153921127319
2024-12-07 18:26:51.197226500,9.6922265625,0.241373598575592,-0.248439535498619,-0.4352646768093109
2024-12-07 18:26:51.207200500,9.702200439453126,0.2597808837890625,0.0249599162489175,-0.4565422832965851
2024-12-07 18:26:51.217174500,9.712174560546876,0.2706300914287567,0.3265756964683532,-0.4339410960674286
2024-12-07 18:26:51.227148500,9.7221484375,0.2434549480676651,0.523736834526062,-0.4057539105415344
2024-12-07 18:26:51.237122600,9.73212255859375,0.1613885760307312,0.5668898820877075,-0.4109455049037933
2024-12-07 18:26:51.247096600,9.7420966796875,0.0507066771388053,0.4725443422794342,-0.461807370185852
2024-12-07 18:26:51.257069600,9.752069580078125,-0.0429947786033153,0.2630779445171356,-0.5551279783248901
2024-12-07 18:26:51.267043600,9.762043701171876,-0.0992763265967369,0.0151805896311998,-0.6416819095611572
2024-12-07 18:26:51.277017300,9.772017333984374,-0.1227321177721023,-0.2019250988960266,-0.7083985805511475
2024-12-07 18:26:51.286991400,9.781991455078124,-0.1495339572429657,-0.362127423286438,-0.7472301125526428
2024-12-07 18:26:51.296965400,9.79196533203125,-0.219500258564949,-0.5458914041519165,-0.7603775858879089
2024-12-07 18:26:51.306939400,9.801939453125,-0.3154178559780121,-0.8208336234092712,-0.7596423029899597
2024-12-07 18:26:51.316913400,9.811913330078124,-0.4160680472850799,-1.1226725578308103,-0.748339056968689
2024-12-07 18:26:51.326887400,9.821887451171875,-0.5168128609657288,-1.3403306007385254,-0.7245590090751648
2024-12-07 18:26:51.336860400,9.8318603515625,-0.5991018414497375,-1.375401258468628,-0.636620044708252
2024-12-07 18:26:51.346834400,9.84183447265625,-0.59013432264328,-1.141005039215088,-0.4221792221069336
2024-12-07 18:26:51.356808400,9.851808349609374,-0.4235450625419616,-0.6264809966087341,-0.0150883942842483
2024-12-07 18:26:51.366782500,9.861782470703124,-0.0940372869372367,0.1144426465034484,0.5031406283378601
2024-12-07 18:26:51.376756500,9.871756591796874,0.2657632231712341,0.9586018323898317,0.8697889447212219
2024-12-07 18:26:51.386730500,9.88173046875,0.5323330760002136,1.7516661882400513,0.9373379349708556
2024-12-07 18:26:51.396704500,9.89170458984375,0.562565803527832,2.273951768875122,0.6940504312515259
2024-12-07 18:26:51.406678500,9.901678466796875,0.3825609982013702,2.326005458831787,0.2494840621948242
2024-12-07 18:26:51.416652500,9.911652587890623,0.1532154381275177,1.7812340259552002,-0.0694342702627182
2024-12-07 18:26:51.426625500,9.92162548828125,-0.0759714320302009,0.9601841568946838,-0.1799178421497345
2024-12-07 18:26:51.436599600,9.931599609375,-0.2266914248466491,0.2745408415794372,-0.2302097678184509
2024-12-07 18:26:51.446573600,9.941573486328124,-0.2723821401596069,-0.3275684416294098,-0.3594434261322021
2024-12-07 18:26:51.456547600,9.951547607421874,-0.2531245350837707,-0.9528656005859376,-0.5667665600776672
2024-12-07 18:26:51.466521600,9.961521484375,-0.2973968088626861,-1.302685260772705,-0.6655217409133911
2024-12-07 18:26:51.476495600,9.97149560546875,-0.3803401589393616,-1.2444424629211426,-0.5712178945541382
2024-12-07 18:26:51.486469600,9.9814697265625,-0.427170068025589,-0.9908941388130188,-0.3542155027389526
2024-12-07 18:26:51.496443400,9.991443359375,-0.3867957592010498,-0.7667851448059082,-0.1203521415591239
2024-12-07 18:26:51.506417400,10.00141748046875,-0.2805867195129394,-0.595492959022522,0.0439546406269073
2024-12-07 18:26:51.516390700,10.011390625,-0.1718157976865768,-0.4015306830406189,0.0761900767683982
2024-12-07 18:26:51.526364700,10.02136474609375,-0.0768152475357055,-0.136904090642929,-0.0655311048030853
2024-12-07 18:26:51.536338700,10.031338623046874,0.0130749652162194,0.1063549071550369,-0.3234340250492096
2024-12-07 18:26:51.546312400,10.0413125,0.0983160063624382,0.1428780406713485,-0.4939940571784973
2024-12-07 18:26:51.556286500,10.051286376953126,0.1081819534301757,0.0189891178160905,-0.4853244125843048
2024-12-07 18:26:51.566260500,10.061260498046876,0.034148558974266,-0.1592389494180679,-0.3525642156600952
2024-12-07 18:26:51.576234500,10.071234375,-0.0848297625780105,-0.3073565065860748,-0.1802963018417358
2024-12-07 18:26:51.586208500,10.08120849609375,-0.2063146978616714,-0.4053497910499573,-0.0167657099664211
2024-12-07 18:26:51.596181500,10.091181396484377,-0.2869565486907959,-0.4972312748432159,0.0951554998755455
2024-12-07 18:26:51.606155500,10.101155517578125,-0.3032291829586029,-0.6174451112747192,0.1243096739053726
2024-12-07 18:26:51.616129300,10.11112939453125,-0.2520509660243988,-0.6968416571617126,0.0688235089182853
2024-12-07 18:26:51.626103300,10.121103271484374,-0.1737607717514038,-0.7147908210754395,-0.0377627350389957
2024-12-07 18:26:51.636077300,10.131077392578124,-0.1009645834565162,-0.639878511428833,-0.155024915933609
2024-12-07 18:26:51.646051300,10.14105126953125,-0.0435263067483902,-0.4393341243267059,-0.2517625093460083
2024-12-07 18:26:51.656025300,10.151025390625,0.0035434691235423,-0.2286565005779266,-0.3215881884098053
2024-12-07 18:26:51.665999400,10.160999267578124,0.0519716143608093,-0.1056779026985168,-0.3615682721138
2024-12-07 18:26:51.675973400,10.170973388671875,0.0814852938055992,-0.0941173881292343,-0.3925866484642029
2024-12-07 18:26:51.685946400,10.1809462890625,0.0781938657164573,-0.1526974737644195,-0.4327588379383087
2024-12-07 18:26:51.695920400,10.19092041015625,0.0498812645673751,-0.2541793584823608,-0.4876841306686401
2024-12-07 18:26:51.705894400,10.200894287109374,-0.0068965754471719,-0.4155779778957367,-0.5432472825050354
2024-12-07 18:26:51.715868400,10.210868408203124,-0.078738272190094,-0.6262965798377991,-0.5858480334281921
2024-12-07 18:26:51.725842400,10.220842529296876,-0.1504282802343368,-0.867779552936554,-0.6197946667671204
2024-12-07 18:26:51.735816400,10.23081640625,-0.210447683930397,-1.1368401050567627,-0.6484993100166321
2024-12-07 18:26:51.745790500,10.24079052734375,-0.2664199769496918,-1.3022125959396362,-0.6662170886993408
2024-12-07 18:26:51.755764500,10.250764404296875,-0.3058691322803497,-1.3510723114013672,-0.6713240146636963
2024-12-07 18:26:51.765737500,10.260737548828123,-0.3382053673267364,-1.3010921478271484,-0.6550681591033936
2024-12-07 18:26:51.775711500,10.27071142578125,-0.3712069988250732,-1.1951457262039185,-0.6061807870864868
2024-12-07 18:26:51.785685500,10.280685546875,-0.3884249329566955,-1.0579763650894165,-0.5286518931388855
2024-12-07 18:26:51.795659500,10.290659423828124,-0.3684725165367126,-0.8963629007339478,-0.4567167460918426
2024-12-07 18:26:51.805633500,10.300633544921874,-0.3128219842910766,-0.7272107601165771,-0.4133589267730713
2024-12-07 18:26:51.815607600,10.310607666015626,-0.252008706331253,-0.5458366870880127,-0.4192277491092682
2024-12-07 18:26:51.825581600,10.32058154296875,-0.2122790515422821,-0.3820964395999908,-0.4627203941345215
2024-12-07 18:26:51.835555600,10.3305556640625,-0.1997094601392746,-0.2535147666931152,-0.5199573040008545
2024-12-07 18:26:51.845529600,10.340529541015623,-0.2026151865720749,-0.1516913473606109,-0.563771665096283
2024-12-07 18:26:51.855502300,10.35050244140625,-0.208393707871437,-0.0813354328274726,-0.5711283683776855
2024-12-07 18:26:51.865476400,10.360476318359376,-0.2133078426122665,-0.0210350062698125,-0.5502549409866333
2024-12-07 18:26:51.875450400,10.370450439453125,-0.2286159545183181,0.0675633028149604,-0.4993680417537689
2024-12-07 18:26:51.885424400,10.38042431640625,-0.2434770613908767,0.1789019256830215,-0.4277657270431518
2024-12-07 18:26:51.895398400,10.3903984375,-0.2589529454708099,0.2944908440113067,-0.3247914016246795
2024-12-07 18:26:51.905372400,10.400372314453126,-0.2537581324577331,0.4115220010280609,-0.1923657804727554
2024-12-07 18:26:51.915346400,10.410346435546876,-0.2288125902414322,0.5238714814186096,-0.0464554391801357
2024-12-07 18:26:51.925320400,10.420320556640624,-0.2056120038032531,0.6224353313446045,0.0874368324875831
2024-12-07 18:26:51.935293400,10.43029345703125,-0.1945004910230636,0.6959891319274902,0.1950578242540359
2024-12-07 18:26:51.945267500,10.440267333984377,-0.1943376660346985,0.7413093447685242,0.264745682477951
2024-12-07 18:26:51.955241500,10.450241455078125,-0.182416558265686,0.7235096096992493,0.3024594783782959
2024-12-07 18:26:51.965215500,10.460215576171874,-0.1669766306877136,0.6125784516334534,0.3056806325912475
2024-12-07 18:26:51.975189500,10.470189453125,-0.1730779409408569,0.4125862717628479,0.2704787254333496
2024-12-07 18:26:51.985163500,10.48016357421875,-0.1921044141054153,0.1809602826833725,0.2114147692918777
2024-12-07 18:26:51.995137500,10.490137451171876,-0.1873962134122848,-0.0578786544501781,0.1379168480634689
2024-12-07 18:26:52.005111600,10.500111572265626,-0.1424028575420379,-0.2355893701314926,0.033731821924448
2024-12-07 18:26:52.015085600,10.51008544921875,-0.0841648578643798,-0.3927371501922607,-0.0116250086575746
2024-12-07 18:26:52.025058600,10.52005859375,-0.0345513261854648,-0.4326220452785492,0.0472015887498855
2024-12-07 18:26:52.035032600,10.530032470703125,-0.003302059136331,-0.3157931566238403,0.2201533913612365
2024-12-07 18:26:52.045006600,10.540006591796876,0.0607139579951763,-0.0938122123479843,0.4426795840263366
2024-12-07 18:26:52.054981000,10.549981201171876,0.165121853351593,0.1607444286346435,0.6400418877601624
2024-12-07 18:26:52.064955000,10.559954833984374,0.27419313788414,0.428040862083435,0.7484535574913025
2024-12-07 18:26:52.074929000,10.569928955078124,0.3590776622295379,0.6906338930130005,0.7530917525291443
2024-12-07 18:26:52.084903000,10.57990283203125,0.4100872874259949,0.9505907893180848,0.6797850131988525
2024-12-07 18:26:52.094877000,10.589876953125,0.4428095519542694,1.2235519886016846,0.59291672706604
2024-12-07 18:26:52.104850000,10.599849853515623,0.4886344075202942,1.4755433797836304,0.5585467219352722
2024-12-07 18:26:52.114824000,10.609823974609377,0.5641291737556458,1.7189520597457886,0.635150134563446
2024-12-07 18:26:52.124797700,10.619797607421877,0.6841802000999451,1.946771264076233,0.8495116233825684
2024-12-07 18:26:52.134771700,10.629771728515625,0.8116747736930847,2.084639310836792,1.1116864681243896
2024-12-07 18:26:52.144745700,10.639745849609374,0.850002110004425,2.017153263092041,1.2794437408447266
2024-12-07 18:26:52.154719700,10.6497197265625,0.7700154185295105,1.7454524040222168,1.334200739860535
2024-12-07 18:26:52.164693800,10.65969384765625,0.6217809319496155,1.3392962217330933,1.3159539699554443
2024-12-07 18:26:52.174667800,10.669667724609376,0.52520751953125,0.833984911441803,1.2642213106155396
2024-12-07 18:26:52.184641800,10.679641845703124,0.4835744202136993,0.3433821499347687,1.1884360313415527
2024-12-07 18:26:52.194614800,10.68961474609375,0.4394535422325134,0.0016099103959277,1.070878028869629
2024-12-07 18:26:52.204588800,10.6995888671875,0.3637956380844116,-0.1403176486492157,0.911809742450714
2024-12-07 18:26:52.214562800,10.709562744140625,0.2987953126430511,-0.1656288653612136,0.7255016565322876
2024-12-07 18:26:52.224536800,10.719536865234376,0.2801146805286407,-0.1980731040239334,0.5795143246650696
2024-12-07 18:26:52.234510800,10.7295107421875,0.2967990934848785,-0.1808083653450012,0.5160949230194092
2024-12-07 18:26:52.244484900,10.73948486328125,0.2766104936599731,-0.099552147090435,0.5103963017463684
2024-12-07 18:26:52.254459000,10.749458984375,0.2030036300420761,0.0785174593329429,0.5156714916229248
2024-12-07 18:26:52.264433000,10.759432861328126,0.1357933729887008,0.3053165674209595,0.5056887269020081
2024-12-07 18:26:52.274406000,10.769406005859375,0.124247245490551,0.463561862707138,0.4955666363239288
2024-12-07 18:26:52.284380000,10.7793798828125,0.1615833938121795,0.5055358409881592,0.4905329346656799
2024-12-07 18:26:52.294354000,10.78935400390625,0.1942853927612304,0.4713901579380035,0.4891382455825805
2024-12-07 18:26:52.304328000,10.799327880859376,0.2075269669294357,0.4452447593212127,0.4881311357021332
2024-12-07 18:26:52.314302000,10.809302001953125,0.2302964627742767,0.3665589988231659,0.4684844613075256
2024-12-07 18:26:52.324276000,10.81927587890625,0.254034012556076,0.2566417157649994,0.4112125933170318
2024-12-07 18:26:52.334250000,10.82925,0.2683506309986114,0.1795272231101989,0.3128197193145752
2024-12-07 18:26:52.344224000,10.83922412109375,0.2760446071624756,0.1546211093664169,0.1967868208885193
2024-12-07 18:26:52.354196700,10.84919677734375,0.2595875859260559,0.1385643780231475,0.0733120143413543
2024-12-07 18:26:52.364170800,10.859170654296875,0.229264423251152,0.1407075673341751,-0.0333798490464687
2024-12-07 18:26:52.374144800,10.869144775390623,0.1844516843557357,0.1620027273893356,-0.112112745642662
2024-12-07 18:26:52.384118800,10.879118896484377,0.1313496381044387,0.1727402210235595,-0.152539312839508
2024-12-07 18:26:52.394092800,10.8890927734375,0.0766914635896682,0.1775544136762619,-0.1705782413482666
2024-12-07 18:26:52.404066800,10.89906689453125,0.0310540366917848,0.1408521234989166,-0.1723586618900299
2024-12-07 18:26:52.414040800,10.909040771484374,0.0016737789846956,0.0736334025859832,-0.1702116131782531
2024-12-07 18:26:52.424014800,10.919014892578126,-0.0288110207766294,-0.0128557980060577,-0.1824326366186142
2024-12-07 18:26:52.433988900,10.92898876953125,-0.0597159415483474,-0.0877529382705688,-0.2133684456348419
2024-12-07 18:26:52.443961900,10.9389619140625,-0.0946895629167556,-0.1180957108736038,-0.2640706896781921
2024-12-07 18:26:52.453935900,10.948935791015623,-0.1350465714931488,-0.1065088286995887,-0.3351730704307556
2024-12-07 18:26:52.463910000,10.958909912109377,-0.1712235957384109,-0.0949585139751434,-0.4157228767871856
2024-12-07 18:26:52.473884000,10.9688837890625,-0.2036949843168258,-0.1049283146858215,-0.4828332066535949
2024-12-07 18:26:52.483858000,10.97885791015625,-0.235155776143074,-0.1279230117797851,-0.5294008851051331
2024-12-07 18:26:52.493832000,10.98883203125,-0.2702716886997223,-0.144796535372734,-0.5630893707275391
2024-12-07 18:26:52.503806000,10.998805908203124,-0.3114262819290161,-0.1569393873214721,-0.6013017296791077
2024-12-07 18:26:52.513780000,11.008780029296876,-0.3645584881305694,-0.1939765065908432,-0.6436928510665894
2024-12-07 18:26:52.523753000,11.0187529296875,-0.3956031799316406,-0.2778718173503876,-0.6717387437820435
2024-12-07 18:26:52.533727000,11.02872705078125,-0.380148321390152,-0.3694656491279602,-0.6569773554801941
2024-12-07 18:26:52.543701000,11.038700927734377,-0.3274332582950592,-0.426483154296875,-0.5789520740509033
2024-12-07 18:26:52.553675000,11.048675048828123,-0.2623610496520996,-0.424615740776062,-0.4690581262111664
2024-12-07 18:26:52.563649000,11.05864892578125,-0.1954080462455749,-0.4109897315502167,-0.374502956867218
2024-12-07 18:26:52.573623000,11.068623046875,-0.1145981550216674,-0.4041802883148193,-0.3074032664299011
2024-12-07 18:26:52.583597000,11.07859716796875,-0.0037817913107573,-0.3489375710487366,-0.2077353298664093
2024-12-07 18:26:52.593571000,11.088571044921874,0.1405151933431625,-0.183580532670021,-0.0778433606028556
2024-12-07 18:26:52.603544000,11.0985439453125,0.2360812872648239,0.0937422886490821,-0.0334274657070636
2024-12-07 18:26:52.613518000,11.10851806640625,0.2361806184053421,0.4529377520084381,-0.126645028591156
2024-12-07 18:26:52.623492000,11.1184921875,0.1689605712890625,0.7543947696685791,-0.2553609311580658
2024-12-07 18:26:52.633466000,11.128466064453123,0.1135183423757553,0.7564358115196228,-0.2874661386013031
2024-12-07 18:26:52.643439900,11.13843994140625,0.0896042212843895,0.4933187365531921,-0.2125564664602279
2024-12-07 18:26:52.653414000,11.148413818359376,0.0397716835141181,0.1375049501657486,-0.1524412035942077
2024-12-07 18:26:52.663387600,11.1583876953125,-0.0825325846672058,-0.2967487871646881,-0.1861705780029297
2024-12-07 18:26:52.673361700,11.168361572265624,-0.2438738048076629,-0.8491898775100708,-0.3180426061153412
2024-12-07 18:26:52.683335700,11.178335693359376,-0.365856796503067,-1.2926021814346311,-0.4487976431846618
2024-12-07 18:26:52.693309000,11.188308837890624,-0.4341000318527221,-1.498921513557434,-0.4832109808921814
2024-12-07 18:26:52.703283000,11.198282958984375,-0.4502944052219391,-1.5081024169921875,-0.4465301930904388
2024-12-07 18:26:52.713257000,11.208257080078123,-0.3985345661640167,-1.4015144109725952,-0.3796289265155792
2024-12-07 18:26:52.723230700,11.218230712890623,-0.2964442670345306,-1.1884217262268066,-0.298358291387558
2024-12-07 18:26:52.733204700,11.228204833984377,-0.201057568192482,-0.9054369330406188,-0.2231444865465164
2024-12-07 18:26:52.743178800,11.2381787109375,-0.1464822143316269,-0.6097819209098816,-0.2029714584350586
2024-12-07 18:26:52.753152800,11.24815283203125,-0.0897715389728546,-0.4699782133102417,-0.2513211369514465
2024-12-07 18:26:52.763126800,11.258126708984374,-0.0285198930650949,-0.5078930854797363,-0.3302497863769531
2024-12-07 18:26:52.773099800,11.268099853515626,0.0226764474064111,-0.6215120553970337,-0.3987050056457519
2024-12-07 18:26:52.783073800,11.27807373046875,0.0428352057933807,-0.722550094127655,-0.4211980700492859
2024-12-07 18:26:52.793047800,11.2880478515625,0.0379509627819061,-0.7704955339431763,-0.3934897482395172
2024-12-07 18:26:52.803021800,11.298021728515623,0.0086375819519162,-0.7643446326255798,-0.3370176255702972
2024-12-07 18:26:52.812995800,11.307995849609377,-0.039137665182352,-0.7093013525009155,-0.2662550210952759
2024-12-07 18:26:52.822969900,11.317969970703125,-0.0813094973564148,-0.6104835867881775,-0.1986516416072845
2024-12-07 18:26:52.832943900,11.32794384765625,-0.0854155644774437,-0.4853112995624542,-0.1623032093048095
2024-12-07 18:26:52.842918000,11.33791796875,-0.0559768304228782,-0.3483319878578186,-0.1562744528055191
2024-12-07 18:26:52.852891000,11.347890869140626,-0.0102498233318328,-0.1493783891201019,-0.1875572800636291
2024-12-07 18:26:52.862865000,11.357864990234376,0.0375206619501113,0.057709377259016,-0.2291536480188369
2024-12-07 18:26:52.872839000,11.3678388671875,0.0540799312293529,0.2516879141330719,-0.2444332689046859
