time,seconds_elapsed,z,y,x
2024-12-07 18:32:17.948722700,0.02172265625,0.0034279846586287,-0.0843782797455787,-0.0423327684402465
2024-12-07 18:32:17.958696700,0.03169677734375,0.006343790795654,-0.0786381289362907,-0.0533718056976795
2024-12-07 18:32:17.968670700,0.041670654296875,0.0076002697460353,-0.0678909420967102,-0.05925153195858
2024-12-07 18:32:17.978644700,0.051644775390625,0.0041980016976594,-0.0560046732425689,-0.0623201057314872
2024-12-07 18:32:17.988618500,0.061618408203125,-0.0049291839823126,-0.0405562072992324,-0.0594111382961273
2024-12-07 18:32:17.998592300,0.07159228515625,-0.0199857708066701,-0.0549123920500278,-0.0476559102535247
2024-12-07 18:32:18.008565500,0.0815654296875,-0.0362752601504325,-0.0938653871417045,-0.0371785014867782
2024-12-07 18:32:18.018539500,0.09153955078125,-0.0362462364137172,-0.0858503729104995,-0.0306542348116636
2024-12-07 18:32:18.028513500,0.101513427734375,-0.0358254574239254,-0.048581562936306,-0.0208545997738838
2024-12-07 18:32:18.038487600,0.111487548828125,-0.0387521982192993,-0.0438723340630531,-0.015450956299901
2024-12-07 18:32:18.048461300,0.12146142578125,-0.0357643999159336,-0.0571987926959991,-0.0225277747958898
2024-12-07 18:32:18.058435300,0.131435302734375,-0.0316592454910278,-0.0681236609816551,-0.034238114953041
2024-12-07 18:32:18.068408600,0.14140869140625,-0.0242407452315092,-0.0726789981126785,-0.0410960242152214
2024-12-07 18:32:18.078382600,0.151382568359375,-0.0172283183783292,-0.0614919364452362,-0.0494667142629623
2024-12-07 18:32:18.088356600,0.161356689453125,-0.014544116333127,-0.0371051020920276,-0.0569970682263374
2024-12-07 18:32:18.098330600,0.17133056640625,-0.0126678561791777,-0.0340857207775116,-0.0643051192164421
2024-12-07 18:32:18.108304400,0.181304443359375,-0.0207449588924646,-0.0302710104733705,-0.0684471353888511
2024-12-07 18:32:18.118278400,0.1912783203125,-0.032357107847929,-0.0289587713778018,-0.0680457130074501
2024-12-07 18:32:18.128251600,0.201251708984375,-0.0425474308431148,-0.0362260080873966,-0.0671892389655113
2024-12-07 18:32:18.138225700,0.2112255859375,-0.0509186349809169,-0.0469412207603454,-0.0680499896407127
2024-12-07 18:32:18.148199700,0.22119970703125,-0.0516073293983936,-0.0743198469281196,-0.0683546513319015
2024-12-07 18:32:18.158173400,0.23117333984375,-0.0576519519090652,-0.0965699180960655,-0.059381615370512
2024-12-07 18:32:18.168147500,0.2411474609375,-0.0586101599037647,-0.1012855768203735,-0.0482344217598438
2024-12-07 18:32:18.178121500,0.25112158203125,-0.0545961707830429,-0.0947156026959419,-0.0335701704025268
2024-12-07 18:32:18.188094500,0.261094482421875,-0.0421450920403003,-0.0605469793081283,-0.0308076757937669
2024-12-07 18:32:18.198068500,0.271068359375,-0.0305454712361097,-0.0269894171506166,-0.0280289445072412
2024-12-07 18:32:18.208042500,0.28104248046875,-0.0187908113002777,0.0065507004037499,-0.0312148835510015
2024-12-07 18:32:18.218016500,0.2910166015625,-0.008814075961709,0.0381485745310783,-0.0308036915957927
2024-12-07 18:32:18.227990300,0.300990234375,-0.0087818522006273,0.0483660586178302,-0.0332577936351299
2024-12-07 18:32:18.237963500,0.310963623046875,-0.0294923484325408,0.0376958884298801,-0.0384060628712177
2024-12-07 18:32:18.247937500,0.3209375,-0.0329379439353942,0.0150819234549999,-0.0389900915324687
2024-12-07 18:32:18.257911600,0.33091162109375,-0.0499419085681438,-0.0150659661740064,-0.0339991189539432
2024-12-07 18:32:18.267885600,0.340885498046875,-0.0693326443433761,-0.0557241812348365,-0.0233147833496332
2024-12-07 18:32:18.277859300,0.350859375,-0.055383313447237,-0.0769752338528633,-0.0191738996654748
2024-12-07 18:32:18.287833300,0.360833251953125,-0.078803151845932,-0.0557503700256347,-0.0235769040882587
2024-12-07 18:32:18.297806600,0.370806640625,-0.0490790009498596,-0.0522211976349353,-0.0206830371171236
2024-12-07 18:32:18.307780600,0.380780517578125,-0.0372167490422725,-0.0336674861609935,-0.0242026709020137
2024-12-07 18:32:18.317754600,0.390754638671875,-0.0388175472617149,-0.0171214360743761,-0.0412050113081932
2024-12-07 18:32:18.327728400,0.400728271484375,-0.093644306063652,-0.0106824450194835,-0.0514973290264606
2024-12-07 18:32:18.337702400,0.410702392578125,-0.112950675189495,-0.0567845553159713,-0.0471065863966941
2024-12-07 18:32:18.347676400,0.420676513671875,-0.1439152508974075,-0.1053483635187149,-0.036980714648962
2024-12-07 18:32:18.357649700,0.430649658203125,-0.1685289889574051,-0.1390682756900787,-0.0506205633282661
2024-12-07 18:32:18.367623700,0.440623779296875,-0.1908923536539077,-0.147448182106018,-0.0663310810923576
2024-12-07 18:32:18.377597700,0.45059765625,-0.1972596645355224,-0.1527101844549179,-0.0738254711031913
2024-12-07 18:32:18.387571500,0.460571533203125,-0.2096774578094482,-0.1691842377185821,-0.0763141959905624
2024-12-07 18:32:18.397545500,0.47054541015625,-0.2377032190561294,-0.1833429038524627,-0.1037392318248748
2024-12-07 18:32:18.407519500,0.48051953125,-0.2759709656238556,-0.2007711678743362,-0.1538189053535461
2024-12-07 18:32:18.417492500,0.490492431640625,-0.3214019536972046,-0.2437256574630737,-0.2129307240247726
2024-12-07 18:32:18.427466500,0.500466552734375,-0.3684525489807129,-0.279275119304657,-0.2750305831432342
2024-12-07 18:32:18.437440500,0.5104404296875,-0.4078533053398132,-0.2717886567115783,-0.3447075486183166
2024-12-07 18:32:18.447414300,0.520414306640625,-0.4536927044391632,-0.2493536472320556,-0.4077349901199341
2024-12-07 18:32:18.457388300,0.53038818359375,-0.4930516183376312,-0.2342353165149688,-0.4508190155029297
2024-12-07 18:32:18.467362300,0.5403623046875,-0.5095722675323486,-0.2058718502521515,-0.4670592248439789
2024-12-07 18:32:18.477335600,0.55033544921875,-0.494505763053894,-0.1913128644227981,-0.4703093767166137
2024-12-07 18:32:18.487309600,0.5603095703125,-0.4787473082542419,-0.2159670889377594,-0.4712654650211334
2024-12-07 18:32:18.497283600,0.57028369140625,-0.4676529467105865,-0.2873501181602478,-0.4850103855133056
2024-12-07 18:32:18.507257300,0.58025732421875,-0.4638427495956421,-0.3046140670776367,-0.504566490650177
2024-12-07 18:32:18.517231400,0.5902314453125,-0.4714864492416382,-0.3754957020282745,-0.5236179828643799
2024-12-07 18:32:18.527205400,0.600205322265625,-0.5058276653289795,-0.4923568069934845,-0.5078558325767517
2024-12-07 18:32:18.537178600,0.6101787109375,-0.5798195004463196,-0.5542885065078735,-0.4519456326961517
2024-12-07 18:32:18.547152600,0.620152587890625,-0.6551946401596069,-0.5515550374984741,-0.4171431958675384
2024-12-07 18:32:18.557126400,0.63012646484375,-0.7335309982299805,-0.5614745616912842,-0.4354448616504669
2024-12-07 18:32:18.567100400,0.640100341796875,-0.7928100228309631,-0.5113837122917175,-0.5082905292510986
2024-12-07 18:32:18.577074400,0.650074462890625,-0.8203773498535156,-0.4014506638050079,-0.5609239935874939
2024-12-07 18:32:18.587048400,0.66004833984375,-0.8382546305656433,-0.2126527726650238,-0.6083583235740662
2024-12-07 18:32:18.597021700,0.670021728515625,-0.8492025136947632,-0.1464585661888122,-0.7464137077331543
2024-12-07 18:32:18.606995500,0.679995361328125,-0.9011898040771484,-0.0173873901367187,-0.7890732884407043
2024-12-07 18:32:18.616969500,0.689969482421875,-0.9423989057540894,0.1220875605940818,-0.7040188908576965
2024-12-07 18:32:18.626943500,0.699943603515625,-0.9224853515625,0.1533235162496566,-0.5634846687316895
2024-12-07 18:32:18.636917500,0.70991748046875,-0.8235357403755188,0.169539675116539,-0.4320375323295593
2024-12-07 18:32:18.646890500,0.719890380859375,-0.7759062051773071,0.0516844168305397,-0.3591247200965881
2024-12-07 18:32:18.656864500,0.729864501953125,-0.7903714179992676,-0.0379688963294029,-0.2995982766151428
2024-12-07 18:32:18.666838500,0.739838623046875,-0.8363969922065735,-0.1116452440619468,-0.2659036815166473
2024-12-07 18:32:18.676812300,0.749812255859375,-0.7824132442474365,-0.2399719059467315,-0.2933356165885925
2024-12-07 18:32:18.686786300,0.759786376953125,-0.6689444780349731,-0.3513722121715545,-0.3403973877429962
2024-12-07 18:32:18.696760300,0.76976025390625,-0.5381745100021362,-0.4539287090301513,-0.4489519894123077
2024-12-07 18:32:18.706733600,0.779733642578125,-0.2884038090705871,-0.6820415258407593,-0.5256930589675903
2024-12-07 18:32:18.716707600,0.78970751953125,-0.0737944990396499,-0.9276875853538512,-0.5046114325523376
2024-12-07 18:32:18.726681300,0.799681396484375,0.0250087715685367,-1.1775696277618408,-0.4620890021324157
2024-12-07 18:32:18.736655400,0.8096552734375,-0.011305434629321,-1.344963788986206,-0.4309419691562652
2024-12-07 18:32:18.746629400,0.81962939453125,-0.1139250174164772,-1.312595248222351,-0.3954873085021972
2024-12-07 18:32:18.756603400,0.829603271484375,-0.2810334861278534,-1.05318284034729,-0.3487697839736938
2024-12-07 18:32:18.766576600,0.83957666015625,-0.4122684895992279,-0.7781180143356323,-0.3019168078899383
2024-12-07 18:32:18.776550700,0.849550537109375,-0.4543766379356384,-0.5480294227600098,-0.2575819790363312
2024-12-07 18:32:18.786524400,0.8595244140625,-0.4526439905166626,-0.3680098354816437,-0.2252232432365417
2024-12-07 18:32:18.796498400,0.86949853515625,-0.4526812732219696,-0.1795968562364578,-0.1835137456655502
2024-12-07 18:32:18.806472400,0.879472412109375,-0.4717004895210266,-0.0216772742569446,-0.1233007460832595
2024-12-07 18:32:18.816446500,0.889446533203125,-0.5115054249763489,0.03062354773283,-0.0909293368458747
2024-12-07 18:32:18.826419700,0.899419677734375,-0.5515117049217224,0.0056497538462281,-0.0756545066833496
2024-12-07 18:32:18.836393500,0.9093935546875,-0.6089128255844116,-0.025104846805334,-0.0496457889676094
2024-12-07 18:32:18.846367500,0.919367431640625,-0.6660283207893372,-0.0466580726206302,-0.008992901071906
2024-12-07 18:32:18.856341500,0.929341552734375,-0.6540029048919678,-0.0268926471471786,0.0484440699219703
2024-12-07 18:32:18.866315500,0.9393154296875,-0.5625728368759155,0.0029717746656388,0.1130978986620903
2024-12-07 18:32:18.876288500,0.94928857421875,-0.427208662033081,0.0193703584372997,0.1744961887598037
2024-12-07 18:32:18.886262500,0.959262451171875,-0.2551000118255615,0.0402314327657222,0.2341952174901962
2024-12-07 18:32:18.896236500,0.969236572265625,-0.0333727523684501,0.1288897395133972,0.2757158875465393
2024-12-07 18:32:18.906210300,0.979210205078125,0.2815468609333038,0.3097780346870422,0.2606160342693329
2024-12-07 18:32:18.916184300,0.989184326171875,0.2960293889045715,0.5292709469795227,0.1815002113580703
2024-12-07 18:32:18.926158300,0.999158447265625,0.0226095542311668,0.603970468044281,0.0318771786987781
2024-12-07 18:32:18.936131600,1.009131591796875,-0.2552286982536316,0.5283447504043579,-0.0221710000187158
2024-12-07 18:32:18.946105600,1.019105712890625,-0.4438217878341675,0.4664416909217834,0.0769441276788711
2024-12-07 18:32:18.956079400,1.029079345703125,-0.5956315398216248,0.4756917357444763,0.2721992433071136
2024-12-07 18:32:18.966053400,1.039053466796875,-0.6944406628608704,0.5232639908790588,0.4145713150501251
2024-12-07 18:32:18.976027400,1.04902734375,-0.4799202382564544,-0.0766080841422081,0.2083670496940612
2024-12-07 18:32:18.986001400,1.05900146484375,-0.5152620077133179,0.0782291665673255,0.1363620907068252
2024-12-07 18:32:18.995974700,1.068974609375,-0.623811662197113,0.2010008245706558,0.2763973772525787
2024-12-07 18:32:19.005948400,1.078948486328125,-0.7174808979034424,0.3908698260784149,0.4673044681549072
2024-12-07 18:32:19.015922400,1.08892236328125,-0.8480605483055115,0.6096159815788269,0.6541734933853149
2024-12-07 18:32:19.025896400,1.098896484375,-0.9902629256248474,0.7132720351219177,0.8247236609458923
2024-12-07 18:32:19.035870500,1.108870361328125,-1.0821112394332886,0.5361011624336243,0.9577523469924928
2024-12-07 18:32:19.045844500,1.118844482421875,-1.0472549200057983,0.2147116363048553,1.0275214910507202
2024-12-07 18:32:19.055817700,1.128817626953125,-0.8982099890708923,-0.1796077191829681,0.969696879386902
2024-12-07 18:32:19.065791500,1.13879150390625,-0.6028052568435669,-0.5035463571548462,0.8220395445823669
2024-12-07 18:32:19.075765500,1.148765625,-0.1754203289747238,-0.5692605972290039,0.6348093152046204
2024-12-07 18:32:19.085739300,1.1587392578125,0.1847596764564514,-0.4917207658290863,0.4129596948623657
2024-12-07 18:32:19.095713300,1.16871337890625,0.5307720899581909,-0.0679208934307098,0.065586008131504
2024-12-07 18:32:19.105686500,1.1786865234375,0.7528520226478577,0.6718176007270813,-0.2543193101882934
2024-12-07 18:32:19.115660500,1.18866064453125,0.8214395046234131,1.4283770322799685,-0.2504821717739105
2024-12-07 18:32:19.125634300,1.19863427734375,0.8028823733329773,1.8275728225708008,-0.1048847511410713
2024-12-07 18:32:19.135608300,1.2086083984375,0.709052562713623,1.8013447523117063,-0.0210657529532909
2024-12-07 18:32:19.145582300,1.218582275390625,0.5348024368286133,1.6774808168411257,0.0029972377233207
2024-12-07 18:32:19.155556400,1.228556396484375,0.3257616758346557,1.584591269493103,0.0279572717845439
2024-12-07 18:32:19.165529600,1.238529541015625,0.1889878213405609,1.3357079029083252,0.0354330278933048
2024-12-07 18:32:19.175503600,1.248503662109375,0.1703358143568039,0.952006459236145,-0.0043715965002775
2024-12-07 18:32:19.185477400,1.258477294921875,0.2109679281711578,0.4315299987792969,-0.1322043985128402
2024-12-07 18:32:19.195451400,1.268451416015625,0.2210704833269119,-0.0555945262312889,-0.3016296625137329
2024-12-07 18:32:19.205425400,1.27842529296875,0.1812639534473419,-0.3889743387699127,-0.4337682723999023
2024-12-07 18:32:19.215399400,1.2883994140625,0.128865510225296,-0.5580582618713379,-0.4945831894874573
2024-12-07 18:32:19.225372700,1.29837255859375,0.1057261079549789,-0.5921667218208313,-0.4856839478015899
2024-12-07 18:32:19.235346400,1.308346435546875,0.1257893145084381,-0.5109668970108032,-0.4270098805427551
2024-12-07 18:32:19.245320400,1.318320556640625,0.1525114774703979,-0.3528675138950348,-0.3657358586788177
2024-12-07 18:32:19.255294500,1.32829443359375,0.1424929648637771,-0.2541272640228271,-0.3074045479297638
2024-12-07 18:32:19.265268500,1.3382685546875,0.0623975917696952,-0.2308485805988311,-0.2692441344261169
2024-12-07 18:32:19.275242500,1.348242431640625,-0.0384403988718986,-0.2717027366161346,-0.2466830611228943
2024-12-07 18:32:19.285215500,1.358215576171875,-0.1150808483362197,-0.3704271614551544,-0.2299360334873199
2024-12-07 18:32:19.295189500,1.368189453125,-0.156904712319374,-0.4224447607994079,-0.2354299873113632
2024-12-07 18:32:19.305163300,1.378163330078125,-0.1653112471103668,-0.4053094387054443,-0.2586913704872131
2024-12-07 18:32:19.315137300,1.38813720703125,-0.1477760672569275,-0.2893050014972687,-0.3066578209400177
2024-12-07 18:32:19.325111300,1.398111328125,-0.1197295114398002,-0.1754913181066513,-0.3559992611408233
2024-12-07 18:32:19.335085300,1.408085205078125,-0.1018858253955841,-0.116155095398426,-0.3843167722225189
2024-12-07 18:32:19.345058000,1.41805810546875,-0.0932957977056503,-0.1093145012855529,-0.392790675163269
2024-12-07 18:32:19.355032000,1.428031982421875,-0.0951102972030639,-0.1392004936933517,-0.3874819576740265
2024-12-07 18:32:19.365006000,1.438006103515625,-0.1018960326910018,-0.1766101866960525,-0.4028236269950866
2024-12-07 18:32:19.374980000,1.44797998046875,-0.1059819012880325,-0.17703777551651,-0.4354627430438995
2024-12-07 18:32:19.384953900,1.457953857421875,-0.1029019579291343,-0.1193281337618827,-0.4600956737995147
2024-12-07 18:32:19.394927000,1.467927001953125,-0.0916741117835044,-0.057264894247055,-0.4563656747341156
2024-12-07 18:32:19.404901000,1.477901123046875,-0.0810446441173553,0.0021358502563089,-0.430787593126297
2024-12-07 18:32:19.414875000,1.487875,-0.0655827447772026,0.0919944494962692,-0.3827933371067047
2024-12-07 18:32:19.424849000,1.497848876953125,-0.0149078490212559,0.2254084348678589,-0.3120765388011932
2024-12-07 18:32:19.434823000,1.507822998046875,0.0659985393285751,0.3757361471652984,-0.2588226497173309
2024-12-07 18:32:19.444797000,1.517796875,0.1513909250497818,0.5095500946044922,-0.2431832104921341
2024-12-07 18:32:19.454770000,1.52777001953125,0.205948919057846,0.577739417552948,-0.2698382139205932
2024-12-07 18:32:19.464744000,1.537743896484375,0.1892522275447845,0.5469527244567871,-0.3208441436290741
2024-12-07 18:32:19.474718000,1.547718017578125,0.1217813715338707,0.4670574963092804,-0.372697502374649
2024-12-07 18:32:19.484692000,1.55769189453125,0.0739075914025306,0.3545088469982147,-0.4256904125213623
2024-12-07 18:32:19.494666000,1.567666015625,0.043055810034275,0.2513450980186462,-0.4347532391548157
2024-12-07 18:32:19.504639700,1.5776396484375,-0.0003047146601602,0.1510160863399505,-0.3785924911499023
2024-12-07 18:32:19.514613000,1.587613037109375,-0.0789566710591316,0.0168632920831441,-0.2813422083854675
2024-12-07 18:32:19.524587000,1.5975869140625,-0.1880408078432083,-0.1716701388359069,-0.1978521198034286
2024-12-07 18:32:19.534561000,1.60756103515625,-0.2700932919979095,-0.3600944578647613,-0.1813630163669586
2024-12-07 18:32:19.544535000,1.61753515625,-0.2916417121887207,-0.5219472646713257,-0.2131710201501846
2024-12-07 18:32:19.554508800,1.6275087890625,-0.2609254419803619,-0.6426308751106262,-0.2766947150230407
2024-12-07 18:32:19.564482000,1.63748193359375,-0.1991957873106002,-0.7203565835952759,-0.3530161082744598
2024-12-07 18:32:19.574456000,1.6474560546875,-0.1345412731170654,-0.7451030611991882,-0.4021101891994476
2024-12-07 18:32:19.584430000,1.65743017578125,-0.0936982408165931,-0.7344075441360474,-0.3996065557003021
2024-12-07 18:32:19.594404000,1.667404052734375,-0.0868347063660621,-0.6826539039611816,-0.3512389659881592
2024-12-07 18:32:19.604378000,1.677378173828125,-0.1004466563463211,-0.604685366153717,-0.28433957695961
2024-12-07 18:32:19.614352000,1.687351806640625,-0.1133621037006378,-0.5534101724624634,-0.2488417476415634
2024-12-07 18:32:19.624324900,1.697324951171875,-0.1072107329964637,-0.5824633836746216,-0.2700794041156769
2024-12-07 18:32:19.634299000,1.707298828125,-0.0939814299345016,-0.7020959258079529,-0.3287289142608642
2024-12-07 18:32:19.644273000,1.71727294921875,-0.0956626832485199,-0.8605443835258484,-0.387659341096878
2024-12-07 18:32:19.654247000,1.727246826171875,-0.1161931231617927,-0.9892604947090148,-0.4173844456672668
2024-12-07 18:32:19.664221000,1.737220947265625,-0.1428005099296569,-1.02866530418396,-0.4121931493282318
2024-12-07 18:32:19.674194700,1.747194580078125,-0.1683022081851959,-0.9478789567947388,-0.3746556639671325
2024-12-07 18:32:19.684168000,1.75716796875,-0.1753827631473541,-0.7959016561508179,-0.3149875402450561
2024-12-07 18:32:19.694142000,1.767141845703125,-0.2858963012695312,-0.8570083975791931,-0.3412886261940002
2024-12-07 18:32:19.704116000,1.777115966796875,-0.5142943859100342,-1.3952550888061523,-0.5427215695381165
2024-12-07 18:32:19.714090000,1.787090087890625,-0.505159318447113,-1.7907202243804932,-0.6033762693405151
2024-12-07 18:32:19.724064000,1.79706396484375,-0.4817700684070587,-2.0724709033966064,-0.6252192258834839
2024-12-07 18:32:19.734037800,1.807037841796875,-0.4817341864109039,-1.951619267463684,-0.5052570700645447
2024-12-07 18:32:19.744011000,1.817010986328125,-0.4438778758049011,-1.3981728553771973,-0.1691475063562393
2024-12-07 18:32:19.753985000,1.826985107421875,-0.2777828276157379,-0.6829925179481506,0.2519508898258209
2024-12-07 18:32:19.763959000,1.836958984375,0.0442471243441104,-0.0413205996155738,0.5335546135902405
2024-12-07 18:32:19.773933000,1.84693310546875,0.3388769030570984,0.3755951225757599,0.468632310628891
2024-12-07 18:32:19.783906800,1.85690673828125,0.3603046834468841,1.1765741109848022,0.4908598661422729
2024-12-07 18:32:19.793880000,1.866880126953125,0.2682090103626251,1.4381593465805054,0.1432274878025055
2024-12-07 18:32:19.803854000,1.87685400390625,0.1937126666307449,1.5077111721038818,-0.368179589509964
2024-12-07 18:32:19.813828000,1.886828125,0.0401750914752483,1.2297383546829224,-0.5622212886810303
2024-12-07 18:32:19.823802000,1.896802001953125,-0.0508301816880703,0.6421470046043396,-0.5472394227981567
2024-12-07 18:32:19.833775900,1.90677587890625,-0.1061339378356933,0.014650534838438,-0.4589214026927948
2024-12-07 18:32:19.843750000,1.91675,-0.1256663650274276,-0.5429879426956177,-0.3513166606426239
2024-12-07 18:32:19.853723000,1.926722900390625,-0.1050901785492897,-0.9134843349456788,-0.2905826568603515
2024-12-07 18:32:19.863697000,1.93669677734375,-0.0794181004166603,-1.0925188064575195,-0.2995423078536987
2024-12-07 18:32:19.873671000,1.9466708984375,-0.0647940784692764,-1.1546293497085571,-0.3731093406677246
2024-12-07 18:32:19.883645000,1.95664501953125,-0.0403348170220851,-1.1803406476974487,-0.4586085081100464
2024-12-07 18:32:19.893619000,1.966618896484375,-0.0311560072004795,-1.1571869850158691,-0.5284669399261475
2024-12-07 18:32:19.903592700,1.9765927734375,-0.0370844677090644,-1.0906732082366943,-0.5585691928863525
2024-12-07 18:32:19.913566000,1.98656591796875,-0.0557682253420352,-0.9781566858291626,-0.549272894859314
2024-12-07 18:32:19.923540000,1.9965400390625,-0.0893285796046257,-0.8272031545639038,-0.5171570777893066
2024-12-07 18:32:19.933514000,2.006513916015625,-0.1240348294377327,-0.6691951751708984,-0.4618697762489319
2024-12-07 18:32:19.943488000,2.016488037109375,-0.1454192250967025,-0.5265672206878662,-0.3908501863479614
2024-12-07 18:32:19.953461800,2.026461669921875,-0.1578064560890197,-0.4042274057865143,-0.3294901847839355
2024-12-07 18:32:19.963435000,2.03643505859375,-0.1666923612356186,-0.3022808134555816,-0.279202252626419
2024-12-07 18:32:19.973409000,2.046408935546875,-0.1703372597694397,-0.2511523962020874,-0.2476085722446441
2024-12-07 18:32:19.983383000,2.056383056640625,-0.1727964282035827,-0.2640711367130279,-0.229740634560585
2024-12-07 18:32:19.993357000,2.066357177734375,-0.1837496608495712,-0.3029586374759674,-0.211271271109581
2024-12-07 18:32:20.003331000,2.0763310546875,-0.1996026486158371,-0.3381509780883789,-0.2013720273971557
2024-12-07 18:32:20.013304800,2.086304931640625,-0.2137666642665863,-0.3473209738731384,-0.1917839646339416
2024-12-07 18:32:20.023278000,2.096278076171875,-0.2118795365095138,-0.3227256238460541,-0.1879647374153137
2024-12-07 18:32:20.033252000,2.106252197265625,-0.1961834281682968,-0.2847224175930023,-0.1908926963806152
2024-12-07 18:32:20.043226000,2.11622607421875,-0.1863491833209991,-0.2006871849298477,-0.1889563202857971
2024-12-07 18:32:20.053200100,2.1262001953125,-0.1829853802919387,-0.0936465635895729,-0.1721518337726593
2024-12-07 18:32:20.063174000,2.136173828125,-0.1778337657451629,0.0180075243115425,-0.1331101506948471
2024-12-07 18:32:20.073148000,2.14614794921875,-0.1655053049325943,0.137097880244255,-0.0828300416469574
2024-12-07 18:32:20.083121000,2.156120849609375,-0.154198333621025,0.2624957263469696,-0.0298602990806102
2024-12-07 18:32:20.093095000,2.166094970703125,-0.1329415142536163,0.3780668079853058,0.0224566999822855
2024-12-07 18:32:20.103069000,2.17606884765625,-0.1272005289793014,0.5035338997840881,0.0725622102618217
2024-12-07 18:32:20.113043000,2.18604296875,-0.1031074374914169,0.5891697406768799,0.1626532226800918
2024-12-07 18:32:20.123017000,2.196016845703125,-0.1009425595402717,0.6831923723220825,0.2616069614887237
2024-12-07 18:32:20.132990700,2.20599072265625,-0.0725396946072578,0.7632474303245544,0.3770846724510193
2024-12-07 18:32:20.142964000,2.2159638671875,-0.0630415305495262,0.8426812887191772,0.4663407802581787
2024-12-07 18:32:20.152938000,2.22593798828125,-0.0457704812288284,0.8937631845474243,0.539553165435791
2024-12-07 18:32:20.162912000,2.235912109375,0.0344689637422561,0.882139265537262,0.6015228033065796
2024-12-07 18:32:20.172886000,2.245885986328125,0.1337046325206756,0.8566749095916748,0.6265195608139038
2024-12-07 18:32:20.182859800,2.25585986328125,0.2042083740234375,0.8356476426124573,0.6163438558578491
2024-12-07 18:32:20.192833000,2.2658330078125,0.2344177067279815,0.8225772380828857,0.5822852849960327
2024-12-07 18:32:20.202807000,2.27580712890625,0.230906069278717,0.8529590964317322,0.5518783330917358
2024-12-07 18:32:20.212781000,2.285781005859375,0.1833993345499038,0.9173340201377868,0.5296685695648193
2024-12-07 18:32:20.222755000,2.295755126953125,0.1096862256526947,1.0396101474761963,0.500697910785675
2024-12-07 18:32:20.232728800,2.305728759765625,0.088170014321804,1.1927461624145508,0.4714638590812683
2024-12-07 18:32:20.242702800,2.315702880859375,0.0619924701750278,1.2462317943572998,0.3811363577842712
2024-12-07 18:32:20.252676000,2.325676025390625,0.0584536306560039,1.3595720529556274,0.2872760891914367
2024-12-07 18:32:20.262650000,2.335650146484375,0.0900065004825592,1.4667624235153198,0.219226986169815
2024-12-07 18:32:20.272624000,2.3456240234375,0.1815390884876251,1.531098246574402,0.2120877802371978
2024-12-07 18:32:20.282598100,2.35559814453125,0.2214929014444351,1.4718573093414309,0.2668708860874176
2024-12-07 18:32:20.292572000,2.365572021484375,0.1371194273233413,1.382274508476257,0.3650459051132202
2024-12-07 18:32:20.302546000,2.3755458984375,-0.0197940245270729,1.318509578704834,0.4930211901664734
2024-12-07 18:32:20.312519000,2.385518798828125,-0.1477207839488983,1.2480370998382568,0.6123076677322388
2024-12-07 18:32:20.322493000,2.395492919921875,-0.2240701466798782,1.161625623703003,0.7049593329429626
2024-12-07 18:32:20.332467000,2.405467041015625,-0.254488855600357,0.9628236293792723,0.7416178584098816
2024-12-07 18:32:20.342441500,2.41544140625,-0.2708095014095306,0.6208394169807434,0.738974392414093
2024-12-07 18:32:20.352415500,2.42541552734375,-0.3194717168807983,0.2469558417797088,0.761875569820404
2024-12-07 18:32:20.362388700,2.435388671875,-0.3708297312259674,-0.1336154639720916,0.8265389800071716
2024-12-07 18:32:20.372362500,2.445362548828125,-0.3822982609272003,-0.4925073385238647,0.8788650631904602
2024-12-07 18:32:20.382336300,2.455336181640625,-0.3162761032581329,-0.7944579124450684,0.8962017297744751
2024-12-07 18:32:20.392310300,2.465310302734375,-0.209573283791542,-0.9587064385414124,0.8900122046470642
2024-12-07 18:32:20.402284300,2.4752841796875,-0.0900601968169212,-0.8677051663398743,0.8381343483924866
2024-12-07 18:32:20.412258300,2.48525830078125,0.0329317860305309,-0.6152456998825073,0.747256338596344
2024-12-07 18:32:20.422231600,2.4952314453125,0.1311238706111908,-0.3425444066524505,0.6360349655151367
2024-12-07 18:32:20.432205300,2.505205322265625,0.1996534913778305,-0.1246751472353935,0.5051767230033875
2024-12-07 18:32:20.442179300,2.515179443359375,0.2340567260980606,0.0591703243553638,0.3599622845649719
2024-12-07 18:32:20.452153300,2.5251533203125,0.2511553466320038,0.2244424968957901,0.2331787943840026
2024-12-07 18:32:20.462127400,2.53512744140625,0.2751919627189636,0.3480041325092315,0.1572076082229614
2024-12-07 18:32:20.472101400,2.545101318359375,0.2888553142547607,0.4300752282142639,0.1492661237716674
2024-12-07 18:32:20.482074600,2.55507470703125,0.281591534614563,0.4880951344966888,0.1838448643684387
2024-12-07 18:32:20.492048400,2.56504833984375,0.2462768405675888,0.5629634857177734,0.1898093968629837
2024-12-07 18:32:20.502022400,2.5750224609375,0.2021530568599701,0.6284586191177368,0.1646430641412735
2024-12-07 18:32:20.511996400,2.584996337890625,0.1527011096477508,0.6310195326805115,0.1253551840782165
2024-12-07 18:32:20.521970400,2.594970458984375,0.1046307832002639,0.5257210731506348,0.0969456434249877
2024-12-07 18:32:20.531943700,2.604943603515625,0.0763666853308677,0.3781221508979797,0.0718022808432579
2024-12-07 18:32:20.541917400,2.61491748046875,0.0583794303238391,0.2672595381736755,0.0324215814471244
2024-12-07 18:32:20.551891500,2.624891357421875,0.0447477549314498,0.2512131333351135,-0.0185354854911565
2024-12-07 18:32:20.561865500,2.634865478515625,0.0393109135329723,0.2883115112781524,-0.0564985796809196
2024-12-07 18:32:20.571839500,2.644839599609375,0.0324972979724407,0.3578258156776428,-0.0994094833731651
2024-12-07 18:32:20.581813500,2.6548134765625,0.0160568039864301,0.4071699380874634,-0.1452390253543853
2024-12-07 18:32:20.591786500,2.664786376953125,-0.0202166214585304,0.3886100947856903,-0.1845877170562744
2024-12-07 18:32:20.601760500,2.674760498046875,-0.0723067224025726,0.3326948881149292,-0.2235199213027954
2024-12-07 18:32:20.611734300,2.684734375,-0.1172545477747917,0.264400839805603,-0.2544630765914917
2024-12-07 18:32:20.621708300,2.694708251953125,-0.1467959284782409,0.1871966123580932,-0.285600483417511
2024-12-07 18:32:20.631682300,2.704682373046875,-0.1718079298734665,0.1231533288955688,-0.3169440627098083
2024-12-07 18:32:20.641656300,2.71465625,-0.199072316288948,0.0453607998788356,-0.330749899148941
2024-12-07 18:32:20.651629600,2.724629638671875,-0.217709794640541,-0.1051447689533233,-0.3489042520523071
2024-12-07 18:32:20.661603300,2.734603271484375,-0.1983901560306549,-0.2839009165763855,-0.3907507658004761
2024-12-07 18:32:20.671577300,2.744577392578125,-0.1376346200704574,-0.3889499604701996,-0.429900586605072
2024-12-07 18:32:20.681551400,2.75455126953125,-0.0427579134702682,-0.3661448061466217,-0.4372844696044922
2024-12-07 18:32:20.691525400,2.764525390625,0.0678577125072479,-0.2348608523607254,-0.4231749475002289
2024-12-07 18:32:20.701498600,2.77449853515625,0.1707920879125595,-0.0570343881845474,-0.4040947258472442
2024-12-07 18:32:20.711472400,2.784472412109375,0.2283391207456588,0.1264188736677169,-0.3989331722259521
2024-12-07 18:32:20.721446400,2.7944462890625,0.2406804710626602,0.2839523255825043,-0.4044222235679626
2024-12-07 18:32:20.731420400,2.80442041015625,0.2296505570411682,0.4523533582687378,-0.3867298662662506
2024-12-07 18:32:20.741394400,2.81439453125,0.2434960603713989,0.6268026232719421,-0.30955570936203
2024-12-07 18:32:20.751368400,2.824368408203125,0.3082621693611145,0.7313284873962402,-0.1794117987155914
2024-12-07 18:32:20.761341700,2.834341796875,0.3696818649768829,0.7538439631462097,-0.0646716356277465
2024-12-07 18:32:20.771315500,2.8443154296875,0.3435985445976257,0.7327075004577637,0.0224709697067737
2024-12-07 18:32:20.781289500,2.85428955078125,0.2170552313327789,0.6558734774589539,0.1163226291537284
2024-12-07 18:32:20.791263500,2.864263427734375,0.0666994154453277,0.4916524291038513,0.1787827908992767
2024-12-07 18:32:20.801237500,2.874237548828125,-0.0254307817667722,0.2522994875907898,0.1498342305421829
2024-12-07 18:32:20.811211500,2.88421142578125,-0.0573894493281841,0.0005867315921932,0.0459080301225185
2024-12-07 18:32:20.821184500,2.8941845703125,-0.0611208043992519,-0.1939095109701156,-0.0611369274556636
2024-12-07 18:32:20.831158300,2.904158203125,-0.0767781138420105,-0.3356156349182129,-0.12261413782835
2024-12-07 18:32:20.841132300,2.91413232421875,-0.1023937240242958,-0.4869905114173889,-0.1338121891021728
2024-12-07 18:32:20.851106300,2.924106201171875,-0.119003877043724,-0.663451075553894,-0.1089235618710517
2024-12-07 18:32:20.861080300,2.934080322265625,-0.1180019900202751,-0.8882316946983337,-0.0952074825763702
2024-12-07 18:32:20.871054300,2.944054443359375,-0.1304223835468292,-1.1363751888275146,-0.1144294962286949
2024-12-07 18:32:20.881027600,2.954027587890625,-0.1275658756494522,-1.31378972530365,-0.1285634338855743
2024-12-07 18:32:20.891001300,2.96400146484375,-0.0857222080230712,-1.311431050300598,-0.1215594932436943
2024-12-07 18:32:20.900975400,2.973975341796875,-0.0161721613258123,-1.06889808177948,-0.0956762284040451
2024-12-07 18:32:20.910949400,2.983949462890625,0.0385826639831066,-0.6368297934532166,-0.0629444643855094
2024-12-07 18:32:20.920923400,2.99392333984375,0.0692580193281173,-0.1274184733629226,-0.0597553253173828
2024-12-07 18:32:20.930896600,3.003896728515625,0.0706738159060478,0.242038294672966,-0.1028900668025016
2024-12-07 18:32:20.940870400,3.013870361328125,0.0858255997300148,0.2006719410419464,-0.1487555652856826
2024-12-07 18:32:20.950844400,3.023844482421875,0.0923612043261528,-0.1204606965184211,-0.1800870597362518
2024-12-07 18:32:20.960818400,3.033818359375,0.0800289064645767,-0.4308284223079681,-0.212421029806137
2024-12-07 18:32:20.970792400,3.04379248046875,0.0506512559950351,-0.5762643218040466,-0.2508240342140198
2024-12-07 18:32:20.980766500,3.053766357421875,0.0242960825562477,-0.5461592078208923,-0.2816338539123535
2024-12-07 18:32:20.990739500,3.063739501953125,0.0084913130849599,-0.3997800648212433,-0.2875427603721618
2024-12-07 18:32:21.000713500,3.07371337890625,-0.0126600442454218,-0.2129102945327758,-0.2657541036605835
2024-12-07 18:32:21.010687500,3.0836875,-0.0490325018763542,-0.0087736072018742,-0.237862691283226
2024-12-07 18:32:21.020661500,3.09366162109375,-0.0865718871355056,0.1608708202838897,-0.2300234138965606
2024-12-07 18:32:21.030635500,3.103635498046875,-0.1071278154850006,0.2592212259769439,-0.249082550406456
2024-12-07 18:32:21.040609500,3.113609619140625,-0.1145449876785278,0.2610720992088318,-0.2893620729446411
2024-12-07 18:32:21.050582500,3.12358251953125,-0.116334393620491,0.1953185498714447,-0.3577848374843597
2024-12-07 18:32:21.060556300,3.133556396484375,-0.1353581547737121,0.0669592469930648,-0.4284512996673584
2024-12-07 18:32:21.070530300,3.1435302734375,-0.1722746640443802,-0.1325454711914062,-0.4771909117698669
2024-12-07 18:32:21.080504300,3.15350439453125,-0.2198981046676635,-0.3701862692832947,-0.4954711198806762
2024-12-07 18:32:21.090478300,3.163478271484375,-0.2523408532142639,-0.6145114302635193,-0.4968554377555847
2024-12-07 18:32:21.100451600,3.17345166015625,-0.2713808715343475,-0.7966673970222473,-0.4921973049640655
2024-12-07 18:32:21.110425600,3.183425537109375,-0.2803907692432403,-0.9383747577667236,-0.4926843643188476
2024-12-07 18:32:21.120399400,3.1933994140625,-0.2832494080066681,-1.0521150827407837,-0.5086125135421753
2024-12-07 18:32:21.130373400,3.203373291015625,-0.2774852514266968,-1.095688819885254,-0.5313289165496826
2024-12-07 18:32:21.140347400,3.213347412109375,-0.262822151184082,-1.091968655586243,-0.5455318689346313
2024-12-07 18:32:21.150321400,3.2233212890625,-0.2477548569440841,-1.0299875736236572,-0.5329861044883728
2024-12-07 18:32:21.160294700,3.233294677734375,-0.2511322796344757,-0.9065380692481996,-0.4810861349105835
2024-12-07 18:32:21.170268400,3.243268310546875,-0.2511855065822601,-0.798774242401123,-0.4118635654449463
2024-12-07 18:32:21.180242400,3.253242431640625,-0.2348736375570297,-0.7513659596443176,-0.3649618327617645
2024-12-07 18:32:21.190216400,3.263216552734375,-0.2340766340494156,-0.7473198175430298,-0.3462603986263275
2024-12-07 18:32:21.200190500,3.2731904296875,-0.2440959811210632,-0.7397415041923523,-0.3601232171058655
2024-12-07 18:32:21.210164500,3.28316455078125,-0.2591707110404968,-0.685509204864502,-0.4044487774372101
2024-12-07 18:32:21.220137500,3.293137451171875,-0.2783462703227997,-0.5882537364959717,-0.4310708045959472
2024-12-07 18:32:21.230111500,3.303111572265625,-0.2838857471942901,-0.4591974318027496,-0.4144812822341919
2024-12-07 18:32:21.240085500,3.31308544921875,-0.2647413313388824,-0.3057977557182312,-0.3568571209907532
2024-12-07 18:32:21.250059500,3.3230595703125,-0.2268165349960327,-0.1291778236627578,-0.2926014959812164
2024-12-07 18:32:21.260033500,3.333033447265625,-0.178127035498619,0.0515876933932304,-0.2351792007684707
2024-12-07 18:32:21.270006500,3.343006591796875,-0.1443070918321609,0.2265209257602691,-0.187035471200943
2024-12-07 18:32:21.279980500,3.35298046875,-0.1154552027583122,0.3862799704074859,-0.1204673647880554
2024-12-07 18:32:21.289954300,3.362954345703125,-0.0963362604379654,0.5345206260681152,-0.0444028005003929
2024-12-07 18:32:21.299928300,3.37292822265625,-0.0633351653814315,0.6607241034507751,0.0475582778453826
2024-12-07 18:32:21.309902300,3.38290234375,-0.0317471846938133,0.7611320614814758,0.1293708384037017
2024-12-07 18:32:21.319876400,3.39287646484375,-0.0142531478777527,0.838900625705719,0.1912035793066024
2024-12-07 18:32:21.329849600,3.402849609375,0.0181662570685148,0.8485307097434998,0.2644328474998474
2024-12-07 18:32:21.339823400,3.4128232421875,0.0526137128472328,0.822201132774353,0.3412245512008667
2024-12-07 18:32:21.349797400,3.42279736328125,0.0954891741275787,0.7601701617240906,0.4168863892555237
2024-12-07 18:32:21.359771100,3.432771240234375,0.1471529006958007,0.7007042169570923,0.4986047148704529
2024-12-07 18:32:21.369745200,3.4427451171875,0.2341209799051284,0.6024603843688965,0.5780019164085388
2024-12-07 18:32:21.379719200,3.45271923828125,0.3475160002708435,0.5011276602745056,0.6209530830383301
2024-12-07 18:32:21.389692400,3.4626923828125,0.4378384351730346,0.4500966966152191,0.6147623062133789
2024-12-07 18:32:21.399666400,3.47266650390625,0.5024946331977844,0.5060698986053467,0.5939661860466003
2024-12-07 18:32:21.409640200,3.48264013671875,0.5532852411270142,0.670910656452179,0.6013411283493042
2024-12-07 18:32:21.419614200,3.4926142578125,0.6207260489463806,0.8899497985839844,0.64878910779953
2024-12-07 18:32:21.429588200,3.502588134765625,0.6848508715629578,1.135022521018982,0.7343345284461975
2024-12-07 18:32:21.439561200,3.512561279296875,0.7231780290603638,1.3524558544158936,0.8456929922103882
2024-12-07 18:32:21.449535200,3.52253515625,0.7328867316246033,1.5014243125915527,0.9469253420829772
2024-12-07 18:32:21.459509200,3.53250927734375,0.7229965329170227,1.5421074628829956,1.0077053308486938
2024-12-07 18:32:21.469483300,3.542483154296875,0.6953338384628296,1.3985822200775146,1.0077449083328247
2024-12-07 18:32:21.479457000,3.55245703125,0.6390809416770935,1.0113661289215088,0.9613155722618104
2024-12-07 18:32:21.489431000,3.56243115234375,0.5283890962600708,0.4664268493652344,0.918791890144348
2024-12-07 18:32:21.499404300,3.572404296875,0.3781798481941223,-0.1271203905344009,0.9275811314582824
2024-12-07 18:32:21.509378300,3.58237841796875,0.208796739578247,-0.6178669929504395,0.9382085800170898
2024-12-07 18:32:21.519352300,3.592352294921875,0.0565853714942932,-0.8038011789321899,0.913027048110962
2024-12-07 18:32:21.529326000,3.602326171875,-0.0343599282205104,-0.754077672958374,0.8617614507675171
2024-12-07 18:32:21.539300000,3.612300048828125,-0.0309209898114204,-0.4808810651302337,0.7917171120643616
2024-12-07 18:32:21.549274000,3.622274169921875,0.0363414324820041,-0.0177639294415712,0.7356374859809875
2024-12-07 18:32:21.559247400,3.632247314453125,0.1269767880439758,0.4511910378932953,0.6769416928291321
2024-12-07 18:32:21.569221400,3.642221435546875,0.1747766137123108,0.6696307063102722,0.5876719355583191
2024-12-07 18:32:21.579195100,3.652195068359375,0.160878375172615,0.6365561485290527,0.429120659828186
2024-12-07 18:32:21.589169200,3.662169189453125,0.1158472672104835,0.4944799542427063,0.2268333435058593
2024-12-07 18:32:21.599143200,3.67214306640625,0.083635002374649,0.3404903709888458,0.0578112937510013
2024-12-07 18:32:21.609116400,3.682116455078125,0.0662344694137573,0.2183214277029037,-0.0395625829696655
2024-12-07 18:32:21.619090400,3.69209033203125,0.0602503418922424,0.191797137260437,-0.0751663818955421
2024-12-07 18:32:21.629064400,3.702064453125,0.0579276718199253,0.2847767472267151,-0.0724643766880035
2024-12-07 18:32:21.639038200,3.7120380859375,0.0450156033039093,0.4498741030693054,-0.0572356209158897
2024-12-07 18:32:21.649012200,3.72201220703125,-0.0021341498941183,0.5876109004020691,-0.0620647519826889
2024-12-07 18:32:21.658986200,3.731986328125,-0.0751356557011604,0.6232815980911255,-0.1080833747982978
2024-12-07 18:32:21.668959200,3.741959228515625,-0.146500214934349,0.551513135433197,-0.2073697000741958
2024-12-07 18:32:21.678933200,3.751933349609375,-0.1855466961860656,0.4512331187725067,-0.3274170160293579
2024-12-07 18:32:21.688907300,3.7619072265625,-0.2012996226549148,0.3224948644638061,-0.4263292849063873
2024-12-07 18:32:21.698881000,3.771881103515625,-0.2179209291934967,0.2236726880073547,-0.4973637759685516
2024-12-07 18:32:21.708855000,3.78185498046875,-0.2523525655269623,0.1300823837518692,-0.5324380397796631
2024-12-07 18:32:21.718829000,3.7918291015625,-0.2990462779998779,0.040257416665554,-0.5474569797515869
2024-12-07 18:32:21.728802300,3.80180224609375,-0.3443420827388763,-0.088155522942543,-0.5228123664855957
2024-12-07 18:32:21.738776300,3.8117763671875,-0.390617698431015,-0.1961014419794082,-0.447989284992218
2024-12-07 18:32:21.748750300,3.821750244140625,-0.4387306869029999,-0.2679182291030884,-0.3282732665538788
2024-12-07 18:32:21.758724000,3.83172412109375,-0.4840803146362304,-0.3514845073223114,-0.1844415515661239
2024-12-07 18:32:21.768698000,3.841697998046875,-0.5185062885284424,-0.4449915289878845,-0.0610719621181488
2024-12-07 18:32:21.778671400,3.85167138671875,-0.5135378837585449,-0.5583478808403015,0.0063081458210945
2024-12-07 18:32:21.788645400,3.861645263671875,-0.4546965062618255,-0.7248332500457764,-0.0136302299797534
2024-12-07 18:32:21.798619400,3.871619384765625,-0.3272730410099029,-0.8916531205177307,-0.0759790912270546
2024-12-07 18:32:21.808593200,3.88159326171875,-0.1043706983327865,-0.9080139994621276,-0.1015335097908973
2024-12-07 18:32:21.818567200,3.891567138671875,0.1503446847200393,-0.736297607421875,-0.0886960104107856
2024-12-07 18:32:21.828541200,3.901541259765625,0.363623708486557,-0.4746722877025604,-0.0774094685912132
2024-12-07 18:32:21.840384300,3.91338427734375,0.5353978872299194,-0.1599239408969879,-0.0895031467080116
2024-12-07 18:32:21.850358300,3.923358154296875,0.6231802105903625,0.1123328730463981,-0.1221321746706962
2024-12-07 18:32:21.860332300,3.933332275390625,0.6501993536949158,0.3966247737407684,-0.148854061961174
2024-12-07 18:32:21.870306300,3.943306396484375,0.6215498447418213,0.5753206610679626,-0.143596738576889
2024-12-07 18:32:21.880280300,3.9532802734375,0.538925290107727,0.6207528114318848,-0.1206410750746727
2024-12-07 18:32:21.890253300,3.96325341796875,0.4283419549465179,0.5416676998138428,-0.1137460991740226
2024-12-07 18:32:21.900227300,3.973227294921875,0.3215427994728088,0.3723633587360382,-0.1455892473459243
2024-12-07 18:32:21.910201300,3.983201416015625,0.2048689574003219,0.0706720575690269,-0.1998910307884216
2024-12-07 18:32:21.920175400,3.99317529296875,0.0736222565174102,-0.2816883623600006,-0.306966096162796
2024-12-07 18:32:21.930149400,4.0031494140625,-0.0850556120276451,-0.6894824504852295,-0.4163254201412201
2024-12-07 18:32:21.940123400,4.013123291015625,-0.2253224402666092,-1.1813994646072388,-0.4527997970581054
2024-12-07 18:32:21.950096100,4.02309619140625,-0.3069108128547668,-1.616647481918335,-0.4308013021945953
2024-12-07 18:32:21.960070100,4.033070068359375,-0.3280749320983886,-1.8522017002105715,-0.3945807218551636
2024-12-07 18:32:21.970044200,4.043044189453125,-0.2771369516849518,-1.8637968301773071,-0.3503679037094116
2024-12-07 18:32:21.980018200,4.05301806640625,-0.1672109961509704,-1.6556799411773682,-0.2945728302001953
2024-12-07 18:32:21.989992200,4.0629921875,-0.0548008009791374,-1.2774391174316406,-0.2233669608831405
2024-12-07 18:32:21.999966200,4.07296630859375,0.0075304866768419,-0.7690231800079346,-0.1485065668821334
2024-12-07 18:32:22.009939200,4.082939208984375,0.0170221626758575,-0.2979385554790497,-0.0942217111587524
2024-12-07 18:32:22.019913200,4.092913330078125,-0.01252933871001,-0.050968699157238,-0.0563571564853191
2024-12-07 18:32:22.029887200,4.10288720703125,-0.0370049402117729,-0.1140052080154419,-0.0316762775182724
2024-12-07 18:32:22.039861200,4.112861328125,-0.0450266487896442,-0.4210221469402313,-0.0344981625676155
2024-12-07 18:32:22.049835300,4.122835205078125,-0.0581561289727687,-0.75163733959198,-0.0699304640293121
2024-12-07 18:32:22.059808300,4.132808349609375,-0.068993866443634,-0.91159850358963,-0.1328758746385574
2024-12-07 18:32:22.069782300,4.1427822265625,-0.0581756643950939,-0.8740551471710205,-0.2095455676317215
2024-12-07 18:32:22.079756300,4.15275634765625,-0.0283818170428276,-0.7206469774246216,-0.2845306098461151
2024-12-07 18:32:22.089730300,4.162730224609375,0.0022631052415817,-0.5250619649887085,-0.3380543887615204
2024-12-07 18:32:22.099704300,4.172704345703125,0.0129900518804788,-0.3132088184356689,-0.3548693060874939
2024-12-07 18:32:22.109678300,4.18267822265625,0.0066501013934612,-0.1004585698246955,-0.3618734776973724
2024-12-07 18:32:22.119651300,4.1926513671875,-0.0099698882550001,0.0878173261880874,-0.3580721020698547
2024-12-07 18:32:22.129625300,4.202625244140625,-0.0342905595898628,0.2214684188365936,-0.3507818579673767
2024-12-07 18:32:22.139599400,4.212599365234375,-0.0538980811834335,0.2563542127609253,-0.3470768630504608
2024-12-07 18:32:22.149573400,4.222573486328125,-0.0776621848344802,0.2306182384490966,-0.3297545909881592
2024-12-07 18:32:22.159547400,4.23254736328125,-0.1131133884191513,0.1677710860967636,-0.2956525385379791
2024-12-07 18:32:22.169521400,4.242521484375,-0.1685082912445068,0.0720725357532501,-0.240104079246521
2024-12-07 18:32:22.179494100,4.252494140625,-0.208635464310646,-0.0496331229805946,-0.2025146335363388
2024-12-07 18:32:22.189468200,4.26246826171875,-0.2193030267953872,-0.1465168595314026,-0.2170007824897766
2024-12-07 18:32:22.200065000,4.27306494140625,-0.2188063561916351,-0.2109480500221252,-0.276928037405014
2024-12-07 18:32:22.210039000,4.2830390625,-0.2017562538385391,-0.2040794193744659,-0.3637437224388122
2024-12-07 18:32:22.220013000,4.293012939453125,-0.188329666852951,-0.1608701646327972,-0.4194671809673309
2024-12-07 18:32:22.229987000,4.302987060546875,-0.176272302865982,-0.1143431961536407,-0.4263777434825897
2024-12-07 18:32:22.239961000,4.312961181640625,-0.1751007735729217,-0.0824443846940994,-0.3844838142395019
2024-12-07 18:32:22.249934000,4.32293408203125,-0.1701105535030365,-0.0420016534626483,-0.3339699506759643
2024-12-07 18:32:22.259908000,4.332908203125,-0.1690522134304046,0.0012440854916349,-0.2943234741687774
2024-12-07 18:32:22.269882000,4.342882080078125,-0.1747850775718689,0.0126753207296133,-0.2542357444763183
2024-12-07 18:32:22.279856000,4.352856201171875,-0.1883488148450851,-0.0128050055354833,-0.2253692150115966
2024-12-07 18:32:22.289830100,4.362830078125,-0.2180730700492859,-0.0415485128760337,-0.2064037472009658
2024-12-07 18:32:22.299803100,4.37280322265625,-0.2713269591331482,-0.0387500636279583,-0.1693482547998428
2024-12-07 18:32:22.309777200,4.382777099609375,-0.3039672374725342,0.0105459531769156,-0.1201724037528038
2024-12-07 18:32:22.319751200,4.392751220703125,-0.3052735328674316,0.0815804451704025,-0.0780563801527023
2024-12-07 18:32:22.329725200,4.40272509765625,-0.2843818366527557,0.1331648230552673,-0.0408075451850891
2024-12-07 18:32:22.339699200,4.41269921875,-0.2682231068611145,0.1788731813430786,-0.0022819908335804
2024-12-07 18:32:22.349673200,4.422673095703125,-0.2598720490932464,0.2375826090574264,0.0366133898496627
2024-12-07 18:32:22.359646200,4.432646240234375,-0.2587521970272064,0.2942365705966949,0.081235185265541
2024-12-07 18:32:22.369620000,4.442619873046875,-0.2361260056495666,0.3175329267978668,0.1253180056810379
2024-12-07 18:32:22.379594000,4.452593994140625,-0.211011603474617,0.3443086147308349,0.1360572129487991
2024-12-07 18:32:22.389568000,4.462568115234375,-0.1913408488035202,0.3985858261585235,0.10694570094347
2024-12-07 18:32:22.399542000,4.4725419921875,-0.1719506382942199,0.4807616770267486,0.04484423995018
2024-12-07 18:32:22.409516000,4.48251611328125,-0.176477774977684,0.5878350138664246,-0.0126241883262991
2024-12-07 18:32:22.419489000,4.492489013671875,-0.182793989777565,0.64055335521698,-0.0244214590638875
2024-12-07 18:32:22.429463000,4.502463134765625,-0.2020673155784607,0.7021170258522034,-0.0070266230031847
2024-12-07 18:32:22.439437000,4.51243701171875,-0.2106887698173523,0.7420786023139954,0.0430256240069866
2024-12-07 18:32:22.449411000,4.5224111328125,-0.1982449889183044,0.7404316663742065,0.1009204611182212
2024-12-07 18:32:22.459385000,4.532385009765625,-0.1761375516653061,0.7417046427726746,0.1550124585628509
2024-12-07 18:32:22.469359000,4.542359130859375,-0.1209132969379425,0.7085596323013306,0.2285390943288803
2024-12-07 18:32:22.479332000,4.55233203125,-0.0090964855626225,0.6172587275505066,0.3304761052131653
2024-12-07 18:32:22.489306000,4.56230615234375,0.1718347519636154,0.43867027759552,0.449648380279541
2024-12-07 18:32:22.499280100,4.572280029296875,0.3665222227573395,0.2420666962862014,0.5424622297286987
2024-12-07 18:32:22.509254100,4.582254150390625,0.4834636449813843,0.12451733648777,0.570870041847229
2024-12-07 18:32:22.519228200,4.592228271484375,0.5170578360557556,0.1186626404523849,0.5401896238327026
2024-12-07 18:32:22.529202200,4.6022021484375,0.5299052596092224,0.1925838589668274,0.5025890469551086
2024-12-07 18:32:22.539175200,4.612175048828125,0.5425198078155518,0.3027971982955932,0.4952400326728821
2024-12-07 18:32:22.549149200,4.622149169921875,0.5520960688591003,0.4439207911491394,0.5367372632026672
2024-12-07 18:32:22.559123200,4.632123291015625,0.5538090467453003,0.5913691520690918,0.6213850378990173
2024-12-07 18:32:22.569097000,4.642096923828125,0.5534125566482544,0.683944582939148,0.7159658670425415
2024-12-07 18:32:22.579071000,4.652071044921875,0.5752981901168823,0.6723345518112183,0.7921195030212402
2024-12-07 18:32:22.589044000,4.6620439453125,0.5988403558731079,0.5922260284423828,0.8416680693626404
2024-12-07 18:32:22.599018000,4.67201806640625,0.6223211288452148,0.3938503861427307,0.862162172794342
2024-12-07 18:32:22.608992000,4.681991943359375,0.6390143632888794,0.1857313215732574,0.8774996995925903
2024-12-07 18:32:22.618966000,4.691966064453125,0.652336061000824,0.0192163754254579,0.9333248734474182
2024-12-07 18:32:22.628940000,4.70193994140625,0.6524760723114014,-0.1264996528625488,1.0322879552841189
2024-12-07 18:32:22.638914000,4.7119140625,0.6473162174224854,-0.5615054368972778,1.1603566408157349
2024-12-07 18:32:22.648887000,4.721886962890625,0.6112526655197144,-1.2898070812225342,1.2497085332870483
2024-12-07 18:32:22.658861000,4.731861083984375,0.5263787508010864,-2.1071712970733643,1.2079099416732788
2024-12-07 18:32:22.668835000,4.7418349609375,0.4189023673534393,-2.6963982582092285,1.0165541172027588
2024-12-07 18:32:22.678809000,4.75180908203125,0.3248507082462311,-2.893244743347168,0.7558074593544006
2024-12-07 18:32:22.688783000,4.761783203125,0.2355468571186065,-2.6931400299072266,0.5231555104255676
2024-12-07 18:32:22.698757000,4.771757080078125,0.1735189110040664,-2.151623010635376,0.3740592300891876
2024-12-07 18:32:22.708730000,4.781730224609375,0.154363676905632,-1.3367714881896973,0.3436902165412903
2024-12-07 18:32:22.718704000,4.7917041015625,0.175149917602539,-0.5268365144729614,0.3914947509765625
2024-12-07 18:32:22.728678100,4.80167822265625,0.1857303231954574,-0.0855878740549087,0.4003628492355346
2024-12-07 18:32:22.738652200,4.811652099609375,0.1607179194688797,-0.1025681868195533,0.3142988085746765
2024-12-07 18:32:22.748626200,4.821626220703125,0.1386827081441879,-0.3692080080509186,0.1379501670598983
2024-12-07 18:32:22.758600200,4.83160009765625,0.1552022993564605,-0.6723095774650574,-0.0845092609524726
2024-12-07 18:32:22.768573000,4.841572998046875,0.2224331200122833,-0.8980349898338318,-0.3148511350154876
2024-12-07 18:32:22.778547000,4.851546875,0.3016203641891479,-1.049425482749939,-0.5275559425354004
2024-12-07 18:32:22.788521000,4.86152099609375,0.332659512758255,-1.0466283559799194,-0.6916330456733704
2024-12-07 18:32:22.798495000,4.871494873046875,0.2916297912597656,-0.9085829854011536,-0.7899225950241089
2024-12-07 18:32:22.808469000,4.881468994140625,0.2344311624765396,-0.6666953563690186,-0.7944174408912659
2024-12-07 18:32:22.818443000,4.891443115234375,0.2094176858663559,-0.442950963973999,-0.7423765659332275
2024-12-07 18:32:22.828416000,4.901416015625,0.1991436183452606,-0.3868177235126495,-0.6823676824569702
2024-12-07 18:32:22.838390000,4.91139013671875,0.1756390929222107,-0.3817308247089386,-0.6276341676712036
2024-12-07 18:32:22.848364000,4.921364013671875,0.1403617113828659,-0.371627539396286,-0.6075170040130615
2024-12-07 18:32:22.858338000,4.931338134765625,0.0993945822119712,-0.2698830664157867,-0.6215468049049377
2024-12-07 18:32:22.868312000,4.94131201171875,0.068949319422245,-0.1481270790100097,-0.6407833099365234
2024-12-07 18:32:22.878285000,4.95128515625,0.0405195392668247,-0.0745018646121025,-0.6472198963165283
2024-12-07 18:32:22.888259000,4.961259033203125,0.0121548129245638,-0.0955739319324493,-0.6212981343269348
2024-12-07 18:32:22.898233000,4.971233154296875,-0.0268916543573141,-0.136282742023468,-0.5876850485801697
2024-12-07 18:32:22.908207000,4.98120703125,-0.0718464255332946,-0.1165241822600364,-0.5842901468276978
2024-12-07 18:32:22.918181000,4.99118115234375,-0.0980407446622848,-0.0545822456479072,-0.6413755416870117
2024-12-07 18:32:22.928155100,5.001155029296875,-0.1028490588068962,0.0114181386306881,-0.7132224440574646
2024-12-07 18:32:22.938128100,5.011128173828125,-0.1008559465408325,0.043941993266344,-0.7158059477806091
2024-12-07 18:32:22.948102100,5.02110205078125,-0.1013281196355819,0.0266317445784807,-0.6453171968460083
2024-12-07 18:32:22.958076200,5.031076171875,-0.1050554811954498,0.0007958861533552,-0.5329834818840027
2024-12-07 18:32:22.968050200,5.04105029296875,-0.0970508977770805,0.0657205656170845,-0.3816262185573578
2024-12-07 18:32:22.978024200,5.051024169921875,-0.0433629006147384,0.1267951130867004,-0.2178617715835571
2024-12-07 18:32:22.987998200,5.060998291015625,0.0355128981173038,0.0963751003146171,-0.0531819015741348
2024-12-07 18:32:22.997971000,5.070970947265625,0.0860620886087417,-0.0029168687760829,0.0978076159954071
2024-12-07 18:32:23.007945000,5.080945068359375,0.0983083844184875,-0.1204352080821991,0.2139381468296051
2024-12-07 18:32:23.017919000,5.0909189453125,0.1152412965893745,-0.1630942672491073,0.3114769756793976
2024-12-07 18:32:23.027893000,5.10089306640625,0.1266290843486786,-0.0594024322926998,0.4036262035369873
2024-12-07 18:32:23.037867000,5.110866943359375,0.154129683971405,0.0925466194748878,0.4882404208183288
2024-12-07 18:32:23.047841000,5.120841064453125,0.1888663917779922,0.3220071494579315,0.5434343814849854
2024-12-07 18:32:23.057814000,5.13081396484375,0.219997152686119,0.6622933149337769,0.5576772093772888
2024-12-07 18:32:23.067788000,5.1407880859375,0.230066031217575,1.1613471508026123,0.4830397665500641
2024-12-07 18:32:23.077762000,5.150761962890625,0.222748726606369,1.7132928371429443,0.2547701001167297
2024-12-07 18:32:23.087736000,5.160736083984375,0.1552354842424392,1.9296605587005613,-0.0104336608201265
2024-12-07 18:32:23.097710000,5.1707099609375,0.0220438744872808,1.8368126153945925,-0.1563179045915603
2024-12-07 18:32:23.107684000,5.18068408203125,-0.1365264356136322,1.6897003650665283,-0.1494915634393692
2024-12-07 18:32:23.117657000,5.190656982421875,-0.2651272714138031,1.4974379539489746,-0.003015847178176
2024-12-07 18:32:23.127631000,5.200631103515625,-0.3112725913524627,1.3129637241363523,0.2804729342460632
2024-12-07 18:32:23.137605000,5.210605224609375,-0.2928911745548248,1.2375379800796509,0.5670285224914551
2024-12-07 18:32:23.147579100,5.2205791015625,-0.290363997220993,1.2264797687530518,0.6614001989364624
2024-12-07 18:32:23.157553200,5.23055322265625,-0.3568663299083709,1.320013165473938,0.5587902069091797
2024-12-07 18:32:23.167527200,5.240527099609375,-0.4171213805675506,1.4854024648666382,0.413384199142456
2024-12-07 18:32:23.177500200,5.250500244140625,-0.3452652990818023,1.2836134433746338,0.2288162410259246
2024-12-07 18:32:23.187474200,5.26047412109375,-0.1866105645895004,0.6859815120697021,0.0272294841706752
2024-12-07 18:32:23.197448200,5.2704482421875,-0.0336146242916584,-0.0407607369124889,-0.1488281041383743
2024-12-07 18:32:23.207422200,5.280422119140625,0.0388759635388851,-0.4334154427051544,-0.2732100486755371
2024-12-07 18:32:23.217396200,5.290396240234375,0.0322036817669868,-0.3762032985687256,-0.3611425757408142
2024-12-07 18:32:23.227370200,5.300370361328125,0.0241183023899793,-0.1213127523660659,-0.3910065591335296
2024-12-07 18:32:23.237343000,5.310343017578125,0.0214351676404476,0.0814454108476638,-0.3328625559806824
2024-12-07 18:32:23.247317000,5.32031689453125,-0.0234776921570301,0.1037143319845199,-0.2096806168556213
2024-12-07 18:32:23.257291000,5.330291015625,-0.1202614903450012,-0.0558108799159526,-0.0848041996359825
2024-12-07 18:32:23.267265000,5.34026513671875,-0.2401652038097381,-0.2996934652328491,-0.039090771228075
2024-12-07 18:32:23.277239000,5.350239013671875,-0.3210249245166778,-0.4869456589221954,-0.0805830880999565
2024-12-07 18:32:23.287213000,5.360213134765625,-0.3320998251438141,-0.601712167263031,-0.1781281232833862
2024-12-07 18:32:23.297186000,5.37018603515625,-0.2935681343078613,-0.6011589765548706,-0.2810262739658355
2024-12-07 18:32:23.307160000,5.38016015625,-0.2267408967018127,-0.5328198075294495,-0.3606567084789276
2024-12-07 18:32:23.317134000,5.390134033203125,-0.174119234085083,-0.48338383436203,-0.3908172845840454
2024-12-07 18:32:23.327108000,5.400108154296875,-0.1349036991596222,-0.4101803302764892,-0.4086516797542572
2024-12-07 18:32:23.337082000,5.41008203125,-0.092788465321064,-0.3070629835128784,-0.4045307040214538
2024-12-07 18:32:23.347055400,5.420055419921875,-0.0556379966437816,-0.1611947566270828,-0.3606625497341156
2024-12-07 18:32:23.357029400,5.430029296875,-0.0333516001701355,-0.0624399557709693,-0.2910967767238617
2024-12-07 18:32:23.367003400,5.44000341796875,-0.0200667306780815,-0.018241997808218,-0.2261971682310104
2024-12-07 18:32:23.376977400,5.449977294921875,-0.0231480095535516,-0.0309956092387437,-0.2152739465236663
2024-12-07 18:32:23.386951400,5.459951416015625,-0.0594252087175846,-0.080868013203144,-0.264940470457077
2024-12-07 18:32:23.396925400,5.469925537109375,-0.1148290783166885,-0.1394479572772979,-0.3424136638641357
2024-12-07 18:32:23.406898400,5.4798984375,-0.1597820818424224,-0.2097093611955642,-0.4178386628627777
2024-12-07 18:32:23.416872400,5.48987255859375,-0.1894531548023224,-0.2344080507755279,-0.4716598093509674
2024-12-07 18:32:23.426846500,5.499846435546875,-0.2103720903396606,-0.1846294850111007,-0.487909734249115
2024-12-07 18:32:23.436820500,5.509820556640625,-0.2227637767791748,-0.1025972142815589,-0.4733507633209228
2024-12-07 18:32:23.446794500,5.51979443359375,-0.2256802320480346,-0.024447675794363,-0.4323256015777588
2024-12-07 18:32:23.456768500,5.5297685546875,-0.2184984982013702,0.0228564590215683,-0.3805612027645111
2024-12-07 18:32:23.466741500,5.539741455078125,-0.2269231230020523,0.0730440914630889,-0.3462409675121307
2024-12-07 18:32:23.476715500,5.549715576171875,-0.2388650029897689,0.0767450854182243,-0.3117530345916748
2024-12-07 18:32:23.486689500,5.559689453125,-0.2558688223361969,0.0425358228385448,-0.2857759594917297
2024-12-07 18:32:23.496663600,5.56966357421875,-0.2693910002708435,-0.017155734822154,-0.2437342554330825
2024-12-07 18:32:23.506637600,5.579637451171875,-0.2755183279514313,-0.0589367821812629,-0.1999914795160293
2024-12-07 18:32:23.516611600,5.589611572265625,-0.2755862176418304,-0.0583791136741638,-0.1512630879878997
2024-12-07 18:32:23.526584300,5.599584228515625,-0.2593761384487152,-0.0241046287119388,-0.1051419451832771
2024-12-07 18:32:23.536558300,5.609558349609375,-0.2413116544485092,0.012763375416398,-0.0784309729933738
2024-12-07 18:32:23.546532400,5.619532470703125,-0.2220543175935745,0.0512315034866333,-0.0719247981905937
2024-12-07 18:32:23.556506400,5.62950634765625,-0.2076966762542724,0.0835582762956619,-0.0764830633997917
2024-12-07 18:32:23.566480400,5.63948046875,-0.2198261767625808,0.1280795186758041,-0.0689707845449447
2024-12-07 18:32:23.576454400,5.649454345703125,-0.2387804239988327,0.1723985224962234,-0.0332812294363975
2024-12-07 18:32:23.586427400,5.659427490234375,-0.2504631280899048,0.2278721183538437,0.0192196182906627
2024-12-07 18:32:23.596401400,5.6694013671875,-0.2329365760087967,0.2435376346111297,0.0921367034316062
2024-12-07 18:32:23.606375400,5.67937548828125,-0.2096390724182129,0.2762700021266937,0.1402144581079483
2024-12-07 18:32:23.616349400,5.689349365234375,-0.2124724090099334,0.3258101344108581,0.14509017765522
2024-12-07 18:32:23.626323500,5.699323486328125,-0.2325863242149353,0.4097888469696045,0.1056609749794006
2024-12-07 18:32:23.636297500,5.70929736328125,-0.2450893372297287,0.5484875440597534,0.0461153611540794
2024-12-07 18:32:23.646270500,5.7192705078125,-0.249106615781784,0.7238141894340515,0.0076933559030294
2024-12-07 18:32:23.656244500,5.729244384765625,-0.2473292201757431,0.9125774502754213,0.013227405026555
2024-12-07 18:32:23.666218500,5.739218505859375,-0.2513260245323181,1.0838463306427002,0.0658719912171363
2024-12-07 18:32:23.676192500,5.749192626953125,-0.2430624812841415,1.1731557846069336,0.1236141175031662
2024-12-07 18:32:23.686166500,5.75916650390625,-0.2276753336191177,1.1535050868988037,0.1706309616565704
2024-12-07 18:32:23.696140500,5.769140625,-0.2075064033269882,1.0390446186065674,0.2243549078702926
2024-12-07 18:32:23.706113500,5.779113525390625,-0.1889577656984329,0.8769974112510681,0.2721141576766968
2024-12-07 18:32:23.716087600,5.789087646484375,-0.1392679661512375,0.627670168876648,0.330561488866806
2024-12-07 18:32:23.726061600,5.7990615234375,-0.0897526741027832,0.4170339107513428,0.3357091844081878
2024-12-07 18:32:23.736035600,5.80903564453125,0.005130966193974,0.1741794645786285,0.3235286772251129
2024-12-07 18:32:23.746009600,5.819009521484375,0.0745229870080947,0.0283199325203895,0.2954899370670318
2024-12-07 18:32:23.755982300,5.828982421875,0.1230662912130355,-0.0492507591843605,0.306418240070343
2024-12-07 18:32:23.765956400,5.838956298828125,0.1679345220327377,-0.0804693773388862,0.3472777605056762
2024-12-07 18:32:23.775930400,5.848930419921875,0.213081493973732,-0.0466480292379856,0.4141792953014374
2024-12-07 18:32:23.785904400,5.858904296875,0.2631633579730987,0.0087849646806716,0.4819203019142151
2024-12-07 18:32:23.795878400,5.86887841796875,0.2929076552391052,0.1342952251434326,0.529964804649353
2024-12-07 18:32:23.805852400,5.878852294921875,0.3044148683547973,0.2358880043029785,0.5534999966621399
2024-12-07 18:32:23.815825400,5.888825439453125,0.2532795071601867,0.3538492619991302,0.552959144115448
2024-12-07 18:32:23.825799400,5.89879931640625,0.2231336236000061,0.4937942624092102,0.5459362864494324
2024-12-07 18:32:23.835773400,5.9087734375,0.2426857501268386,0.6230998039245605,0.5339105129241943
2024-12-07 18:32:23.845747500,5.91874755859375,0.3236975967884063,0.7240908145904541,0.510887622833252
2024-12-07 18:32:23.855721500,5.928721435546875,0.4513492882251739,0.7691392302513123,0.4900928437709808
2024-12-07 18:32:23.865695500,5.938695556640625,0.5956791639328003,0.8027454018592834,0.5429677963256836
2024-12-07 18:32:23.875668500,5.94866845703125,0.6697224974632263,0.8321874737739563,0.7173132300376892
2024-12-07 18:32:23.885642500,5.958642578125,0.6295487284660339,0.8623471260070801,0.9069945812225342
2024-12-07 18:32:23.895616500,5.968616455078125,0.5257171392440796,0.8729960918426514,1.0390013456344604
2024-12-07 18:32:23.905590500,5.978590576171875,0.457576721906662,0.8363975882530212,1.0890573263168335
2024-12-07 18:32:23.915564500,5.988564453125,0.4447610676288605,0.7701128125190735,1.0523672103881836
2024-12-07 18:32:23.925538600,5.99853857421875,0.4520374536514282,0.7014973759651184,0.9512282013893129
2024-12-07 18:32:23.935511600,6.008511474609375,0.3987856805324554,0.6550566554069519,0.882911741733551
2024-12-07 18:32:23.945485600,6.018485595703125,0.2849606275558471,0.6108700633049011,0.8841922283172607
2024-12-07 18:32:23.955459600,6.02845947265625,0.1398844122886657,0.5803108215332031,0.9120230674743652
2024-12-07 18:32:23.965433600,6.03843359375,0.0215509608387947,0.5922017693519592,0.8810968995094299
2024-12-07 18:32:23.975407600,6.04840771484375,-0.0482235923409462,0.5947210788726807,0.7631915211677551
2024-12-07 18:32:23.985381600,6.058381591796875,-0.0616809725761413,0.5624599456787109,0.5875273942947388
2024-12-07 18:32:23.995354400,6.068354248046875,-0.0188975576311349,0.4924715161323547,0.4067006409168243
2024-12-07 18:32:24.005328400,6.078328369140625,0.0080500533804297,0.3875204622745514,0.2778709828853607
2024-12-07 18:32:24.015302400,6.088302490234375,0.0115616973489522,0.2606652975082397,0.1452146470546722
2024-12-07 18:32:24.025276400,6.0982763671875,0.0241589024662971,0.0925932601094245,-0.0014291913248598
2024-12-07 18:32:24.035250400,6.10825048828125,0.0981638878583908,-0.2236973196268081,-0.093171626329422
2024-12-07 18:32:24.045224400,6.118224365234375,0.1667069345712661,-0.5524898171424866,-0.1049261763691902
2024-12-07 18:32:24.055197400,6.128197509765625,0.1722585707902908,-0.7508851885795593,-0.0905586928129196
2024-12-07 18:32:24.065171500,6.13817138671875,0.156800776720047,-0.7751258015632629,-0.1067903935909271
2024-12-07 18:32:24.075145500,6.1481455078125,0.1649330109357834,-0.6863077878952026,-0.1550439298152923
2024-12-07 18:32:24.085119500,6.158119384765625,0.1906491369009018,-0.5379961729049683,-0.2117449939250946
2024-12-07 18:32:24.095093500,6.168093505859375,0.215849831700325,-0.3889438807964325,-0.257477343082428
2024-12-07 18:32:24.105066500,6.17806640625,0.2280024141073227,-0.2663280963897705,-0.2863222956657409
2024-12-07 18:32:24.115040500,6.18804052734375,0.2161388397216797,-0.1626078188419342,-0.326253205537796
2024-12-07 18:32:24.125014500,6.1980146484375,0.1892255544662475,-0.1107275933027267,-0.3906766474246979
2024-12-07 18:32:24.134988500,6.207988525390625,0.153736799955368,-0.132969245314598,-0.4700617492198944
2024-12-07 18:32:24.144962600,6.217962646484375,0.1357128918170929,-0.1876526772975921,-0.5533328056335449
2024-12-07 18:32:24.154936600,6.2279365234375,0.1266480237245559,-0.2499208599328994,-0.6234463453292847
2024-12-07 18:32:24.164910600,6.23791064453125,0.1298950761556625,-0.3143175840377807,-0.671410083770752
2024-12-07 18:32:24.174883600,6.247883544921875,0.1142588555812835,-0.4082744419574737,-0.686572253704071
2024-12-07 18:32:24.184857600,6.257857666015625,0.0518406108021736,-0.5483089685440063,-0.6799172163009644
2024-12-07 18:32:24.194831600,6.26783154296875,-0.0183312892913818,-0.6526151299476624,-0.668810248374939
2024-12-07 18:32:24.204805400,6.277805419921875,-0.080401673913002,-0.684252142906189,-0.6443066596984863
2024-12-07 18:32:24.214779400,6.287779296875,-0.1952446401119232,-0.6892796754837036,-0.6035019755363464
2024-12-07 18:32:24.224752400,6.29775244140625,-0.3248892426490783,-0.55710768699646,-0.5254496335983276
2024-12-07 18:32:24.234726400,6.307726318359375,-0.362722635269165,-0.3235551714897156,-0.4068985283374786
2024-12-07 18:32:24.244700400,6.317700439453125,-0.333623856306076,-0.1247388496994972,-0.303303986787796
2024-12-07 18:32:24.254674400,6.32767431640625,-0.2968751490116119,0.007416526786983,-0.2359459698200225
2024-12-07 18:32:24.264648400,6.3376484375,-0.2875548899173736,0.0564634315669536,-0.1794643253087997
2024-12-07 18:32:24.274622500,6.34762255859375,-0.2980815768241882,0.0297681726515293,-0.1324848234653473
2024-12-07 18:32:24.284595500,6.357595458984375,-0.2866303026676178,-0.0449070893228054,-0.0767817124724388
2024-12-07 18:32:24.294569500,6.367569580078125,-0.2319337874650955,-0.0938631743192672,0.0159769859164953
2024-12-07 18:32:24.304543500,6.37754345703125,-0.1566580235958099,-0.1003287956118583,0.1444310694932937
2024-12-07 18:32:24.314517500,6.387517578125,-0.0864131450653076,-0.1110855713486671,0.2713996767997741
2024-12-07 18:32:24.324491500,6.397491455078125,-0.0017130110645666,-0.1324646770954132,0.3556097149848938
2024-12-07 18:32:24.334465500,6.407465576171875,0.1285784244537353,-0.0476288832724094,0.3834570646286011
2024-12-07 18:32:24.344438500,6.4174384765625,0.3378214836120605,0.1896314173936844,0.3789252638816833
2024-12-07 18:32:24.354412500,6.42741259765625,0.5014604926109314,0.6283161044120789,0.3600844740867615
2024-12-07 18:32:24.364386600,6.437386474609375,0.4975433945655823,1.0970767736434937,0.3021380603313446
2024-12-07 18:32:24.374360600,6.447360595703125,0.3491613864898681,1.1247987747192385,0.2860562801361084
2024-12-07 18:32:24.384334600,6.45733447265625,0.1468926817178726,0.6948582530021667,0.2790216207504272
2024-12-07 18:32:24.394307300,6.467307373046875,-0.0399392507970333,0.1507307440042495,0.2130862772464752
2024-12-07 18:32:24.404281300,6.47728125,-0.1716523617506027,-0.2864457666873932,0.0817503333091735
2024-12-07 18:32:24.414255400,6.48725537109375,-0.2531439960002899,-0.5651392340660095,-0.06003849953413
2024-12-07 18:32:24.424229400,6.4972294921875,-0.3310276865959167,-0.8065674304962158,-0.1402171701192855
2024-12-07 18:32:24.434203400,6.507203369140625,-0.3670565187931061,-1.0621405839920044,-0.1629078388214111
2024-12-07 18:32:24.444177400,6.517177490234375,-0.3490428328514099,-1.1987590789794922,-0.1338426917791366
2024-12-07 18:32:24.454150400,6.527150390625,-0.2959804236888885,-1.1762326955795288,-0.0975746884942054
2024-12-07 18:32:24.464124400,6.53712451171875,-0.2258490622043609,-1.1012320518493652,-0.115508958697319
2024-12-07 18:32:24.474098400,6.547098388671875,-0.1388081759214401,-0.9794859290122986,-0.244548425078392
2024-12-07 18:32:24.484072400,6.557072509765625,-0.0837420001626014,-0.8237930536270142,-0.4449799358844757
2024-12-07 18:32:24.494046500,6.56704638671875,-0.0911756828427314,-0.6645466685295105,-0.6092386841773987
2024-12-07 18:32:24.504020500,6.5770205078125,-0.1432541459798813,-0.575458824634552,-0.6634726524353027
2024-12-07 18:32:24.513993500,6.586993408203125,-0.2013816237449646,-0.5449357628822327,-0.6242064833641052
2024-12-07 18:32:24.523967500,6.596967529296875,-0.2139295488595962,-0.5413945913314819,-0.5459839105606079
2024-12-07 18:32:24.533941500,6.60694140625,-0.190198928117752,-0.4997669756412506,-0.4813085198402405
2024-12-07 18:32:24.543915500,6.61691552734375,-0.1626733690500259,-0.431971400976181,-0.4616437554359436
2024-12-07 18:32:24.553889500,6.6268896484375,-0.1355264335870742,-0.4093707501888275,-0.4946832060813904
2024-12-07 18:32:24.563863600,6.636863525390625,-0.1174998208880424,-0.4602106809616089,-0.538506805896759
2024-12-07 18:32:24.573836500,6.64683642578125,-0.0924613177776336,-0.5825466513633728,-0.5799767374992371
2024-12-07 18:32:24.583810600,6.656810546875,-0.0602492354810237,-0.7369192242622375,-0.6065723299980164
2024-12-07 18:32:24.593784600,6.66678466796875,-0.0388081222772598,-0.8675155639648438,-0.6102770566940308
2024-12-07 18:32:24.603758600,6.676758544921875,-0.0352564491331577,-0.9425086379051208,-0.5925789475440979
2024-12-07 18:32:24.613732600,6.686732666015625,-0.0448163971304893,-0.9617906808853148,-0.5570505261421204
2024-12-07 18:32:24.623706600,6.69670654296875,-0.0600426420569419,-0.9186442494392396,-0.5201473236083984
2024-12-07 18:32:24.633679400,6.706679443359375,-0.070208728313446,-0.8473945260047913,-0.4840510487556457
2024-12-07 18:32:24.643653400,6.7166533203125,-0.0777694806456565,-0.7631005644798279,-0.4428509771823883
2024-12-07 18:32:24.653627400,6.72662744140625,-0.0867781564593315,-0.6633428335189819,-0.4099209904670715
2024-12-07 18:32:24.663601400,6.736601318359375,-0.1079164668917656,-0.5632180571556091,-0.3915760219097137
2024-12-07 18:32:24.673575400,6.746575439453125,-0.1484915912151336,-0.4733252227306366,-0.3776759207248688
2024-12-07 18:32:24.683549400,6.756549560546875,-0.2094016671180725,-0.4082075655460357,-0.3541338741779327
2024-12-07 18:32:24.693522400,6.7665224609375,-0.2460611462593078,-0.3476006984710693,-0.33494633436203
2024-12-07 18:32:24.703496400,6.776496337890625,-0.259170651435852,-0.3214356899261474,-0.3089820444583893
2024-12-07 18:32:24.713470500,6.786470458984375,-0.2439634799957275,-0.2825804352760315,-0.304338276386261
2024-12-07 18:32:24.723444500,6.796444580078125,-0.1896143704652786,-0.2449179291725158,-0.3355762660503387
2024-12-07 18:32:24.733418500,6.80641845703125,-0.1483428329229354,-0.2726331949234009,-0.3474036455154419
2024-12-07 18:32:24.743391500,6.8163916015625,-0.1014730632305145,-0.2958402633666992,-0.350290447473526
2024-12-07 18:32:24.753365500,6.826365478515625,-0.0519414655864238,-0.3365810215473175,-0.3436828851699829
2024-12-07 18:32:24.763339500,6.836339599609375,-0.0480023622512817,-0.3604412972927093,-0.2999041080474853
2024-12-07 18:32:24.773313500,6.8463134765625,-0.0698088556528091,-0.3135366141796112,-0.2426059246063232
2024-12-07 18:32:24.783287600,6.85628759765625,-0.0765329897403717,-0.2247425764799118,-0.187771201133728
2024-12-07 18:32:24.793261600,6.866261474609375,-0.0917084738612175,-0.1179833635687828,-0.1370587646961212
2024-12-07 18:32:24.803234600,6.876234619140625,-0.1224657520651817,-0.0165770966559648,-0.0888651907444
2024-12-07 18:32:24.813208600,6.88620849609375,-0.1575241386890411,0.0738595947623252,-0.0662746578454971
2024-12-07 18:32:24.823182600,6.8961826171875,-0.2052351981401443,0.1570295840501785,-0.048859167844057
2024-12-07 18:32:24.833156600,6.906156494140625,-0.230887308716774,0.2293224185705185,-0.0376624427735805
2024-12-07 18:32:24.843130600,6.916130615234375,-0.2469090074300766,0.313939481973648,-0.022818611934781
2024-12-07 18:32:24.853104600,6.926104736328125,-0.2381099164485931,0.4082830250263214,-0.0067858509719371
2024-12-07 18:32:24.863077400,6.936077392578125,-0.2119027972221374,0.5527851581573486,-0.0106544252485036
2024-12-07 18:32:24.873051400,6.946051513671875,-0.182359293103218,0.6848022937774658,0.0145284254103899
2024-12-07 18:32:24.883025400,6.956025390625,-0.1668858230113983,0.8248913884162903,0.0810388773679733
2024-12-07 18:32:24.892999400,6.96599951171875,-0.1438793092966079,0.8992311358451843,0.1864840686321258
2024-12-07 18:32:24.902973400,6.975973388671875,-0.123304896056652,0.9285021424293518,0.2975545823574066
2024-12-07 18:32:24.912947500,6.985947509765625,-0.0786940231919288,0.8997386693954468,0.3818827867507934
2024-12-07 18:32:24.922920400,6.99592041015625,-0.0365583263337612,0.8348210453987122,0.4055326879024505
2024-12-07 18:32:24.932894500,7.00589453125,0.0066882139071822,0.6948714256286621,0.416339248418808
2024-12-07 18:32:24.942868500,7.015868408203125,0.0285149924457073,0.5523439645767212,0.4308162331581116
2024-12-07 18:32:24.952842500,7.025842529296875,0.0590228326618671,0.4611615836620331,0.4647305309772491
2024-12-07 18:32:24.962816500,7.03581640625,0.1295316666364669,0.383299708366394,0.5110766291618347
2024-12-07 18:32:24.972790500,7.04579052734375,0.2321318089962005,0.2871521413326263,0.5607525706291199
2024-12-07 18:32:24.982763500,7.055763427734375,0.3427143096923828,0.170083686709404,0.610126793384552
2024-12-07 18:32:24.992737500,7.065737548828125,0.3810148239135742,0.0980070903897285,0.6436626315116882
2024-12-07 18:32:25.002711600,7.075711669921875,0.356199711561203,0.1066496893763542,0.6826050877571106
2024-12-07 18:32:25.012685600,7.085685546875,0.3330128788948059,0.2249137610197067,0.7475488781929016
2024-12-07 18:32:25.022659600,7.09565966796875,0.3620907366275787,0.4484502971172333,0.8289848566055298
2024-12-07 18:32:25.032632600,7.105632568359375,0.4458029270172119,0.7238709926605225,0.9130696058273317
2024-12-07 18:32:25.042606600,7.115606689453125,0.545387864112854,1.0055773258209229,0.9771081805229188
2024-12-07 18:32:25.052580600,7.12558056640625,0.637448251247406,1.2569276094436646,1.0166335105895996
2024-12-07 18:32:25.062554600,7.1355546875,0.7128400802612305,1.3901033401489258,1.0697720050811768
2024-12-07 18:32:25.072528600,7.145528564453125,0.7595247626304626,1.2761703729629517,1.1422334909439087
2024-12-07 18:32:25.082502700,7.155502685546875,0.7428694367408752,0.8720299601554871,1.224423885345459
2024-12-07 18:32:25.092475400,7.165475341796875,0.6676526665687561,0.2345576584339141,1.2928866147994995
2024-12-07 18:32:25.102449400,7.175449462890625,0.4961791336536407,-0.57245934009552,1.3067033290863037
2024-12-07 18:32:25.112423400,7.18542333984375,0.2374767512083053,-1.2105220556259155,1.2509865760803225
2024-12-07 18:32:25.122397400,7.1953974609375,0.0297349132597446,-1.567534565925598,1.0921109914779663
2024-12-07 18:32:25.132371500,7.205371337890625,-0.0639023631811142,-1.5948796272277832,0.8712491393089294
2024-12-07 18:32:25.142345500,7.215345458984375,-0.027938412502408,-1.0985565185546875,0.6602705717086792
2024-12-07 18:32:25.152318500,7.225318359375,0.0703317001461982,-0.057870078831911,0.5632013082504272
2024-12-07 18:32:25.162292500,7.23529248046875,0.1905587911605835,1.1441065073013306,0.5641833543777466
2024-12-07 18:32:25.172266500,7.2452666015625,0.3155534863471985,1.925682783126831,0.5864726901054382
2024-12-07 18:32:25.182240500,7.255240478515625,0.3942118287086487,2.067286491394043,0.5477941036224365
2024-12-07 18:32:25.192214500,7.265214599609375,0.4300449192523956,1.6946957111358645,0.4105646312236786
2024-12-07 18:32:25.202188500,7.2751884765625,0.4090987145900726,1.0686235427856443,0.220423474907875
2024-12-07 18:32:25.212161500,7.28516162109375,0.3429053127765655,0.4335096180438995,0.0280838478356599
2024-12-07 18:32:25.222135600,7.295135498046875,0.2624439001083374,-0.0463334359228611,-0.1267213970422744
2024-12-07 18:32:25.232109600,7.305109619140625,0.1927236914634704,-0.3120971918106079,-0.2274876832962036
2024-12-07 18:32:25.242083600,7.31508349609375,0.134916141629219,-0.3890345990657806,-0.2748197615146637
2024-12-07 18:32:25.252057600,7.3250576171875,0.1103511378169059,-0.3219216167926788,-0.2873792052268982
2024-12-07 18:32:25.262031600,7.335031494140625,0.108360931277275,-0.1898685693740844,-0.2846882343292236
2024-12-07 18:32:25.272004600,7.345004638671875,0.0941764041781425,-0.0435284040868282,-0.2823808789253235
2024-12-07 18:32:25.281978600,7.354978515625,0.0649758726358413,0.0868814066052436,-0.3072742521762848
2024-12-07 18:32:25.291952600,7.36495263671875,0.0196214355528354,0.2262973636388778,-0.3805039823055267
2024-12-07 18:32:25.301926400,7.374926513671875,-0.014503763988614,0.313005119562149,-0.4778415560722351
2024-12-07 18:32:25.311900400,7.384900390625,-0.0393822155892849,0.3409936130046844,-0.5788491368293762
2024-12-07 18:32:25.321873400,7.394873291015625,-0.0542441084980964,0.2749979794025421,-0.6658642888069153
2024-12-07 18:32:25.331847400,7.404847412109375,-0.072200208902359,0.1174086406826973,-0.7215160727500916
2024-12-07 18:32:25.341821400,7.414821533203125,-0.1295830011367797,-0.0862811505794525,-0.7399706244468689
2024-12-07 18:32:25.351795000,7.424794921875,-0.2208143770694732,-0.2827707827091217,-0.7247059345245361
2024-12-07 18:32:25.361769000,7.43476904296875,-0.3265641331672668,-0.4268043935298919,-0.698946475982666
2024-12-07 18:32:25.371743000,7.444742919921875,-0.4362421631813049,-0.5351143479347229,-0.6780681014060974
2024-12-07 18:32:25.381716000,7.454716064453125,-0.5475002527236938,-0.6327650547027588,-0.6770015358924866
2024-12-07 18:32:25.391690000,7.46468994140625,-0.6461208462715149,-0.6954702138900757,-0.7024427056312561
2024-12-07 18:32:25.401664000,7.4746640625,-0.6937595009803772,-0.7352101802825928,-0.7368290424346924
2024-12-07 18:32:25.411638000,7.484637939453125,-0.6656348705291748,-0.7605400681495667,-0.7142347693443298
2024-12-07 18:32:25.421612000,7.494612060546875,-0.5569361448287964,-0.7373821139335632,-0.584256649017334
2024-12-07 18:32:25.431586000,7.5045859375,-0.3807693719863891,-0.6827926635742188,-0.3002659678459167
2024-12-07 18:32:25.441559000,7.51455908203125,-0.1344026029109954,-0.4608670473098755,0.0620741844177246
2024-12-07 18:32:25.451533000,7.524532958984375,0.2010896503925323,0.1420255005359649,0.3058040142059326
2024-12-07 18:32:25.461507000,7.534507080078125,0.5761284232139587,0.8860279321670532,0.3305695056915283
2024-12-07 18:32:25.471481000,7.544481201171875,0.7850823998451233,1.518235206604004,0.204134315252304
2024-12-07 18:32:25.481455000,7.554455078125,0.6701673865318298,1.9206509590148928,0.1042671874165535
2024-12-07 18:32:25.491429000,7.56442919921875,0.3638668358325958,1.9337701797485352,0.0514401905238628
2024-12-07 18:32:25.501401900,7.57440185546875,0.0999079942703247,1.5415414571762085,-0.0063696214929223
2024-12-07 18:32:25.511376000,7.5843759765625,-0.0807659178972244,1.0210373401641846,-0.074413388967514
2024-12-07 18:32:25.521350000,7.594349853515625,-0.1809607446193695,0.3914732336997986,-0.1844588071107864
2024-12-07 18:32:25.531324000,7.604323974609375,-0.2607360184192657,-0.1999083161354065,-0.2888022661209106
2024-12-07 18:32:25.541298000,7.6142978515625,-0.3955865204334259,-0.5741687417030334,-0.2290483266115188
2024-12-07 18:32:25.551272000,7.62427197265625,-0.5139642953872681,-0.8918132781982422,-0.066219724714756
2024-12-07 18:32:25.561245000,7.634244873046875,-0.5449244976043701,-1.3156871795654297,0.0786473304033279
2024-12-07 18:32:25.571219000,7.644218994140625,-0.4521136581897735,-1.813361406326294,0.1170842051506042
2024-12-07 18:32:25.581193000,7.65419287109375,-0.274878978729248,-1.9712507724761963,0.0195411257445812
2024-12-07 18:32:25.591167000,7.6641669921875,-0.1398399323225021,-1.5021774768829346,-0.1498729288578033
2024-12-07 18:32:25.601141000,7.67414111328125,-0.0553659498691558,-0.6614198684692383,-0.2995129227638244
2024-12-07 18:32:25.611114000,7.684114013671875,0.0639021173119545,-0.005710482597351,-0.4083645939826965
2024-12-07 18:32:25.621088000,7.694087890625,0.1722248941659927,0.1595797389745712,-0.4517348408699035
2024-12-07 18:32:25.631062000,7.70406201171875,0.2010605335235595,-0.0098873218521475,-0.4393940269947052
2024-12-07 18:32:25.641036000,7.7140361328125,0.1549525707960128,-0.3322010040283203,-0.390108585357666
2024-12-07 18:32:25.651010000,7.724010009765625,0.0644370540976524,-0.6407356858253479,-0.3255423903465271
2024-12-07 18:32:25.660984000,7.733984130859375,-0.0541287846863269,-0.7998942732810974,-0.2649714350700378
2024-12-07 18:32:25.670957000,7.74395703125,-0.1611399203538894,-0.7943053841590881,-0.2330153733491897
2024-12-07 18:32:25.680931000,7.75393115234375,-0.2355243414640426,-0.6971826553344727,-0.233002170920372
2024-12-07 18:32:25.690905000,7.763905029296875,-0.2795178890228271,-0.5677237510681152,-0.2387668490409851
2024-12-07 18:32:25.700879000,7.773879150390625,-0.3015076518058777,-0.444157063961029,-0.2574051916599273
2024-12-07 18:32:25.710853000,7.78385302734375,-0.2858980596065521,-0.3087558150291443,-0.3081647753715515
2024-12-07 18:32:25.720827100,7.7938271484375,-0.2495445162057876,-0.1688379496335983,-0.3773330450057983
2024-12-07 18:32:25.730799900,7.8037998046875,-0.2123175114393234,-0.0395747683942317,-0.4433682560920715
2024-12-07 18:32:25.740774000,7.81377392578125,-0.1948819905519485,0.0350658372044563,-0.4770546853542328
2024-12-07 18:32:25.750748000,7.823747802734375,-0.1979137361049652,0.0247354358434677,-0.4918379187583923
2024-12-07 18:32:25.760722000,7.833721923828125,-0.2299226075410843,-0.1060547307133674,-0.4835644066333771
2024-12-07 18:32:25.770696000,7.843696044921875,-0.2629444599151611,-0.2801394164562225,-0.479572594165802
2024-12-07 18:32:25.780670000,7.853669921875,-0.2858355045318603,-0.4876787662506103,-0.4671534895896911
2024-12-07 18:32:25.790643000,7.863642822265625,-0.292434811592102,-0.6779198050498962,-0.4700757563114166
2024-12-07 18:32:25.800617000,7.873616943359375,-0.2902037799358368,-0.8423548936843872,-0.4785069823265075
2024-12-07 18:32:25.810591000,7.883591064453125,-0.274748146533966,-0.9211061596870422,-0.5001707673072815
2024-12-07 18:32:25.820565000,7.89356494140625,-0.2582373321056366,-0.9332294464111328,-0.5080682635307312
2024-12-07 18:32:25.830539000,7.9035390625,-0.2284871786832809,-0.8781792521476746,-0.5022567510604858
2024-12-07 18:32:25.843628800,7.91662890625,-0.1817444860935211,-0.7447959780693054,-0.4755327999591827
2024-12-07 18:32:25.853602800,7.926602783203125,-0.1425521075725555,-0.6310215592384338,-0.4532059133052826
2024-12-07 18:32:25.863576800,7.936576904296875,-0.1018475592136383,-0.5501624345779419,-0.4414600431919098
2024-12-07 18:32:25.873550800,7.94655078125,-0.0858802050352096,-0.4740005135536194,-0.4421405494213104
2024-12-07 18:32:25.883524900,7.95652490234375,-0.1172543764114379,-0.3873654901981354,-0.4350035190582275
2024-12-07 18:32:25.893499000,7.966498779296875,-0.1626338958740234,-0.2886220216751098,-0.4173582196235657
2024-12-07 18:32:25.903471900,7.976471923828125,-0.2023895531892776,-0.1810500025749206,-0.3827994465827942
2024-12-07 18:32:25.913446000,7.98644580078125,-0.2317761927843094,-0.0577267035841941,-0.3291200399398803
2024-12-07 18:32:25.923420000,7.996419921875,-0.2529869377613067,0.0576938986778259,-0.2666404247283935
2024-12-07 18:32:25.933394000,8.006393798828125,-0.2564072012901306,0.1326912194490432,-0.2033182382583618
2024-12-07 18:32:25.943368000,8.016367919921874,-0.2657352089881897,0.1947902739048004,-0.1433853954076767
2024-12-07 18:32:25.953342000,8.026342041015624,-0.2700146436691284,0.276190310716629,-0.1212382838129997
2024-12-07 18:32:25.963315000,8.03631494140625,-0.2607540190219879,0.4024185538291931,-0.1360832750797271
2024-12-07 18:32:25.973289000,8.0462890625,-0.2668958306312561,0.5343016982078552,-0.1297507435083389
2024-12-07 18:32:25.983263000,8.056262939453125,-0.271420270204544,0.6677300930023193,-0.0912110805511474
2024-12-07 18:32:25.993237000,8.066237060546875,-0.2598888576030731,0.758814811706543,-0.0067280274815857
2024-12-07 18:32:26.003211000,8.0762109375,-0.2354399710893631,0.8035010695457458,0.0921143963932991
2024-12-07 18:32:26.013185000,8.08618505859375,-0.2105751037597656,0.8179728984832764,0.1567760109901428
2024-12-07 18:32:26.023158000,8.096157958984374,-0.2086616307497024,0.800133466720581,0.1819692403078079
2024-12-07 18:32:26.033132000,8.106132080078124,-0.2153850048780441,0.720994234085083,0.1747148633003235
2024-12-07 18:32:26.043106000,8.11610595703125,-0.2181269973516464,0.5994377136230469,0.1491357386112213
2024-12-07 18:32:26.053080000,8.126080078125,-0.193189799785614,0.4787338972091675,0.1127789095044136
2024-12-07 18:32:26.063054000,8.13605419921875,-0.151047945022583,0.3707869052886963,0.124494157731533
2024-12-07 18:32:26.073026800,8.14602685546875,-0.0873107612133026,0.3133830428123474,0.2105994075536728
2024-12-07 18:32:26.083000800,8.156000732421875,0.0010827502701431,0.3040968477725982,0.3273167014122009
2024-12-07 18:32:26.092974800,8.165974853515625,0.0989308059215545,0.3151670396327972,0.3904913067817688
2024-12-07 18:32:26.102948900,8.175948974609375,0.1780011355876922,0.3025891780853271,0.3912833333015442
2024-12-07 18:32:26.112923000,8.1859228515625,0.2619286477565765,0.1784372180700302,0.3733965456485748
2024-12-07 18:32:26.122897000,8.19589697265625,0.3405233323574066,-0.0204857308417558,0.3473822772502899
2024-12-07 18:32:26.132870000,8.205869873046876,0.4200717210769653,-0.2767815589904785,0.3412623405456543
2024-12-07 18:32:26.142844000,8.215843994140625,0.4548145234584808,-0.4638949930667877,0.3353413343429565
2024-12-07 18:32:26.152818000,8.22581787109375,0.4369159638881683,-0.5329266786575317,0.3339504301548004
2024-12-07 18:32:26.163415800,8.236415771484374,0.3912406265735626,-0.4486062228679657,0.3502971827983856
2024-12-07 18:32:26.173389000,8.24638916015625,0.359830766916275,-0.2422163039445877,0.3971579074859619
2024-12-07 18:32:26.183363000,8.256363037109375,0.36231130361557,0.0479504354298114,0.4591114819049835
2024-12-07 18:32:26.193337000,8.266337158203125,0.4147132635116577,0.3876872360706329,0.5204159021377563
2024-12-07 18:32:26.203310800,8.276310791015625,0.5264139771461487,0.7471038103103638,0.6013238430023193
2024-12-07 18:32:26.213284900,8.286284912109375,0.6547418832778931,1.0871950387954712,0.7011172771453857
2024-12-07 18:32:26.223259000,8.2962587890625,0.7663627862930298,1.313900113105774,0.7988783121109009
2024-12-07 18:32:26.233232100,8.306232177734374,0.8236873745918274,1.4176390171051023,0.8712717890739441
2024-12-07 18:32:26.243206100,8.3162060546875,0.8384173512458801,1.367647647857666,0.9136384129524232
2024-12-07 18:32:26.253180000,8.326179931640626,0.7920453548431396,1.1032161712646484,0.9664864540100098
2024-12-07 18:32:26.263154000,8.33615380859375,0.6916834115982056,0.8228808045387268,0.9889159202575684
2024-12-07 18:32:26.273128000,8.3461279296875,0.5817249417304993,0.4333508908748626,0.9595503211021424
2024-12-07 18:32:26.283102000,8.35610205078125,0.5298081636428833,0.0416705310344696,0.8749068975448608
2024-12-07 18:32:26.293075200,8.3660751953125,0.4961548745632171,-0.2244016379117965,0.7871536016464233
2024-12-07 18:32:26.303049000,8.376049072265625,0.4176687896251678,-0.4337004125118255,0.7498704791069031
2024-12-07 18:32:26.313023000,8.38602294921875,0.2859376668930053,-0.6661533713340759,0.7418658137321472
2024-12-07 18:32:26.322997000,8.3959970703125,0.1412193775177002,-0.8723520040512085,0.7251040935516357
2024-12-07 18:32:26.332971000,8.405970947265626,0.0047201248817145,-0.9820460081100464,0.6933925151824951
2024-12-07 18:32:26.342945000,8.415945068359376,-0.1156933978199958,-0.9720171689987184,0.6367619037628174
2024-12-07 18:32:26.352918300,8.425918212890625,-0.1982604414224624,-0.8257028460502625,0.5443070530891418
2024-12-07 18:32:26.362892000,8.43589208984375,-0.2180105894804,-0.5154199600219727,0.4802753329277038
2024-12-07 18:32:26.372866000,8.445865966796875,-0.1757326424121856,-0.1413904428482055,0.4663238227367401
2024-12-07 18:32:26.382840000,8.455840087890625,-0.1020156890153884,0.1561760455369949,0.4393839836120605
2024-12-07 18:32:26.392814000,8.46581396484375,-0.043165422976017,0.3210568726062774,0.3309954404830932
2024-12-07 18:32:26.402788000,8.4757880859375,-0.02609140612185,0.3630529344081878,0.1287762820720672
2024-12-07 18:32:26.412761000,8.485760986328126,-0.0369637608528137,0.3663049042224884,-0.1101380139589309
2024-12-07 18:32:26.422735000,8.495735107421876,-0.0437777899205684,0.3773858845233917,-0.3095769584178924
2024-12-07 18:32:26.432709000,8.505709228515625,-0.0343230366706848,0.449202299118042,-0.433377206325531
2024-12-07 18:32:26.442683100,8.51568310546875,-0.020931489765644,0.5857024192810059,-0.4834852218627929
2024-12-07 18:32:26.452657200,8.5256572265625,-0.0228034257888793,0.7319362759590149,-0.4849166870117187
2024-12-07 18:32:26.462630100,8.535630126953125,-0.0433046594262123,0.8335450887680054,-0.4751066565513611
2024-12-07 18:32:26.472604200,8.545604248046875,-0.0798235237598419,0.9006119966506958,-0.4880847632884979
2024-12-07 18:32:26.482578200,8.555578125,-0.127053365111351,0.9321033358573914,-0.5380956530570984
2024-12-07 18:32:26.492552200,8.56555224609375,-0.1645043343305587,0.9143850207328796,-0.6299286484718323
2024-12-07 18:32:26.502526200,8.575526123046876,-0.1934355646371841,0.8452936410903931,-0.7548350095748901
2024-12-07 18:32:26.512500200,8.585500244140626,-0.1914443224668502,0.6859971880912781,-0.8654999732971191
2024-12-07 18:32:26.522473200,8.59547314453125,-0.1748303771018982,0.4522773325443268,-0.9503762125968932
2024-12-07 18:32:26.532447200,8.605447265625,-0.1798528283834457,0.1781304627656936,-0.9868590831756592
2024-12-07 18:32:26.542421200,8.615421142578125,-0.2334598153829574,-0.1263783723115921,-0.9812884330749512
2024-12-07 18:32:26.552395300,8.625395263671875,-0.3414209187030792,-0.4278423488140106,-0.9305570721626282
2024-12-07 18:32:26.562369300,8.635369384765625,-0.4774641990661621,-0.7427541017532349,-0.8099151849746704
2024-12-07 18:32:26.572343300,8.64534326171875,-0.5051131248474121,-0.841579258441925,-0.5092637538909912
2024-12-07 18:32:26.582316300,8.65531640625,-0.3148219883441925,-0.5551088452339172,0.0793141350150108
2024-12-07 18:32:26.592290000,8.6652900390625,0.0622629709541797,0.1673548370599746,0.8220987915992737
2024-12-07 18:32:26.602264000,8.67526416015625,0.4480926096439361,1.094537377357483,1.350132942199707
2024-12-07 18:32:26.612238000,8.685238037109375,0.7168753147125244,1.9853487014770508,1.4418823719024658
2024-12-07 18:32:26.622212000,8.695212158203125,0.774366557598114,2.5125131607055664,1.1424773931503296
2024-12-07 18:32:26.632186000,8.70518603515625,0.6046339869499207,2.031066417694092,0.7608373165130615
2024-12-07 18:32:26.642159000,8.7151591796875,0.3377992510795593,0.966075599193573,0.49711674451828
2024-12-07 18:32:26.652133000,8.725133056640624,0.1011859104037284,0.1024830266833305,0.3268267512321472
2024-12-07 18:32:26.662107100,8.735107177734376,-0.0297092795372009,-0.625908613204956,-0.0448705181479454
2024-12-07 18:32:26.672081200,8.7450810546875,-0.0083738984540104,-1.4427217245101929,-0.7421449422836304
2024-12-07 18:32:26.682055200,8.75505517578125,-0.1257578730583191,-1.8437952995300293,-0.9658017754554749
2024-12-07 18:32:26.692029200,8.765029296875,-0.3780947625637054,-1.8683727979660032,-0.7815349698066711
2024-12-07 18:32:26.702002200,8.775002197265625,-0.601852297782898,-1.7593295574188232,-0.4511574804782867
2024-12-07 18:32:26.711976200,8.78497607421875,-0.6549786329269409,-1.5521154403686523,-0.1315392702817917
2024-12-07 18:32:26.721950200,8.7949501953125,-0.534193217754364,-1.107699990272522,0.0966392904520034
2024-12-07 18:32:26.731924200,8.80492431640625,-0.3448432385921478,-0.4711607992649078,0.1499107629060745
2024-12-07 18:32:26.741898200,8.814898193359374,-0.1859752535820007,-0.0767966210842132,-0.031934268772602
2024-12-07 18:32:26.751872300,8.824872314453126,-0.0762122794985771,-0.1087465658783912,-0.3453987240791321
2024-12-07 18:32:26.761845200,8.83484521484375,-0.0373781472444534,-0.4197832643985748,-0.6164124011993408
2024-12-07 18:32:26.771819300,8.8448193359375,-0.0661022067070007,-0.6814928650856018,-0.728489100933075
2024-12-07 18:32:26.781793300,8.854793212890625,-0.1233119368553161,-0.7045901417732239,-0.677690327167511
2024-12-07 18:32:26.791767300,8.864767333984375,-0.1709609478712082,-0.5520524978637695,-0.5194982886314392
2024-12-07 18:32:26.801741000,8.874740966796875,-0.2096507251262664,-0.3568726480007171,-0.3261511623859405
2024-12-07 18:32:26.811714000,8.884714111328124,-0.2470305860042572,-0.2127221375703811,-0.1804879754781723
2024-12-07 18:32:26.821688000,8.89468798828125,-0.2862655520439148,-0.1666601747274398,-0.1405321657657623
2024-12-07 18:32:26.831662000,8.904662109375,-0.3126827776432037,-0.2108777016401291,-0.2053423225879669
2024-12-07 18:32:26.841636000,8.914635986328125,-0.3258471488952636,-0.3049970269203186,-0.3292836844921112
2024-12-07 18:32:26.851610000,8.924610107421875,-0.320926159620285,-0.4366059303283691,-0.4542615711688995
2024-12-07 18:32:26.861584100,8.934584228515625,-0.3076478540897369,-0.5597561597824097,-0.557497501373291
2024-12-07 18:32:26.871558100,8.94455810546875,-0.2914276123046875,-0.6052696108818054,-0.6431426405906677
2024-12-07 18:32:26.881531100,8.95453125,-0.2835440337657928,-0.5820991396903992,-0.709735095500946
2024-12-07 18:32:26.891505200,8.964505126953124,-0.2864652574062347,-0.5425701141357422,-0.7641519904136658
2024-12-07 18:32:26.901479200,8.974479248046874,-0.2867453098297119,-0.4896593689918518,-0.8143940567970276
2024-12-07 18:32:26.911453200,8.984453125,-0.3123193979263305,-0.3942130208015442,-0.8561545610427856
2024-12-07 18:32:26.921427200,8.99442724609375,-0.3551755845546722,-0.2948520481586456,-0.8546967506408691
2024-12-07 18:32:26.931400200,9.004400146484375,-0.3931386768817901,-0.2204830050468444,-0.7945982217788696
2024-12-07 18:32:26.941374200,9.014374267578123,-0.4205815196037292,-0.2104696035385131,-0.6586764454841614
2024-12-07 18:32:26.951348200,9.02434814453125,-0.4220632910728454,-0.2332231253385543,-0.476061075925827
2024-12-07 18:32:26.961322200,9.034322265625,-0.3822312951087951,-0.2400864213705063,-0.3167831897735595
2024-12-07 18:32:26.971296300,9.044296142578125,-0.3375352025032043,-0.2012506127357483,-0.2184579223394394
2024-12-07 18:32:26.981270300,9.054270263671874,-0.3065541684627533,-0.118859477341175,-0.1965302079916
2024-12-07 18:32:26.991243000,9.064242919921876,-0.3149444460868835,0.0129536725580692,-0.2296847105026245
2024-12-07 18:32:27.001217000,9.074217041015626,-0.3552738726139068,0.1930450946092605,-0.2908454239368438
2024-12-07 18:32:27.011191000,9.08419091796875,-0.3806519210338592,0.3965806365013122,-0.3183156549930572
2024-12-07 18:32:27.021165000,9.0941650390625,-0.3801237642765045,0.5976158976554871,-0.2912910282611847
2024-12-07 18:32:27.031139000,9.10413916015625,-0.3727084696292877,0.7438895106315613,-0.2248632758855819
2024-12-07 18:32:27.041113000,9.114113037109377,-0.3647389709949493,0.8081405758857727,-0.1508714705705642
2024-12-07 18:32:27.051086000,9.124086181640624,-0.3575641512870788,0.7877663373947144,-0.1153118684887886
2024-12-07 18:32:27.061060000,9.13406005859375,-0.3810594379901886,0.6772494912147522,-0.0884737521409988
2024-12-07 18:32:27.071034000,9.1440341796875,-0.3998429775238037,0.5180262327194214,-0.0160472281277179
2024-12-07 18:32:27.081008000,9.154008056640626,-0.3848483264446258,0.3898017108440399,0.0940907970070838
2024-12-07 18:32:27.090982100,9.163982177734376,-0.2927730083465576,0.2917864620685577,0.216868370771408
2024-12-07 18:32:27.100956200,9.1739560546875,-0.1634983271360397,0.1788949221372604,0.3108497560024261
2024-12-07 18:32:27.110929200,9.18392919921875,-0.0460731573402881,0.035498347133398,0.3652397692203522
2024-12-07 18:32:27.120903200,9.193903076171877,0.0411426052451133,-0.0668267160654068,0.3872151374816894
2024-12-07 18:32:27.130877200,9.203877197265625,0.1314637213945388,-0.1207397505640983,0.3890889286994934
2024-12-07 18:32:27.140851200,9.213851318359374,0.2186557799577713,-0.2080006450414657,0.3571504950523376
2024-12-07 18:32:27.150825200,9.2238251953125,0.2616706192493438,-0.3208630084991455,0.287745326757431
2024-12-07 18:32:27.160799200,9.23379931640625,0.2356117814779281,-0.3992669582366943,0.1782688051462173
2024-12-07 18:32:27.170772200,9.243772216796875,0.1770145148038864,-0.3991180956363678,0.0698381960391998
2024-12-07 18:32:27.180746200,9.253746337890624,0.1365715861320495,-0.3402267694473266,0.0188535321503877
2024-12-07 18:32:27.190720300,9.26372021484375,0.1576720774173736,-0.2227654159069061,0.0597998984158039
2024-12-07 18:32:27.200694300,9.2736943359375,0.2168353348970413,0.0141035532578825,0.1797671318054199
2024-12-07 18:32:27.210668300,9.283668212890625,0.2799991071224212,0.3276151418685913,0.3404249846935272
2024-12-07 18:32:27.220642300,9.293642333984376,0.3548116981983185,0.6523783206939697,0.4834526777267456
2024-12-07 18:32:27.230615000,9.303614990234376,0.4267495274543762,0.9733107686042786,0.5882981419563293
2024-12-07 18:32:27.240589000,9.313589111328126,0.510811984539032,1.2508950233459473,0.667819619178772
2024-12-07 18:32:27.250563000,9.32356298828125,0.6268307566642761,1.4599685668945312,0.7274371385574341
2024-12-07 18:32:27.260537000,9.333537109375,0.7574911117553711,1.611363172531128,0.7701241970062256
2024-12-07 18:32:27.270511000,9.343510986328123,0.8659289479255676,1.662456750869751,0.8002522587776184
2024-12-07 18:32:27.280485000,9.353485107421877,0.9293749928474426,1.5368101596832275,0.8356335759162903
2024-12-07 18:32:27.290458000,9.3634580078125,0.9490360617637634,1.2282028198242188,0.9099117517471312
2024-12-07 18:32:27.300432100,9.37343212890625,0.9405640959739684,0.7279847264289856,1.0029830932617188
2024-12-07 18:32:27.310406100,9.38340625,0.8954682946205139,0.0193900130689144,1.1170974969863892
2024-12-07 18:32:27.320380200,9.393380126953126,0.8014823198318481,-0.7063064575195312,1.1919808387756348
2024-12-07 18:32:27.330354200,9.403354248046876,0.6203077435493469,-1.302191138267517,1.2775908708572388
2024-12-07 18:32:27.340328200,9.413328125,0.3549323081970215,-1.8656519651412964,1.3660836219787598
2024-12-07 18:32:27.350301000,9.423301025390623,0.1316624581813812,-2.3737616539001465,1.3064420223236084
2024-12-07 18:32:27.360275000,9.43327490234375,0.0234506111592054,-2.5826539993286133,1.0266236066818235
2024-12-07 18:32:27.370249000,9.4432490234375,-0.0301138143986463,-2.349391222000122,0.6353322267532349
2024-12-07 18:32:27.380223000,9.453222900390625,-0.0764598473906517,-1.5837805271148682,0.2623878121376037
2024-12-07 18:32:27.390197000,9.463197021484374,-0.0345347709953784,-0.3038116097450256,0.0505338720977306
2024-12-07 18:32:27.400171000,9.4731708984375,0.1943133175373077,1.1592798233032229,0.1910735219717025
2024-12-07 18:32:27.410144000,9.48314404296875,0.4517448246479034,2.29525113105774,0.6290285587310791
2024-12-07 18:32:27.420118000,9.493117919921875,0.5383233428001404,2.5774190425872803,0.9722042083740234
2024-12-07 18:32:27.430092000,9.503092041015623,0.4872255027294159,2.0858938694000244,1.0105640888214111
2024-12-07 18:32:27.440066000,9.513066162109377,0.3957291841506958,1.1290545463562012,0.7345094680786133
2024-12-07 18:32:27.450040000,9.5230400390625,0.3057864904403686,0.1087911799550056,0.297550231218338
2024-12-07 18:32:27.460014000,9.53301416015625,0.2135169953107834,-0.5681536197662354,-0.1417120546102523
2024-12-07 18:32:27.469987000,9.542987060546874,0.1462745666503906,-0.7630860805511475,-0.4598806798458099
2024-12-07 18:32:27.479961000,9.552961181640624,0.1213039010763168,-0.5934234857559204,-0.6045293807983398
2024-12-07 18:32:27.489935000,9.56293505859375,0.1336151659488678,-0.2736705243587494,-0.5848081111907959
2024-12-07 18:32:27.499909000,9.5729091796875,0.1442198008298874,0.044465709477663,-0.4547725021839142
2024-12-07 18:32:27.509883100,9.582883056640624,0.1233629956841468,0.2658292651176452,-0.2949394285678863
2024-12-07 18:32:27.519857200,9.592857177734375,0.0582129620015621,0.3470796942710876,-0.1914294511079788
2024-12-07 18:32:27.529830100,9.602830078125,-0.0291642863303422,0.305251806974411,-0.1652716100215912
2024-12-07 18:32:27.539804200,9.61280419921875,-0.1091799810528755,0.1696310639381408,-0.2032579183578491
2024-12-07 18:32:27.549778200,9.622778076171874,-0.1610655486583709,-0.0218864474445581,-0.2923166751861572
2024-12-07 18:32:27.559752200,9.632752197265624,-0.1906384378671646,-0.220433622598648,-0.4091293513774872
2024-12-07 18:32:27.569726200,9.642726318359376,-0.2238848060369491,-0.3920085728168487,-0.5324302315711975
2024-12-07 18:32:27.579699000,9.652698974609375,-0.2840950489044189,-0.5381792187690735,-0.6514002084732056
2024-12-07 18:32:27.589673000,9.6626728515625,-0.3750055134296417,-0.6406456828117371,-0.7490079998970032
2024-12-07 18:32:27.599647000,9.67264697265625,-0.4828633069992065,-0.6961062550544739,-0.805829644203186
2024-12-07 18:32:27.609621000,9.68262109375,-0.5969457030296326,-0.6800130009651184,-0.8246134519577026
2024-12-07 18:32:27.619595000,9.692594970703125,-0.6646124720573425,-0.580935537815094,-0.8059979677200317
2024-12-07 18:32:27.629569000,9.702569091796876,-0.649635910987854,-0.4410991072654724,-0.7406978011131287
2024-12-07 18:32:27.639542000,9.7125419921875,-0.5480958819389343,-0.2702859342098236,-0.6211400032043457
2024-12-07 18:32:27.649516000,9.72251611328125,-0.3769300580024719,-0.0865983814001083,-0.4328151345252991
2024-12-07 18:32:27.659490000,9.732489990234376,-0.1510987430810928,0.097028762102127,-0.145878791809082
2024-12-07 18:32:27.669464000,9.742464111328124,0.147800862789154,0.3116385340690613,0.2347652167081833
2024-12-07 18:32:27.679438000,9.75243798828125,0.4296521246433258,0.6573018431663513,0.6120370030403137
2024-12-07 18:32:27.689412000,9.762412109375,0.6449458599090576,1.062818169593811,0.8182858228683472
2024-12-07 18:32:27.699385000,9.772385009765625,0.8113553524017334,1.1292599439620972,0.851292073726654
2024-12-07 18:32:27.709359000,9.782359130859374,0.8254466652870178,0.7883200645446777,0.694532036781311
2024-12-07 18:32:27.719333000,9.7923330078125,0.6306725740432739,0.3587085604667663,0.353302538394928
2024-12-07 18:32:27.729307100,9.80230712890625,0.2527545392513275,0.0274110585451126,0.0127076553180813
2024-12-07 18:32:27.739281200,9.81228125,-0.1681524664163589,-0.047026090323925,-0.1927193999290466
2024-12-07 18:32:27.749255200,9.822255126953126,-0.5128160715103149,0.125482827425003,-0.30107381939888
2024-12-07 18:32:27.759228200,9.832228271484375,-0.7141872048377991,0.3561325073242187,-0.3413993120193481
2024-12-07 18:32:27.769202200,9.8422021484375,-0.6522681713104248,0.2785253226757049,-0.3132579624652862
2024-12-07 18:32:27.779176200,9.85217626953125,-0.3842822909355163,-0.2201380580663681,-0.2691055536270141
2024-12-07 18:32:27.789150000,9.86214990234375,-0.175706461071968,-0.738481879234314,-0.2920478880405426
2024-12-07 18:32:27.799124000,9.8721240234375,-0.064423069357872,-1.1115270853042605,-0.3450153172016144
2024-12-07 18:32:27.809098000,9.882097900390624,-0.0086085395887494,-1.1434605121612549,-0.3805943429470062
2024-12-07 18:32:27.819071000,9.892071044921876,-0.0196268744766712,-0.7809844017028809,-0.3509491682052612
2024-12-07 18:32:27.829045000,9.902044921875,-0.1021297350525856,-0.2199884504079818,-0.2782206237316131
2024-12-07 18:32:27.839019000,9.91201904296875,-0.1794091314077377,0.2164629846811294,-0.2369825392961502
2024-12-07 18:32:27.848993000,9.921992919921877,-0.1365234553813934,0.2814297378063202,-0.2599789202213287
2024-12-07 18:32:27.858967000,9.931967041015625,-0.0478187166154384,0.0065616839565336,-0.3122067153453827
2024-12-07 18:32:27.868941000,9.941941162109377,-0.0265853330492973,-0.4277112185955047,-0.3410333096981048
2024-12-07 18:32:27.878914000,9.9519140625,-0.1036857739090919,-0.8096957802772522,-0.3354485630989074
2024-12-07 18:32:27.888888000,9.96188818359375,-0.1937711834907531,-1.0498316287994385,-0.3087895214557647
2024-12-07 18:32:27.898862000,9.971862060546876,-0.2441323697566986,-1.1312108039855957,-0.2619644105434418
2024-12-07 18:32:27.908836000,9.981836181640626,-0.2466525286436081,-1.069790005683899,-0.2045621126890182
2024-12-07 18:32:27.918810000,9.99181005859375,-0.2169397175312042,-0.8706393241882324,-0.1647303700447082
2024-12-07 18:32:27.928784100,10.0017841796875,-0.1746694892644882,-0.5846434831619263,-0.1451747715473175
2024-12-07 18:32:27.938757000,10.011757080078125,-0.1317052394151687,-0.2782028317451477,-0.1534945517778396
2024-12-07 18:32:27.948731100,10.021731201171876,-0.0916784554719924,-0.0242792014032602,-0.1934699267148971
2024-12-07 18:32:27.958705200,10.031705078125,-0.0753827169537544,0.1403857171535492,-0.2569886147975921
2024-12-07 18:32:27.968679200,10.04167919921875,-0.0927862077951431,0.1641158163547516,-0.3173252046108246
2024-12-07 18:32:27.978653200,10.051653076171876,-0.1164555996656417,0.0425054766237735,-0.3741673827171325
2024-12-07 18:32:27.988627200,10.061627197265626,-0.1249798387289047,-0.1925230175256729,-0.4465931057929992
2024-12-07 18:32:27.998600000,10.071599853515623,-0.1284991949796676,-0.4541154503822326,-0.5223292112350464
2024-12-07 18:32:28.008574000,10.081573974609377,-0.1461732685565948,-0.7131502032279968,-0.5987654328346252
2024-12-07 18:32:28.018548000,10.0915478515625,-0.1809598952531814,-0.9234410524368286,-0.6548150181770325
2024-12-07 18:32:28.028522000,10.10152197265625,-0.2276206016540527,-1.0397261381149292,-0.6756524443626404
2024-12-07 18:32:28.038496000,10.11149609375,-0.2667887210845947,-1.0811753273010254,-0.6412495374679565
2024-12-07 18:32:28.048469000,10.121468994140624,-0.29598468542099,-1.052231788635254,-0.5688389539718628
2024-12-07 18:32:28.058443000,10.131443115234376,-0.3126028180122375,-0.9916039705276488,-0.4711881875991821
2024-12-07 18:32:28.068417000,10.1414169921875,-0.3303495943546295,-0.8951994180679321,-0.4025468230247497
2024-12-07 18:32:28.078391000,10.15139111328125,-0.3569294810295105,-0.7693346738815308,-0.3567106127738952
2024-12-07 18:32:28.088365000,10.161364990234375,-0.3588922321796417,-0.625197172164917,-0.3432304859161377
2024-12-07 18:32:28.098339000,10.171339111328123,-0.3637241721153259,-0.5436811447143555,-0.3352158367633819
2024-12-07 18:32:28.108312000,10.18131201171875,-0.3522515296936035,-0.5034878849983215,-0.3165580034255981
2024-12-07 18:32:28.118286000,10.1912861328125,-0.3228962123394012,-0.4863264858722687,-0.2938209474086761
2024-12-07 18:32:28.128260000,10.201260009765624,-0.2858404815196991,-0.4518292248249054,-0.2832982838153839
2024-12-07 18:32:28.138234000,10.211234130859374,-0.2607904970645904,-0.3756249845027923,-0.2891884446144104
2024-12-07 18:32:28.148208000,10.2212080078125,-0.2650907039642334,-0.254156619310379,-0.3157558739185333
2024-12-07 18:32:28.158182100,10.23118212890625,-0.2935885488986969,-0.1044964268803596,-0.3540012538433075
2024-12-07 18:32:28.168155100,10.241155029296875,-0.2941893637180328,0.0411422662436962,-0.3992020189762115
2024-12-07 18:32:28.178129200,10.251129150390623,-0.3106773793697357,0.1227959990501403,-0.3765891492366791
2024-12-07 18:32:28.188103200,10.261103271484377,-0.2963050901889801,0.1623732447624206,-0.2986077964305877
2024-12-07 18:32:28.198077200,10.2710771484375,-0.2567499876022339,0.1486410945653915,-0.1554139703512191
2024-12-07 18:32:28.208051200,10.28105126953125,-0.1753936260938644,0.1323670446872711,-0.0007761840242892
2024-12-07 18:32:28.218025200,10.291025146484374,-0.0728867948055267,0.1638609915971756,0.0977510288357734
2024-12-07 18:32:28.227998000,10.300998046875,0.0084799630567431,0.2289920598268509,0.0872690975666046
2024-12-07 18:32:28.237972000,10.310971923828124,0.0617079325020313,0.2785233557224273,-0.036073513329029
2024-12-07 18:32:28.247946000,10.320946044921875,0.0734809711575508,0.3155402243137359,-0.2210119366645813
2024-12-07 18:32:28.257920000,10.330919921875,0.0306201316416263,0.4085633158683777,-0.3630416989326477
2024-12-07 18:32:28.267894000,10.34089404296875,-0.0233096797019243,0.5242094993591309,-0.4067721366882324
2024-12-07 18:32:28.277868000,10.350867919921876,-0.0572520270943641,0.6185793876647949,-0.323465496301651
2024-12-07 18:32:28.287841000,10.360841064453124,-0.0177725311368703,0.6523400545120239,-0.143826737999916
2024-12-07 18:32:28.297815000,10.37081494140625,0.1191321015357971,0.5656608939170837,0.0827344432473182
2024-12-07 18:32:28.307789000,10.3807890625,0.2733837366104126,0.4045215845108032,0.2860273718833923
2024-12-07 18:32:28.317763000,10.39076318359375,0.3530287742614746,0.2333120256662368,0.369131326675415
2024-12-07 18:32:28.327737000,10.400737060546875,0.3885753154754638,-0.0646493658423423,0.3083609044551849
2024-12-07 18:32:28.337711000,10.410711181640623,0.4299747943878174,-0.5851856470108032,0.2315274178981781
2024-12-07 18:32:28.347684000,10.42068408203125,0.3722353279590606,-1.00691556930542,0.266431599855423
2024-12-07 18:32:28.357658000,10.430658203125,0.2501282691955566,-1.1510673761367798,0.3749049305915832
2024-12-07 18:32:28.367632100,10.440632080078124,0.1479393243789672,-0.9931887984275818,0.4774475693702698
2024-12-07 18:32:28.377606100,10.450606201171874,0.0838709771633148,-0.5769104957580566,0.5183018445968628
2024-12-07 18:32:28.387580200,10.460580078125,0.0655566826462745,0.050454057753086,0.4918963611125946
2024-12-07 18:32:28.397554200,10.47055419921875,0.0744254067540168,0.8555091619491577,0.4598595798015594
2024-12-07 18:32:28.407527200,10.480527099609375,0.1296686828136444,1.701995611190796,0.4908337295055389
2024-12-07 18:32:28.417501200,10.490501220703123,0.242456704378128,2.3822174072265625,0.5906775593757629
2024-12-07 18:32:28.427475200,10.50047509765625,0.3567635715007782,2.7629971504211426,0.6863332390785217
2024-12-07 18:32:28.437449200,10.51044921875,0.4084175229072571,2.9115052223205566,0.7267167568206787
2024-12-07 18:32:28.447423200,10.52042333984375,0.4377863109111786,2.815375328063965,0.6949412226676941
2024-12-07 18:32:28.457396000,10.53039599609375,0.4996812045574188,2.5573840141296387,0.6262403130531311
2024-12-07 18:32:28.467370000,10.540369873046876,0.5672051310539246,2.222283840179444,0.5747038722038269
2024-12-07 18:32:28.477344000,10.550343994140626,0.5700671672821045,1.884580135345459,0.5917161107063293
2024-12-07 18:32:28.487318000,10.560318115234375,0.5143642425537109,1.5777113437652588,0.676322340965271
2024-12-07 18:32:28.497292000,10.5702919921875,0.440624862909317,1.306863784790039,0.8124440908432007
2024-12-07 18:32:28.507266000,10.58026611328125,0.3634336590766907,1.06713604927063,0.9672560691833496
2024-12-07 18:32:28.517239000,10.590239013671876,0.2827920913696289,0.7671970129013062,1.0799123048782349
2024-12-07 18:32:28.527213000,10.600213134765625,0.2028160095214843,0.4424613118171692,1.069981575012207
2024-12-07 18:32:28.537187000,10.61018701171875,0.1255068033933639,0.1729982644319534,0.9366090297698976
2024-12-07 18:32:28.547161000,10.6201611328125,0.0641116127371788,-0.0223358180373907,0.7809321284294128
2024-12-07 18:32:28.557135000,10.630135009765626,0.0189500954002141,-0.0565991960465908,0.6565600037574768
2024-12-07 18:32:28.567109000,10.640109130859376,-0.0127777392044663,0.0615146607160568,0.5545476078987122
2024-12-07 18:32:28.577082000,10.65008203125,-0.0343217328190803,0.2652534246444702,0.4378723204135895
2024-12-07 18:32:28.587056000,10.66005615234375,-0.0363353453576564,0.4536654055118561,0.2914882302284241
2024-12-07 18:32:28.597030100,10.670030029296877,-0.0340629145503044,0.5422305464744568,0.1363564282655716
2024-12-07 18:32:28.607004200,10.680004150390625,-0.0566268116235733,0.5070041418075562,0.0007506613619625
2024-12-07 18:32:28.616978200,10.689978271484376,-0.1083625182509422,0.3621428310871124,-0.0980958417057991
2024-12-07 18:32:28.626952200,10.6999521484375,-0.1515209078788757,0.1763040125370025,-0.1560153365135193
2024-12-07 18:32:28.636925200,10.70992529296875,-0.1737217903137207,0.0122187715023756,-0.1873944848775863
2024-12-07 18:32:28.646899200,10.719899169921876,-0.128573477268219,-0.1349445730447769,-0.2473209351301193
2024-12-07 18:32:28.656873200,10.729873291015624,-0.0655863881111145,-0.2256067246198654,-0.3401390016078949
2024-12-07 18:32:28.666847200,10.73984716796875,-0.0200679097324609,-0.2681440711021423,-0.423060804605484
2024-12-07 18:32:28.676821200,10.7498212890625,-0.0254874099045991,-0.3407653868198395,-0.4581979811191559
2024-12-07 18:32:28.686795300,10.759795166015625,-0.0522343330085277,-0.4792582988739013,-0.4381369054317474
2024-12-07 18:32:28.696768000,10.76976806640625,-0.0685521438717842,-0.7161182761192322,-0.3691562116146087
2024-12-07 18:32:28.706742000,10.779741943359374,-0.0782116949558258,-0.9956008195877076,-0.2679904699325561
2024-12-07 18:32:28.716716000,10.789716064453126,-0.1053654104471206,-1.1650521755218506,-0.1228866130113601
2024-12-07 18:32:28.726690000,10.79968994140625,-0.1382365375757217,-1.137069582939148,0.0533784292638301
2024-12-07 18:32:28.736664000,10.8096640625,-0.1234345063567161,-0.949369490146637,0.255004733800888
2024-12-07 18:32:28.746637000,10.819636962890623,-0.0036234189756214,-0.6377514004707336,0.4479608535766601
2024-12-07 18:32:28.756611000,10.829611083984377,0.2068983614444732,-0.1905561238527298,0.5964727997779846
2024-12-07 18:32:28.766585000,10.839585205078125,0.4819325804710388,0.3032616078853607,0.6266053915023804
2024-12-07 18:32:28.776559000,10.84955908203125,0.7607986927032471,0.7613340616226196,0.5058049559593201
2024-12-07 18:32:28.786533000,10.859533203125,0.8561627864837646,0.9753406643867492,0.2562446594238281
2024-12-07 18:32:28.796507100,10.869507080078124,0.6440140008926392,0.7544872760772705,0.0594912506639957
2024-12-07 18:32:28.806480100,10.879480224609376,0.2375215739011764,0.3787490725517273,0.052672229707241
2024-12-07 18:32:28.816454100,10.8894541015625,-0.083621010184288,0.0965728163719177,0.0821488127112388
2024-12-07 18:32:28.826428200,10.89942822265625,-0.2671476900577545,-0.0096455048769712,0.0446235425770282
2024-12-07 18:32:28.836402200,10.909402099609377,-0.3078447878360748,-0.0755742266774177,-0.0559868961572647
2024-12-07 18:32:28.846376200,10.919376220703125,-0.242189347743988,-0.2901235520839691,-0.2255354523658752
2024-12-07 18:32:28.856350200,10.92935009765625,-0.1915193051099777,-0.588173508644104,-0.3436487019062042
2024-12-07 18:32:28.866323200,10.9393232421875,-0.2342217713594436,-0.777271568775177,-0.3313798010349273
2024-12-07 18:32:28.876297200,10.949297119140626,-0.2833276689052582,-0.8610213994979858,-0.2595662772655487
2024-12-07 18:32:28.886271000,10.95927099609375,-0.2900116741657257,-0.8401787281036377,-0.1950549483299255
2024-12-07 18:32:28.896245000,10.969244873046875,-0.2343501150608062,-0.6556156277656555,-0.1505691260099411
2024-12-07 18:32:28.906219000,10.979218994140624,-0.1409115046262741,-0.4000727534294128,-0.1437671482563018
2024-12-07 18:32:28.916193000,10.989193115234375,-0.0396942123770713,-0.1346971690654754,-0.2174237668514251
2024-12-07 18:32:28.926166000,10.999166015625,0.0211126804351806,0.0732520297169685,-0.3499279916286468
2024-12-07 18:32:28.936140000,11.00914013671875,0.0218905061483383,0.2065957188606262,-0.4516890048980713
2024-12-07 18:32:28.946114000,11.019114013671874,-0.0124557502567768,0.2599487006664276,-0.4713990688323974
2024-12-07 18:32:28.956088000,11.029088134765624,-0.0483283996582031,0.2312388718128204,-0.428402841091156
2024-12-07 18:32:28.966062000,11.03906201171875,-0.0742076709866523,0.1629759222269058,-0.3503109514713287
2024-12-07 18:32:28.976036000,11.0490361328125,-0.0735799074172973,0.0515805818140506,-0.2587829530239105
2024-12-07 18:32:28.986009000,11.059009033203123,-0.060908056795597,-0.1282989084720611,-0.1998794376850128
2024-12-07 18:32:28.995983000,11.068983154296877,-0.0509820319712162,-0.3736844956874847,-0.2004625499248504
2024-12-07 18:32:29.005957000,11.07895703125,-0.0627569332718849,-0.5983654856681824,-0.265837013721466
2024-12-07 18:32:29.015931100,11.08893115234375,-0.085763119161129,-0.7219905853271484,-0.3741572201251983
2024-12-07 18:32:29.025905200,11.0989052734375,-0.0998413860797882,-0.7907736897468567,-0.4660075306892395
2024-12-07 18:32:29.035878100,11.108878173828124,-0.1026497036218643,-0.8730395436286926,-0.5058238506317139
2024-12-07 18:32:29.045852200,11.11885205078125,-0.1001316830515861,-1.0064846277236938,-0.5159960389137268
2024-12-07 18:32:29.055826200,11.128826171875,-0.1142597943544387,-1.1938867568969729,-0.5287011861801147
2024-12-07 18:32:29.065800200,11.13880029296875,-0.1667621433734893,-1.3885509967803955,-0.5584766268730164
2024-12-07 18:32:29.075774200,11.148774169921875,-0.2480887770652771,-1.5109442472457886,-0.6011009216308594
2024-12-07 18:32:29.085748200,11.158748291015623,-0.3335384130477905,-1.5298925638198853,-0.6473509669303894
2024-12-07 18:32:29.095721000,11.168720947265625,-0.4028335511684418,-1.4972612857818604,-0.6747469902038574
2024-12-07 18:32:29.105695000,11.178695068359374,-0.4399383068084717,-1.4518756866455078,-0.6579190492630005
2024-12-07 18:32:29.115669000,11.1886689453125,-0.4181776046752929,-1.4514644145965576,-0.6205675005912781
2024-12-07 18:32:29.125643000,11.19864306640625,-0.3709696233272552,-1.5194807052612305,-0.5654544234275818
2024-12-07 18:32:29.135617000,11.208616943359376,-0.3179965317249298,-1.610698699951172,-0.5082229971885681
2024-12-07 18:32:29.145591000,11.218591064453124,-0.2617452442646026,-1.624603033065796,-0.4567600786685943
2024-12-07 18:32:29.155564000,11.22856396484375,-0.2106923460960388,-1.506112575531006,-0.4118809401988983
2024-12-07 18:32:29.165538000,11.2385380859375,-0.1445439606904983,-1.3082245588302612,-0.3798726797103882
2024-12-07 18:32:29.175512000,11.248511962890625,-0.0753112956881523,-1.070554256439209,-0.3482823073863983
2024-12-07 18:32:29.185486000,11.258486083984376,-0.0363378040492534,-0.8122044801712036,-0.320170521736145
2024-12-07 18:32:29.195460000,11.268460205078124,-0.0227729193866252,-0.5736923813819885,-0.3100541532039642
2024-12-07 18:32:29.205434000,11.27843408203125,-0.0197587553411722,-0.3606336116790771,-0.3331789076328277
2024-12-07 18:32:29.215407000,11.288406982421876,-0.0003548538079485,-0.1431233435869217,-0.3785808682441711
2024-12-07 18:32:29.225381000,11.298381103515624,0.0345922112464904,0.0860557854175567,-0.4416226744651794
2024-12-07 18:32:29.235355100,11.308355224609375,0.0579843819141387,0.3112716674804687,-0.5182244181632996
2024-12-07 18:32:29.245329200,11.3183291015625,0.0268634818494319,0.5255083441734314,-0.5773279666900635
2024-12-07 18:32:29.255303200,11.32830322265625,-0.0682807266712188,0.7280400395393372,-0.5821068286895752
2024-12-07 18:32:29.265277200,11.338277099609376,-0.2122424244880676,0.942649781703949,-0.4744693040847778
2024-12-07 18:32:29.275250200,11.348250244140624,-0.3412608504295349,1.1521906852722168,-0.2411395013332367
