time,seconds_elapsed,z,y,x
2024-12-07 18:09:59.191307300,0.022307373046875,-0.1740321516990661,0.3533877730369568,0.0057708374224603
2024-12-07 18:09:59.201281300,0.03228125,-0.2000118494033813,0.3868547976016998,-0.0045902011916041
2024-12-07 18:09:59.211254000,0.04225390625,-0.4057506322860718,0.4857680797576904,-0.0912159010767936
2024-12-07 18:09:59.221228000,0.05222802734375,-0.7409993410110474,0.5981594324111938,-0.2113193720579147
2024-12-07 18:09:59.231202000,0.0622021484375,-0.9397878050804138,0.6385729312896729,-0.2630552947521209
2024-12-07 18:09:59.241175300,0.07217529296875,-1.0952305793762207,0.6143835783004761,-0.2057869881391525
2024-12-07 18:09:59.251149000,0.082149169921875,-1.2079105377197266,0.5338623523712158,-0.1297361552715301
2024-12-07 18:09:59.261123000,0.092123046875,-1.2871997356414795,0.4484351873397827,-0.0950870215892791
2024-12-07 18:09:59.271097000,0.10209716796875,-1.345036506652832,0.3898664116859436,-0.1047662794589996
2024-12-07 18:09:59.281070300,0.1120703125,-1.4141470193862915,0.3833963871002197,-0.1353259682655334
2024-12-07 18:09:59.291044400,0.12204443359375,-1.4894063472747805,0.4177229404449463,-0.1969643086194992
2024-12-07 18:09:59.301018000,0.13201806640625,-1.6274969577789309,0.4897862672805786,-0.28470578789711
2024-12-07 18:09:59.310991400,0.141991455078125,-1.8268578052520752,0.5985087752342224,-0.3812011778354645
2024-12-07 18:09:59.320965400,0.15196533203125,-2.057767868041992,0.7151311039924622,-0.4828604161739349
2024-12-07 18:09:59.330939400,0.161939453125,-2.122682809829712,0.7442376017570496,-0.5683175325393677
2024-12-07 18:09:59.340912000,0.171912109375,-2.18250036239624,0.626679003238678,-0.6227397322654724
2024-12-07 18:09:59.350886100,0.18188623046875,-2.444622755050659,0.5172246694564819,-0.6086068749427795
2024-12-07 18:09:59.360860200,0.191860107421875,-2.5031423568725586,0.7631796002388,-0.503753662109375
2024-12-07 18:09:59.370834200,0.201834228515625,-2.361135721206665,1.0224601030349731,-0.3904257714748382
2024-12-07 18:09:59.380807200,0.21180712890625,-2.1511118412017822,1.1704938411712646,-0.3061569631099701
2024-12-07 18:09:59.390781200,0.22178125,-1.927066802978516,1.2515244483947754,-0.2474688589572906
2024-12-07 18:09:59.400755200,0.231755126953125,-1.6725716590881348,1.2486796379089355,-0.1993402689695358
2024-12-07 18:09:59.410728200,0.241728271484375,-1.4332879781723022,1.086906909942627,-0.2215041667222976
2024-12-07 18:09:59.420702200,0.2517021484375,-1.181426167488098,0.9137569069862366,-0.2979803383350372
2024-12-07 18:09:59.430676200,0.26167626953125,-0.9404409527778624,0.7626345157623291,-0.366961270570755
2024-12-07 18:09:59.440650200,0.271650146484375,-0.7115585207939148,0.6333997249603271,-0.3953576385974884
2024-12-07 18:09:59.450623200,0.281623291015625,-0.5261508226394653,0.5307042002677917,-0.3901538252830505
2024-12-07 18:09:59.460597200,0.29159716796875,-0.405614972114563,0.4345929026603699,-0.3849811851978302
2024-12-07 18:09:59.470571300,0.3015712890625,-0.3547533750534057,0.3152073621749878,-0.3986520171165466
2024-12-07 18:09:59.480544000,0.3115439453125,-0.3446874320507049,0.2166831493377685,-0.4083583354949951
2024-12-07 18:09:59.490518000,0.32151806640625,-0.3473617732524872,0.1525291949510574,-0.3964201807975769
2024-12-07 18:09:59.500492000,0.331491943359375,-0.3424288630485534,0.1119607836008071,-0.3540259301662445
2024-12-07 18:09:59.510466000,0.341466064453125,-0.3122605681419372,0.0663672015070915,-0.270524650812149
2024-12-07 18:09:59.520439000,0.35143896484375,-0.2422340661287307,0.0142257884144783,-0.1629193127155304
2024-12-07 18:09:59.530413000,0.3614130859375,-0.1622931659221649,0.0057904915884137,-0.0354162082076072
2024-12-07 18:09:59.540387000,0.371386962890625,-0.092147372663021,0.0353092364966869,0.0860039666295051
2024-12-07 18:09:59.550360300,0.3813603515625,-0.0581928640604019,0.0758934095501899,0.1239034160971641
2024-12-07 18:09:59.560334000,0.391333984375,-0.1205966025590896,0.0455599650740623,0.0838748291134834
2024-12-07 18:09:59.570308000,0.40130810546875,-0.2070675790309906,-0.1132198274135589,0.0323080420494079
2024-12-07 18:09:59.580281300,0.41128125,-0.2669920027256012,-0.342050701379776,-0.0155463311821222
2024-12-07 18:09:59.590255000,0.421255126953125,-0.286800354719162,-0.5110921859741211,-0.0592559948563575
2024-12-07 18:09:59.600229000,0.43122900390625,-0.2798026800155639,-0.5500438213348389,-0.0890330150723457
2024-12-07 18:09:59.610203100,0.441203125,-0.2632380723953247,-0.4823800325393677,-0.1023309752345085
2024-12-07 18:09:59.620176000,0.45117578125,-0.2208842039108276,-0.3669561445713043,-0.1004897952079773
2024-12-07 18:09:59.630150000,0.46114990234375,-0.1611106246709823,-0.3094627559185028,-0.1202845349907875
2024-12-07 18:09:59.640124000,0.4711240234375,-0.1256195604801178,-0.338694155216217,-0.173551321029663
2024-12-07 18:09:59.650097000,0.481096923828125,-0.0882972255349159,-0.410500168800354,-0.2396778762340545
2024-12-07 18:09:59.660071000,0.49107080078125,-0.1593718826770782,-0.5743107795715332,-0.3219453692436218
2024-12-07 18:09:59.670045000,0.501044921875,-0.3137577176094055,-0.7833575010299683,-0.4030660390853882
2024-12-07 18:09:59.680019000,0.51101904296875,-0.4330842792987823,-0.9860674738883972,-0.456714004278183
2024-12-07 18:09:59.689992000,0.520991943359375,-0.5286979079246521,-1.1441220045089722,-0.4733574390411377
2024-12-07 18:09:59.699966000,0.530966064453125,-0.6454496383666992,-1.2710527181625366,-0.479768693447113
2024-12-07 18:09:59.709940000,0.54093994140625,-0.8004128932952881,-1.289340615272522,-0.4422018826007843
2024-12-07 18:09:59.719913000,0.550912841796875,-0.9754796624183656,-1.206774353981018,-0.3665368556976318
2024-12-07 18:09:59.729887000,0.560886962890625,-1.1503753662109375,-1.0809054374694824,-0.2783902287483215
2024-12-07 18:09:59.739861000,0.570861083984375,-1.3022171258926392,-0.9523840546607972,-0.182093396782875
2024-12-07 18:09:59.749834000,0.580833984375,-1.4103611707687378,-0.7494319677352905,-0.0522813498973846
2024-12-07 18:09:59.759808000,0.59080810546875,-1.4564874172210691,-0.4984669983386993,0.1188685148954391
2024-12-07 18:09:59.769782000,0.600781982421875,-1.3853405714035034,-0.2660872638225555,0.2656177580356598
2024-12-07 18:09:59.779756000,0.610756103515625,-1.2282603979110718,-0.0211682356894016,0.3705676198005676
2024-12-07 18:09:59.789728800,0.620728759765625,-0.9946801662445068,0.1770167648792266,0.4033165276050567
2024-12-07 18:09:59.799702800,0.630702880859375,-0.7432994842529297,0.3208208978176117,0.3671120405197143
2024-12-07 18:09:59.809676800,0.6406767578125,-0.482663094997406,0.4549360871315002,0.2917381823062897
2024-12-07 18:09:59.819650000,0.650650146484375,-0.3691181242465973,0.386329710483551,-0.0242615267634391
2024-12-07 18:09:59.829624000,0.6606240234375,-0.5468438863754272,0.2520685493946075,-0.3577835857868194
2024-12-07 18:09:59.839597800,0.670597900390625,-0.7925586700439453,0.0776076763868331,-0.4911525547504425
2024-12-07 18:09:59.849571800,0.68057177734375,-0.9740847945213318,-0.413921058177948,-0.492044448852539
2024-12-07 18:09:59.859545000,0.690545166015625,-0.901639997959137,-0.6917237639427185,-0.2656863629817962
2024-12-07 18:09:59.869519000,0.70051904296875,-0.7627643942832947,-0.8983320593833923,-0.0670577064156532
2024-12-07 18:09:59.879493000,0.7104931640625,-0.6259905099868774,-0.9318287372589112,0.0539423823356628
2024-12-07 18:09:59.889466000,0.720466064453125,-0.4647382199764251,-0.6241843700408936,0.177548736333847
2024-12-07 18:09:59.899440000,0.730440185546875,-0.2422667145729065,-0.0997859314084053,0.3292444944381714
2024-12-07 18:09:59.909414100,0.7404140625,-0.0279704015702009,0.2422395795583725,0.4351269602775574
2024-12-07 18:09:59.919387000,0.750386962890625,0.1081399992108345,0.4373354911804199,0.5191921591758728
2024-12-07 18:09:59.929361000,0.76036083984375,0.166834220290184,0.5726885199546814,0.4847979843616485
2024-12-07 18:09:59.939335000,0.7703349609375,0.1179573014378547,0.5561619997024536,0.2812078595161438
2024-12-07 18:09:59.949309000,0.780308837890625,0.1019394546747207,0.7294073104858398,0.0236109346151351
2024-12-07 18:09:59.959282000,0.790281982421875,0.1721046715974807,1.169599175453186,0.034275222569704
2024-12-07 18:09:59.969256000,0.800255859375,0.2749894857406616,1.6092687845230105,0.1696482300758361
2024-12-07 18:09:59.979230000,0.81022998046875,0.2621079683303833,1.9467787742614744,0.2598586082458496
2024-12-07 18:09:59.989203000,0.820202880859375,0.1802453100681305,1.9068396091461184,0.2404894232749939
2024-12-07 18:09:59.999177000,0.830177001953125,0.1026510298252105,1.5275720357894895,0.1690313071012497
2024-12-07 18:10:00.009151000,0.84015087890625,0.0426193848252296,1.0324581861495972,0.1497169882059097
2024-12-07 18:10:00.019124000,0.8501240234375,0.029529994353652,0.5492114424705505,0.1903718262910843
2024-12-07 18:10:00.029098000,0.860097900390625,0.0643718615174293,0.1306382119655609,0.2532780766487121
2024-12-07 18:10:00.039072000,0.870072021484375,0.1113168075680732,-0.1686750501394271,0.3063507080078125
2024-12-07 18:10:00.049046000,0.8800458984375,0.1562445908784866,-0.3148333132266998,0.3455692231655121
2024-12-07 18:10:00.059018800,0.890018798828125,0.1931449323892593,-0.2612355351448059,0.3846743702888489
2024-12-07 18:10:00.068992800,0.89999267578125,0.1968943923711776,-0.067770205438137,0.4135560691356659
2024-12-07 18:10:00.078966800,0.909966796875,0.2232070863246917,0.1092305108904838,0.4342891871929168
2024-12-07 18:10:00.088940000,0.91993994140625,0.2632815539836883,0.2097667008638382,0.4631940722465515
2024-12-07 18:10:00.098913800,0.929913818359375,0.2953987419605255,0.2639452815055847,0.4952016472816467
2024-12-07 18:10:00.108887800,0.9398876953125,0.3060838878154754,0.3051968514919281,0.5224269032478333
2024-12-07 18:10:00.118861800,0.94986181640625,0.3221105337142944,0.3541792035102844,0.5401148200035095
2024-12-07 18:10:00.128835000,0.9598349609375,0.3379297256469726,0.412638247013092,0.5512875914573669
2024-12-07 18:10:00.138809000,0.96980908203125,0.3640764653682709,0.4698947966098785,0.5569632053375244
2024-12-07 18:10:00.148782800,0.979782958984375,0.387080043554306,0.4975517392158508,0.5619896650314331
2024-12-07 18:10:00.158756000,0.989756103515625,0.4089294075965881,0.4933061301708221,0.5630360245704651
2024-12-07 18:10:00.168730000,0.999730224609375,0.4135790169239044,0.4667994081974029,0.5630725026130676
2024-12-07 18:10:00.178704100,1.0097041015625,0.4016509354114532,0.4398387372493744,0.5464197993278503
2024-12-07 18:10:00.188676900,1.0196767578125,0.3812178373336792,0.3789780437946319,0.5230926275253296
2024-12-07 18:10:00.198651000,1.02965087890625,0.3439915180206299,0.3301534056663513,0.4659115970134735
2024-12-07 18:10:00.208625000,1.039625,0.3039602041244507,0.2631123065948486,0.4005917310714721
2024-12-07 18:10:00.218599000,1.049598876953125,0.2638871371746063,0.189066931605339,0.3439370393753052
2024-12-07 18:10:00.228572000,1.059572021484375,0.2359311133623123,0.1376591324806213,0.3054900467395782
2024-12-07 18:10:00.238546000,1.0695458984375,0.2270958423614502,0.1166634410619735,0.2860851287841797
2024-12-07 18:10:00.248520000,1.07952001953125,0.2335433512926101,0.1287456750869751,0.2766207754611969
2024-12-07 18:10:00.258493000,1.089492919921875,0.2582809925079345,0.1707947552204132,0.2625968754291534
2024-12-07 18:10:00.268467000,1.099467041015625,0.2897489070892334,0.1832660585641861,0.2446383535861969
2024-12-07 18:10:00.278441000,1.10944091796875,0.2931064963340759,0.2362719625234604,0.1935439258813858
2024-12-07 18:10:00.288415000,1.1194150390625,0.2752159237861633,0.2288899421691894,0.1411566138267517
2024-12-07 18:10:00.298388000,1.129387939453125,0.2556199431419372,0.1732687801122665,0.1009864509105682
2024-12-07 18:10:00.308362000,1.139362060546875,0.2197817862033844,0.175503984093666,0.040650401264429
2024-12-07 18:10:00.318336000,1.1493359375,0.1938112378120422,0.1448224037885666,0.0074615054763853
2024-12-07 18:10:00.328309000,1.15930908203125,0.1665535122156143,0.0898323804140091,-0.0119532048702239
2024-12-07 18:10:00.338283000,1.169282958984375,0.1412391364574432,0.0402026399970054,-0.0204987470060586
2024-12-07 18:10:00.348257000,1.179257080078125,0.1264793574810028,-0.0121953198686242,-0.0338252037763595
2024-12-07 18:10:00.358229800,1.189229736328125,0.1318444609642028,-0.0972647443413734,-0.0508524850010871
2024-12-07 18:10:00.368203800,1.199203857421875,0.1273357272148132,-0.1412284672260284,-0.1047412827610969
2024-12-07 18:10:00.378177800,1.209177734375,0.1077605336904525,-0.1960727870464325,-0.1611844301223755
2024-12-07 18:10:00.388151800,1.21915185546875,0.090306706726551,-0.2411412000656128,-0.2150852084159851
2024-12-07 18:10:00.398125000,1.229125,0.0878229141235351,-0.2659633159637451,-0.2738516330718994
2024-12-07 18:10:00.408098800,1.239098876953125,0.1047371849417686,-0.2785203754901886,-0.3121308386325836
2024-12-07 18:10:00.418072800,1.24907275390625,0.1191424950957298,-0.2668850123882293,-0.3262108862400055
2024-12-07 18:10:00.428046000,1.259046142578125,0.1100246235728263,-0.2443088740110397,-0.3357255458831787
2024-12-07 18:10:00.438020000,1.26902001953125,0.0756982117891311,-0.2184749841690063,-0.3378296196460724
2024-12-07 18:10:00.447994000,1.278994140625,0.0242081247270107,-0.2259901612997055,-0.3463320434093475
2024-12-07 18:10:00.457967000,1.288967041015625,-0.0195999331772327,-0.3418835699558258,-0.3468774259090423
2024-12-07 18:10:00.467941000,1.298941162109375,-0.0798435658216476,-0.4473005533218384,-0.3641570806503296
2024-12-07 18:10:00.477915100,1.3089150390625,-0.1320830881595611,-0.5169196128845215,-0.3902903497219085
2024-12-07 18:10:00.487889200,1.31888916015625,-0.1623789370059967,-0.5543652772903442,-0.4090246260166168
2024-12-07 18:10:00.497862000,1.32886181640625,-0.1823591440916061,-0.5697833895683289,-0.4134427607059479
2024-12-07 18:10:00.507836000,1.3388359375,-0.1896442174911499,-0.5927017331123352,-0.4028098285198211
2024-12-07 18:10:00.517810000,1.348809814453125,-0.2021293491125106,-0.5932628512382507,-0.4031139016151428
2024-12-07 18:10:00.527783000,1.358782958984375,-0.2189011424779892,-0.592717170715332,-0.3951720893383026
2024-12-07 18:10:00.537757000,1.3687568359375,-0.2222282290458679,-0.5859729647636414,-0.3721929788589477
2024-12-07 18:10:00.547731000,1.37873095703125,-0.2067840248346328,-0.5509777069091797,-0.3615294396877289
2024-12-07 18:10:00.557705000,1.388705078125,-0.185558408498764,-0.5020624399185181,-0.359312355518341
2024-12-07 18:10:00.567678000,1.398677978515625,-0.1706058233976364,-0.4393071830272674,-0.3413349390029907
2024-12-07 18:10:00.577652000,1.40865185546875,-0.1657901853322982,-0.3977594077587127,-0.2910255491733551
2024-12-07 18:10:00.587626200,1.418626220703125,-0.1747559756040573,-0.2457751929759979,-0.2592809498310089
2024-12-07 18:10:00.597599200,1.42859912109375,-0.1673720777034759,-0.060454573482275,-0.2035399675369262
2024-12-07 18:10:00.607573200,1.4385732421875,-0.1253055930137634,0.1028339490294456,-0.1149429902434349
2024-12-07 18:10:00.617547300,1.44854736328125,-0.0708833709359169,0.2095960527658462,-0.0193892419338226
2024-12-07 18:10:00.627520000,1.45852001953125,-0.0522953085601329,0.254951536655426,0.0256056636571884
2024-12-07 18:10:00.637494000,1.468493896484375,-0.0928301215171814,0.2228199988603592,-0.0144576411694288
2024-12-07 18:10:00.647468000,1.478468017578125,-0.1690505892038345,0.0802292898297309,-0.1016631126403808
2024-12-07 18:10:00.657442000,1.488442138671875,-0.2192914932966232,-0.0659082382917404,-0.1576714813709259
2024-12-07 18:10:00.667415000,1.4984150390625,-0.1879242360591888,-0.0655654892325401,-0.180783987045288
2024-12-07 18:10:00.677389000,1.50838916015625,-0.0765058845281601,0.0582460761070251,-0.1990444958209991
2024-12-07 18:10:00.687363000,1.518363037109375,0.0510235801339149,0.1938454508781433,-0.233586236834526
2024-12-07 18:10:00.697336300,1.52833642578125,0.1273079663515091,0.274226039648056,-0.3033642470836639
2024-12-07 18:10:00.707310000,1.53831005859375,0.1320936679840088,0.2553324997425079,-0.3986585438251495
2024-12-07 18:10:00.717284000,1.5482841796875,0.062981441617012,0.1208687052130699,-0.5109020471572876
2024-12-07 18:10:00.727257300,1.55825732421875,-0.0028883875347673,-0.1174213588237762,-0.5520968437194824
2024-12-07 18:10:00.737231400,1.5682314453125,-0.0277585126459598,-0.3330927193164825,-0.5268456339836121
2024-12-07 18:10:00.747205400,1.578205322265625,-0.0322842858731746,-0.4630818963050842,-0.4823072254657745
2024-12-07 18:10:00.757179100,1.58817919921875,-0.041320689022541,-0.5118029117584229,-0.4458300471305847
2024-12-07 18:10:00.767152400,1.59815234375,-0.0549073368310928,-0.5051180720329285,-0.4178612530231476
2024-12-07 18:10:00.777126400,1.60812646484375,-0.0584682822227478,-0.4362850487232208,-0.381841629743576
2024-12-07 18:10:00.787100400,1.618100341796875,-0.0376050770282745,-0.3299586176872253,-0.3266457617282867
2024-12-07 18:10:00.797073200,1.6280732421875,-0.0209619142115116,-0.235820397734642,-0.2472469806671142
2024-12-07 18:10:00.807047200,1.638047119140625,-0.0206679012626409,-0.1841998100280761,-0.1702992022037506
2024-12-07 18:10:00.817021200,1.648021240234375,-0.0315803922712802,-0.2055136412382125,-0.119108498096466
2024-12-07 18:10:00.826994200,1.657994140625,-0.0427009500563144,-0.2668816447257995,-0.1051314324140548
2024-12-07 18:10:00.836968200,1.66796826171875,-0.0539086684584617,-0.3367008864879608,-0.1102037653326988
2024-12-07 18:10:00.846942200,1.677942138671875,-0.0615820325911045,-0.3980427980422973,-0.1045104637742042
2024-12-07 18:10:00.856916200,1.687916259765625,-0.0750839784741401,-0.433937132358551,-0.0886061340570449
2024-12-07 18:10:00.866889200,1.69788916015625,-0.0902690589427948,-0.4532157480716705,-0.0600248202681541
2024-12-07 18:10:00.876863200,1.70786328125,-0.1092547476291656,-0.4592672884464264,-0.023778336122632
2024-12-07 18:10:00.886837200,1.717837158203125,-0.1237910836935043,-0.4292462766170501,0.0189685951918363
2024-12-07 18:10:00.896810200,1.727810302734375,-0.1311862766742706,-0.3802727162837982,0.0573742762207984
2024-12-07 18:10:00.906784300,1.7377841796875,-0.1330893635749817,-0.3532879650592804,0.0893918648362159
2024-12-07 18:10:00.916758300,1.74775830078125,-0.1294705718755722,-0.382047176361084,0.1013689190149307
2024-12-07 18:10:00.926731000,1.75773095703125,-0.1165510490536689,-0.4718396365642547,0.0861260518431663
2024-12-07 18:10:00.936705000,1.767705078125,-0.1037508770823478,-0.5653180480003357,0.0353105328977108
2024-12-07 18:10:00.946679000,1.777678955078125,-0.0926007553935051,-0.602128267288208,-0.0390947274863719
2024-12-07 18:10:00.956653000,1.787653076171875,-0.0847865045070648,-0.5785592794418335,-0.12208042293787
2024-12-07 18:10:00.966626000,1.7976259765625,-0.0923525467514991,-0.5587314963340759,-0.1782789826393127
2024-12-07 18:10:00.976600000,1.80760009765625,-0.0884643048048019,-0.5579157471656799,-0.1970933526754379
2024-12-07 18:10:00.986574000,1.817573974609375,-0.0803634971380233,-0.5624939799308777,-0.1885275542736053
2024-12-07 18:10:00.996547300,1.82754736328125,-0.0782806947827339,-0.5556583404541016,-0.1850290894508361
2024-12-07 18:10:01.006521300,1.837521240234375,-0.0878952369093895,-0.539341151714325,-0.184442400932312
2024-12-07 18:10:01.016495000,1.8474951171875,-0.1195800378918647,-0.5087316036224365,-0.1902714967727661
2024-12-07 18:10:01.026469000,1.85746923828125,-0.1575375348329544,-0.4716457426548004,-0.187752678990364
2024-12-07 18:10:01.036442400,1.8674423828125,-0.20326729118824,-0.4309728741645813,-0.1688948571681976
2024-12-07 18:10:01.046416400,1.87741650390625,-0.2442251145839691,-0.3894651234149933,-0.1409175395965576
2024-12-07 18:10:01.056390400,1.887390380859375,-0.2624914944171905,-0.3616706132888794,-0.1332463920116424
2024-12-07 18:10:01.066363100,1.897363037109375,-0.2628467381000519,-0.3371093273162842,-0.1365550905466079
2024-12-07 18:10:01.076337200,1.907337158203125,-0.2501867115497589,-0.3305701911449432,-0.1588461101055145
2024-12-07 18:10:01.086311200,1.917311279296875,-0.2288209646940231,-0.3583016991615295,-0.1962672472000122
2024-12-07 18:10:01.096284200,1.9272841796875,-0.1969615519046783,-0.4109829068183899,-0.2491548210382461
2024-12-07 18:10:01.106258200,1.937258056640625,-0.1663397252559662,-0.4436633586883545,-0.2982576787471771
2024-12-07 18:10:01.116232200,1.947232177734375,-0.1409578770399093,-0.43642657995224,-0.3206261992454529
2024-12-07 18:10:01.126206200,1.957206298828125,-0.1171324327588081,-0.380756139755249,-0.3049609661102295
2024-12-07 18:10:01.136179200,1.96717919921875,-0.0841380432248115,-0.2791329622268677,-0.2654814124107361
2024-12-07 18:10:01.146153200,1.9771533203125,-0.0595898181200027,-0.1928814351558685,-0.2035748958587646
2024-12-07 18:10:01.156127200,1.987127197265625,-0.0494236201047897,-0.1360742896795272,-0.1400114595890045
2024-12-07 18:10:01.166100200,1.997100341796875,-0.0393656603991985,-0.1568533331155777,-0.0790671482682228
2024-12-07 18:10:01.176074200,2.00707421875,-0.034585066139698,-0.2117710262537002,-0.0406085178256034
2024-12-07 18:10:01.186048300,2.01704833984375,-0.0356340855360031,-0.246459499001503,-0.0147723965346813
2024-12-07 18:10:01.196021200,2.027021240234375,-0.0390260368585586,-0.2336770594120025,0.0208869613707065
2024-12-07 18:10:01.205995000,2.0369951171875,-0.0443395748734474,-0.1871276646852493,0.0624176263809204
2024-12-07 18:10:01.215969000,2.046968994140625,-0.0562664493918418,-0.1129476800560951,0.0970774963498115
2024-12-07 18:10:01.225943000,2.056943115234375,-0.0727652683854103,-0.0058547798544168,0.1193574965000152
2024-12-07 18:10:01.235916000,2.066916015625,-0.0886331871151924,0.0905854329466819,0.1317892521619796
2024-12-07 18:10:01.245890000,2.07689013671875,-0.1033335700631141,0.1471019685268402,0.1432158201932907
2024-12-07 18:10:01.255864000,2.086864013671875,-0.1172153577208519,0.1759867221117019,0.1691729128360748
2024-12-07 18:10:01.265837300,2.09683740234375,-0.1227810978889465,0.2090277522802353,0.2034765481948852
2024-12-07 18:10:01.275811000,2.10681103515625,-0.1244600340723991,0.2445490062236786,0.228719562292099
2024-12-07 18:10:01.285785000,2.11678515625,-0.1191009581089019,0.2461261302232742,0.2362778782844543
2024-12-07 18:10:01.295758300,2.12675830078125,-0.1200596094131469,0.1995626091957092,0.2395538687705993
2024-12-07 18:10:01.305732400,2.136732421875,-0.1254458576440811,0.1546502709388733,0.2323393672704696
2024-12-07 18:10:01.315706400,2.146706298828125,-0.1270860731601715,0.1408567279577255,0.1976534873247146
2024-12-07 18:10:01.325680000,2.15668017578125,-0.1173330470919609,0.1227917075157165,0.1245803460478782
2024-12-07 18:10:01.335653400,2.1666533203125,-0.1053614392876625,0.0744334682822227,0.0262178629636764
2024-12-07 18:10:01.345627400,2.17662744140625,-0.0972585082054138,0.005560927093029,-0.0683893337845802
2024-12-07 18:10:01.355601400,2.186601318359375,-0.0976722612977027,-0.0522858351469039,-0.1207750886678695
2024-12-07 18:10:01.365574100,2.19657421875,-0.1011210530996322,-0.0696858614683151,-0.116108700633049
2024-12-07 18:10:01.375548200,2.206548095703125,-0.0884584859013557,-0.0565073490142822,-0.0913266390562057
2024-12-07 18:10:01.385522200,2.216522216796875,-0.0693692117929458,-0.0562367737293243,-0.0753745734691619
2024-12-07 18:10:01.395495200,2.2264951171875,-0.0593586601316928,-0.0907356217503547,-0.0768764019012451
2024-12-07 18:10:01.405469200,2.23646923828125,-0.0618188865482807,-0.1465328484773636,-0.0833119302988052
2024-12-07 18:10:01.415443200,2.246443115234375,-0.0720081850886344,-0.1947178095579147,-0.0873600170016288
2024-12-07 18:10:01.425417200,2.256417236328125,-0.0726822316646575,-0.1998771429061889,-0.0802211463451385
2024-12-07 18:10:01.435390200,2.26639013671875,-0.0486445762217044,-0.1537931412458419,-0.0567590966820716
2024-12-07 18:10:01.445364200,2.2763642578125,0.0006049944786354,-0.0579284019768238,-0.0239681303501129
2024-12-07 18:10:01.455338200,2.286338134765625,0.0754359066486358,0.0637687295675277,0.0222129002213478
2024-12-07 18:10:01.465311200,2.296311279296875,0.1770498752593994,0.1980458348989486,0.1141076683998107
2024-12-07 18:10:01.475285200,2.30628515625,0.2857555150985718,0.3405612707138061,0.2462125718593597
2024-12-07 18:10:01.485259300,2.31625927734375,0.3876504600048065,0.4537887573242187,0.3985158205032348
2024-12-07 18:10:01.495233300,2.3262333984375,0.4507600665092468,0.5495820045471191,0.5333197116851807
2024-12-07 18:10:01.505206000,2.3362060546875,0.4802005290985107,0.6675496101379395,0.6553627848625183
2024-12-07 18:10:01.515180000,2.346179931640625,0.4989211559295654,0.763330340385437,0.8076106905937195
2024-12-07 18:10:01.525154000,2.356154052734375,0.5168135762214661,0.7837564945220947,0.9725229740142822
2024-12-07 18:10:01.535127000,2.366126953125,0.5034404397010803,0.6153192520141602,1.118282675743103
2024-12-07 18:10:01.545101000,2.37610107421875,0.4246068596839905,0.3063590228557586,1.259974479675293
2024-12-07 18:10:01.555075000,2.386074951171875,0.2995156347751617,0.1061180904507637,1.3811784982681274
2024-12-07 18:10:01.565048300,2.39604833984375,0.1826627850532531,0.144186645746231,1.328925848007202
2024-12-07 18:10:01.575022300,2.406022216796875,0.1045253053307533,0.3552670180797577,1.1427719593048096
2024-12-07 18:10:01.584996000,2.41599609375,0.0895641967654228,0.6277353167533875,0.9299060702323914
2024-12-07 18:10:01.594970000,2.42597021484375,0.1163641512393951,0.8548641800880432,0.7604146599769592
2024-12-07 18:10:01.604943000,2.435943115234375,0.1910133510828018,1.015533685684204,0.6349025368690491
2024-12-07 18:10:01.614917000,2.445917236328125,0.294986367225647,1.0599679946899414,0.5059249401092529
2024-12-07 18:10:01.624891100,2.45589111328125,0.326809287071228,0.9570584297180176,0.3529511392116546
2024-12-07 18:10:01.634863900,2.46586376953125,0.2873208522796631,0.7785143256187439,0.1937028020620346
2024-12-07 18:10:01.644838000,2.475837890625,0.2359900176525116,0.6221111416816711,0.0742688030004501
2024-12-07 18:10:01.654812000,2.48581201171875,0.2030522674322128,0.5030163526535034,0.0353210680186748
2024-12-07 18:10:01.664785000,2.495784912109375,0.192689374089241,0.4543617665767669,0.0616008751094341
2024-12-07 18:10:01.674759000,2.505759033203125,0.1854678094387054,0.4823940098285675,0.0906246304512023
2024-12-07 18:10:01.684733000,2.51573291015625,0.1515987813472747,0.5043389797210693,0.0949056595563888
2024-12-07 18:10:01.694707000,2.52570703125,0.1029982343316078,0.4338235557079315,0.067125104367733
2024-12-07 18:10:01.704680000,2.535679931640625,0.0559764020144939,0.3186154961585998,0.0065339268185198
2024-12-07 18:10:01.714654000,2.545654052734375,0.0296105854213237,0.1577614098787307,-0.0588880851864814
2024-12-07 18:10:01.724628000,2.5556279296875,0.0177986659109592,-0.0108691472560167,-0.1054678410291671
2024-12-07 18:10:01.734601000,2.56560107421875,0.0101926941424608,-0.1216454207897186,-0.1243995204567909
2024-12-07 18:10:01.744575000,2.575574951171875,-0.0025920765474438,-0.1598657816648483,-0.1223683282732963
2024-12-07 18:10:01.754549000,2.585549072265625,-0.0065378732979297,-0.1304678469896316,-0.1259238570928573
2024-12-07 18:10:01.764521700,2.595521728515625,-0.0054529015906155,-0.0368742421269416,-0.1391254216432571
2024-12-07 18:10:01.774495700,2.605495849609375,-0.0100567489862442,0.0688411444425582,-0.1579401344060897
2024-12-07 18:10:01.784469800,2.6154697265625,-0.0456419102847576,0.0869722068309784,-0.1860814839601516
2024-12-07 18:10:01.794443800,2.62544384765625,-0.1094546541571617,-0.025957902893424,-0.202068492770195
2024-12-07 18:10:01.804416800,2.635416748046875,-0.1785130798816681,-0.2079050689935684,-0.1848926991224289
2024-12-07 18:10:01.814390800,2.645390869140625,-0.2440995126962661,-0.3510823547840118,-0.1370173096656799
2024-12-07 18:10:01.824364800,2.65536474609375,-0.2799312770366668,-0.3600997924804687,-0.0845865905284881
2024-12-07 18:10:01.834338000,2.665338134765625,-0.2717198431491852,-0.2904394865036011,-0.058026123791933
2024-12-07 18:10:01.844312000,2.67531201171875,-0.224304661154747,-0.1639979183673858,-0.0896514281630516
2024-12-07 18:10:01.854286000,2.6852861328125,-0.1557680517435073,-0.0631877481937408,-0.1544201225042343
2024-12-07 18:10:01.864259000,2.695259033203125,-0.0888217762112617,0.0135046318173408,-0.219387412071228
2024-12-07 18:10:01.874233000,2.705233154296875,-0.0313712731003761,0.0573032423853874,-0.2460981160402298
2024-12-07 18:10:01.884207000,2.71520703125,-0.010931777767837,0.0434263087809085,-0.2169468849897384
2024-12-07 18:10:01.894181000,2.72518115234375,-0.0231612399220466,-0.0141649479046463,-0.151579663157463
2024-12-07 18:10:01.904154000,2.735154052734375,-0.0397018678486347,-0.0724727287888526,-0.0489779226481914
2024-12-07 18:10:01.914128100,2.745128173828125,-0.0247614346444606,-0.1218106895685195,0.0943115577101707
2024-12-07 18:10:01.924102100,2.75510205078125,0.0220345649868249,-0.1097122132778167,0.232661172747612
2024-12-07 18:10:01.934075000,2.765074951171875,0.0903061851859092,-0.0185472257435321,0.3056535124778747
2024-12-07 18:10:01.944049000,2.775048828125,0.1651548594236374,0.1721896976232528,0.2661913335323334
2024-12-07 18:10:01.954023000,2.78502294921875,0.2062221616506576,0.4232941269874573,0.1009900718927383
2024-12-07 18:10:01.963997000,2.794996826171875,0.1928387135267257,0.5393994450569153,-0.1624974906444549
2024-12-07 18:10:01.973970000,2.804969970703125,0.1583955734968185,0.4661616683006286,-0.3820356130599975
2024-12-07 18:10:01.983944000,2.81494384765625,0.1565441489219665,0.3715408742427826,-0.515204906463623
2024-12-07 18:10:01.993918000,2.82491796875,0.1439169496297836,0.2864094972610473,-0.5796428322792053
2024-12-07 18:10:02.003891000,2.834890869140625,0.1106290370225906,0.2351865172386169,-0.6050823926925659
2024-12-07 18:10:02.013865000,2.844864990234375,0.0714107900857925,0.2785486578941345,-0.5954760313034058
2024-12-07 18:10:02.023839000,2.8548388671875,0.0240177121013402,0.3620491325855255,-0.4743701219558716
2024-12-07 18:10:02.033812000,2.86481201171875,-0.0643304586410522,0.3646307587623596,-0.228249192237854
2024-12-07 18:10:02.043786000,2.874785888671875,-0.2130999565124511,0.0993513911962509,0.015341892838478
2024-12-07 18:10:02.053760000,2.884760009765625,-0.3592657148838043,-0.3804558217525482,0.1147528961300849
2024-12-07 18:10:02.063734000,2.894734130859375,-0.4386074244976043,-0.742067277431488,0.0745311677455902
2024-12-07 18:10:02.073706800,2.904706787109375,-0.4272657334804535,-0.8572760820388794,-0.0046535711735486
2024-12-07 18:10:02.083680800,2.9146806640625,-0.3561273515224457,-0.7870538234710693,-0.0655483454465866
2024-12-07 18:10:02.093654800,2.92465478515625,-0.2803314328193664,-0.5673584342002869,-0.1228365451097488
2024-12-07 18:10:02.103628000,2.9346279296875,-0.2325476855039596,-0.3140465319156647,-0.1735071837902069
2024-12-07 18:10:02.113602000,2.94460205078125,-0.2122306078672409,-0.1361753493547439,-0.2044166177511215
2024-12-07 18:10:02.123575800,2.954575927734375,-0.1929919272661209,-0.0260320659726858,-0.218162253499031
2024-12-07 18:10:02.133549000,2.964549072265625,-0.1739734262228012,0.0797217413783073,-0.2421860098838806
2024-12-07 18:10:02.143523000,2.974523193359375,-0.1506018042564392,0.1363405436277389,-0.2806625664234161
2024-12-07 18:10:02.153497000,2.9844970703125,-0.1116311401128768,0.0959707349538803,-0.3257405459880829
2024-12-07 18:10:02.163471000,2.99447119140625,-0.0786753222346305,0.0026908563449978,-0.355247288942337
2024-12-07 18:10:02.173444000,3.004444091796875,-0.0697494000196456,-0.0710180476307869,-0.3878998160362243
2024-12-07 18:10:02.183418000,3.014418212890625,-0.080756776034832,-0.0989543423056602,-0.4260213673114776
2024-12-07 18:10:02.193392000,3.02439208984375,-0.104816198348999,-0.1189343631267547,-0.4543339610099792
2024-12-07 18:10:02.203364900,3.03436474609375,-0.1331740766763687,-0.1517719328403473,-0.4690290093421936
2024-12-07 18:10:02.213339000,3.0443388671875,-0.1709029823541641,-0.1881613880395889,-0.4646105468273163
2024-12-07 18:10:02.223313000,3.05431298828125,-0.1964581459760666,-0.192453071475029,-0.4550599157810211
2024-12-07 18:10:02.233286000,3.064285888671875,-0.2041784822940826,-0.195807084441185,-0.4485803246498108
2024-12-07 18:10:02.243260000,3.074260009765625,-0.2216714471578598,-0.1884913742542266,-0.4281906187534332
2024-12-07 18:10:02.253234000,3.08423388671875,-0.2358769625425338,-0.1783427149057388,-0.4012357592582702
2024-12-07 18:10:02.263208000,3.0942080078125,-0.245389774441719,-0.2153201699256897,-0.3996240198612213
2024-12-07 18:10:02.273181000,3.104180908203125,-0.2602978050708771,-0.3010033965110779,-0.404660552740097
2024-12-07 18:10:02.283155000,3.114155029296875,-0.2824041843414306,-0.4034362733364105,-0.3992093503475189
2024-12-07 18:10:02.293129000,3.12412890625,-0.2994994521141052,-0.5056641101837158,-0.3643235862255096
2024-12-07 18:10:02.303102000,3.13410205078125,-0.3060124814510345,-0.618404746055603,-0.3154061138629913
2024-12-07 18:10:02.313076000,3.144075927734375,-0.2947289943695068,-0.711387038230896,-0.2786736786365509
2024-12-07 18:10:02.323050000,3.154050048828125,-0.2656656503677368,-0.7633998990058899,-0.2454067915678024
2024-12-07 18:10:02.333022700,3.164022705078125,-0.2355573773384094,-0.7468599081039429,-0.2318021357059478
2024-12-07 18:10:02.342996700,3.173996826171875,-0.2102813124656677,-0.6927263140678406,-0.2435059249401092
2024-12-07 18:10:02.352970800,3.183970703125,-0.191055029630661,-0.6372967958450317,-0.2833180129528045
2024-12-07 18:10:02.362944800,3.19394482421875,-0.1853366792201995,-0.567566990852356,-0.3261142075061798
2024-12-07 18:10:02.372918000,3.20391796875,-0.2059367597103119,-0.4839170575141907,-0.3256823122501373
2024-12-07 18:10:02.382891800,3.213891845703125,-0.2317081689834594,-0.3512026965618133,-0.288460373878479
2024-12-07 18:10:02.392865800,3.22386572265625,-0.2423508614301681,-0.2078918516635894,-0.234929010272026
2024-12-07 18:10:02.402839000,3.233839111328125,-0.2303607761859893,-0.1066427305340766,-0.1907285302877426
2024-12-07 18:10:02.412813000,3.24381298828125,-0.2046400606632232,-0.0725521668791771,-0.1720858365297317
2024-12-07 18:10:02.422787000,3.253787109375,-0.1857212334871292,-0.0630044639110565,-0.1830367594957351
2024-12-07 18:10:02.432760000,3.263760009765625,-0.1725848019123077,-0.0552098117768764,-0.2099186778068542
2024-12-07 18:10:02.442734000,3.273734130859375,-0.1615489274263382,-0.0071581313386559,-0.2860581576824188
2024-12-07 18:10:02.452708000,3.2837080078125,-0.1723103523254394,0.0643460303544998,-0.3569749891757965
2024-12-07 18:10:02.462682000,3.29368212890625,-0.1830663233995437,0.139067143201828,-0.3689802587032318
2024-12-07 18:10:02.472655000,3.303655029296875,-0.1931786388158798,0.2184076905250549,-0.3018516302108764
2024-12-07 18:10:02.482629000,3.313629150390625,-0.2106540501117706,0.3035284280776977,-0.1927512437105178
2024-12-07 18:10:02.492603100,3.32360302734375,-0.2193994969129562,0.3585853278636932,-0.072315476834774
2024-12-07 18:10:02.502575900,3.333575927734375,-0.2030365169048309,0.3581717312335968,0.021253352984786
2024-12-07 18:10:02.512550000,3.3435498046875,-0.1666637957096099,0.3067744970321655,0.0617751628160476
2024-12-07 18:10:02.522524000,3.35352392578125,-0.1311436146497726,0.226714551448822,0.0623975396156311
2024-12-07 18:10:02.532497000,3.363496826171875,-0.09991305321455,0.1340779215097427,0.033909223973751
2024-12-07 18:10:02.542471000,3.373470947265625,-0.0726129934191703,0.0473875030875206,-0.0073711015284061
2024-12-07 18:10:02.552445000,3.38344482421875,-0.0484750382602214,-0.0107752913609147,-0.0481922701001167
2024-12-07 18:10:02.562419000,3.3934189453125,-0.0332050025463104,-0.0396759137511253,-0.0666346624493599
2024-12-07 18:10:02.572392000,3.403391845703125,-0.0346450693905353,-0.0087787499651312,-0.0257116183638572
2024-12-07 18:10:02.582366000,3.413365966796875,-0.0182791445404291,0.1156526505947113,0.1013027876615524
2024-12-07 18:10:02.592340500,3.423340576171875,0.0298010595142841,0.3492814600467682,0.294100821018219
2024-12-07 18:10:02.602313500,3.4333134765625,0.1353799402713775,0.6477483510971069,0.5277300477027893
2024-12-07 18:10:02.612287500,3.44328759765625,0.2636909484863281,0.9138106107711792,0.7383464574813843
2024-12-07 18:10:02.622261500,3.453261474609375,0.381493479013443,1.0688401460647583,0.8750150799751282
2024-12-07 18:10:02.632234500,3.463234375,0.4585781395435333,1.1076942682266235,0.924321174621582
2024-12-07 18:10:02.642208500,3.47320849609375,0.5351871848106384,1.0544520616531372,0.9341224431991576
2024-12-07 18:10:02.652182500,3.4831826171875,0.655458927154541,0.9937176704406738,0.9560219645500184
2024-12-07 18:10:02.662156500,3.493156494140625,0.7649252414703369,0.9146715998649596,0.9744678139686584
2024-12-07 18:10:02.672129500,3.503129638671875,0.8265863656997681,0.5480846166610718,1.0335770845413208
2024-12-07 18:10:02.682103600,3.513103515625,0.774441123008728,-0.05597360804677,1.3547073602676392
2024-12-07 18:10:02.692077600,3.52307763671875,0.5577049255371094,-0.5284961462020874,1.834427118301392
2024-12-07 18:10:02.702050600,3.533050537109375,0.3028534352779388,-0.5280870795249939,2.132420301437378
2024-12-07 18:10:02.712024600,3.543024658203125,0.1450183093547821,-0.1247579380869865,2.160509824752808
2024-12-07 18:10:02.721998600,3.55299853515625,0.1031813770532608,0.34520423412323,2.0202860832214355
2024-12-07 18:10:02.731972600,3.56297265625,0.1280160397291183,0.7769777178764343,1.7627060413360596
2024-12-07 18:10:02.741945600,3.572945556640625,0.2188663184642791,1.0409177541732788,1.4327441453933716
2024-12-07 18:10:02.751919600,3.582919677734375,0.3748902976512909,1.094039797782898,1.106705904006958
2024-12-07 18:10:02.761893600,3.5928935546875,0.5535529851913452,1.1560381650924685,0.8322026133537292
2024-12-07 18:10:02.771866600,3.60286669921875,0.599457859992981,1.2714389562606812,0.6483601331710815
2024-12-07 18:10:02.781840600,3.612840576171875,0.4744041264057159,1.231785535812378,0.5419692397117615
2024-12-07 18:10:02.791814700,3.622814697265625,0.2632571160793304,0.8780669569969177,0.4720525443553924
2024-12-07 18:10:02.801787600,3.63278759765625,0.1299049109220504,0.3137215673923492,0.3985695242881775
2024-12-07 18:10:02.811761700,3.64276171875,0.1077744662761688,-0.1707991361618042,0.3055103421211242
2024-12-07 18:10:02.821735700,3.652735595703125,0.1423236578702926,-0.3693641424179077,0.2303481996059417
2024-12-07 18:10:02.831709700,3.662709716796875,0.185769572854042,-0.3527891635894775,0.1713000535964965
2024-12-07 18:10:02.841682700,3.6726826171875,0.198864072561264,-0.240490049123764,0.124014027416706
2024-12-07 18:10:02.851656700,3.68265673828125,0.1781703829765319,-0.104642853140831,0.0881377458572387
2024-12-07 18:10:02.861630700,3.692630615234375,0.1351813822984695,0.0079220458865165,0.0218071974813938
2024-12-07 18:10:02.871603500,3.702603515625,0.116947665810585,0.078937828540802,-0.083838365972042
2024-12-07 18:10:02.881577500,3.712577392578125,0.1022909581661224,0.1333978623151779,-0.2143889218568802
2024-12-07 18:10:02.891551500,3.722551513671875,0.04596509039402,0.1610265225172042,-0.3601095676422119
2024-12-07 18:10:02.901524500,3.7325244140625,-0.0459397993981838,0.1781860738992691,-0.4999623000621795
2024-12-07 18:10:02.911498500,3.74249853515625,-0.1425407975912094,0.1706328988075256,-0.6235661506652832
2024-12-07 18:10:02.921472500,3.752472412109375,-0.2280415743589401,0.1315052062273025,-0.7231270670890808
2024-12-07 18:10:02.931446500,3.762446533203125,-0.2779839634895324,0.0524915717542171,-0.78635573387146
2024-12-07 18:10:02.941419500,3.77241943359375,-0.3054997324943542,-0.0662121698260307,-0.7863360643386841
2024-12-07 18:10:02.951393500,3.7823935546875,-0.3299053311347961,-0.2268634438514709,-0.7201489210128784
2024-12-07 18:10:02.961367600,3.792367431640625,-0.3622414171695709,-0.3838376104831695,-0.5935254693031311
2024-12-07 18:10:02.971340500,3.802340576171875,-0.3774871826171875,-0.4530944526195526,-0.4591705203056335
2024-12-07 18:10:02.981314600,3.812314453125,-0.3455226123332977,-0.4321894347667694,-0.3587214350700378
2024-12-07 18:10:02.991288600,3.82228857421875,-0.2764563858509063,-0.3779227435588836,-0.3139505386352539
2024-12-07 18:10:03.001261600,3.832261474609375,-0.1945378184318542,-0.3093436956405639,-0.3138536214828491
2024-12-07 18:10:03.011235600,3.842235595703125,-0.1214931011199951,-0.2539950311183929,-0.3208260536193847
2024-12-07 18:10:03.021209600,3.852209716796875,-0.0536038056015968,-0.2367449402809143,-0.3130517601966858
2024-12-07 18:10:03.031183400,3.862183349609375,0.0092033576220273,-0.2408401817083358,-0.2674213051795959
2024-12-07 18:10:03.041156600,3.872156494140625,0.0581434704363346,-0.2915467619895935,-0.180909588932991
2024-12-07 18:10:03.051130600,3.882130615234375,0.07269998639822,-0.3363391757011413,-0.0737920701503753
2024-12-07 18:10:03.061104600,3.892104736328125,0.0612095110118389,-0.3468892872333526,0.0270602405071258
2024-12-07 18:10:03.071077600,3.90207763671875,0.0309901349246501,-0.2839629054069519,0.118504948914051
2024-12-07 18:10:03.081051600,3.9120517578125,0.0113948602229356,-0.1922588348388672,0.2209168076515197
2024-12-07 18:10:03.092272600,3.923272705078125,0.060850866138935,-0.1090535596013069,0.3603079319000244
2024-12-07 18:10:03.102245600,3.93324560546875,0.1598588228225708,-0.0356097742915153,0.4477889537811279
2024-12-07 18:10:03.112219600,3.9432197265625,0.2748397290706634,-0.0221174005419015,0.4126645028591156
2024-12-07 18:10:03.122193700,3.953193603515625,0.3721689879894256,-0.0742745250463485,0.189088225364685
2024-12-07 18:10:03.132167700,3.963167724609375,0.4215959310531616,-0.1363418847322464,-0.1577634811401367
2024-12-07 18:10:03.142140700,3.973140625,0.3847647905349731,-0.2687393426895141,-0.4590622782707214
2024-12-07 18:10:03.152114700,3.98311474609375,0.2885205447673797,-0.3652301728725433,-0.6739245653152466
2024-12-07 18:10:03.162088700,3.993088623046875,0.164115160703659,-0.2779068648815155,-0.8474438190460205
2024-12-07 18:10:03.172061700,4.003061767578125,0.0194525215774774,0.0240423120558261,-0.9674975275993348
2024-12-07 18:10:03.182035700,4.01303564453125,-0.1236782744526863,0.4766574800014496,-0.9661750197410583
2024-12-07 18:10:03.192009700,4.023009765625,-0.1866900324821472,0.8569868206977844,-0.8109361529350281
2024-12-07 18:10:03.201982500,4.032982421875,-0.1821532100439071,0.9387350678443908,-0.570216715335846
2024-12-07 18:10:03.211956500,4.04295654296875,-0.2283875644207,0.577621579170227,-0.3672638535499573
2024-12-07 18:10:03.221930500,4.052930419921875,-0.3474691212177276,-0.1463504880666732,-0.2586412131786346
2024-12-07 18:10:03.231904500,4.062904541015625,-0.4767525494098663,-0.922107756137848,-0.2283959835767746
2024-12-07 18:10:03.241877500,4.07287744140625,-0.5567681193351746,-1.5157848596572876,-0.2628948390483856
2024-12-07 18:10:03.251851500,4.0828515625,-0.5817198157310486,-1.8372966051101685,-0.3542593717575073
2024-12-07 18:10:03.261825500,4.092825439453125,-0.5430154800415039,-1.8903346061706543,-0.5053421258926392
2024-12-07 18:10:03.271798500,4.102798583984375,-0.4662040174007416,-1.6932332515716553,-0.6642976999282837
2024-12-07 18:10:03.281772500,4.1127724609375,-0.3552192151546478,-1.3293744325637815,-0.7436974048614502
2024-12-07 18:10:03.291746600,4.12274658203125,-0.2456360012292862,-0.8412047624588013,-0.7103801965713501
2024-12-07 18:10:03.301719600,4.132719482421875,-0.1415845900774002,-0.3198873996734619,-0.5971545577049255
2024-12-07 18:10:03.311693600,4.142693603515625,-0.0677180811762809,0.1501605212688446,-0.4804244935512543
2024-12-07 18:10:03.321667600,4.15266748046875,0.0004796853754669,0.5252286195755005,-0.4280910491943359
2024-12-07 18:10:03.331641600,4.1626416015625,0.0752814933657646,0.693682074546814,-0.4345295131206512
2024-12-07 18:10:03.341614600,4.172614501953125,0.1311600357294082,0.6545200347900391,-0.450202614068985
2024-12-07 18:10:03.351588600,4.182588623046875,0.153594508767128,0.4847645759582519,-0.4372567236423492
2024-12-07 18:10:03.361562400,4.192562255859375,0.1374088823795318,0.2193981558084488,-0.3570438921451568
2024-12-07 18:10:03.371535600,4.20253564453125,0.0851869583129882,-0.0962950438261032,-0.2448841482400894
2024-12-07 18:10:03.381509600,4.212509521484375,0.0037751039490103,-0.3731849491596222,-0.153250977396965
2024-12-07 18:10:03.391483600,4.222483642578125,-0.0981488600373268,-0.5264565348625183,-0.0818540304899215
2024-12-07 18:10:03.401456600,4.23245654296875,-0.1899232715368271,-0.5491421222686768,-0.0184273887425661
2024-12-07 18:10:03.411430700,4.2424306640625,-0.2339965105056762,-0.5048254728317261,0.0183177590370178
2024-12-07 18:10:03.421404700,4.25240478515625,-0.2260427176952362,-0.4155392646789551,0.0006170603446662
2024-12-07 18:10:03.431377700,4.262377685546875,-0.1789058744907379,-0.3468093574047088,-0.0582790225744247
2024-12-07 18:10:03.441351700,4.2723515625,-0.1346028596162796,-0.3431802690029144,-0.1282879412174224
2024-12-07 18:10:03.451325700,4.28232568359375,-0.1165468320250511,-0.3470536470413208,-0.193331629037857
2024-12-07 18:10:03.461298400,4.29229833984375,-0.1047346517443656,-0.3342704772949219,-0.2470590472221374
2024-12-07 18:10:03.471272400,4.3022724609375,-0.0897111669182777,-0.3190482258796692,-0.2857695519924164
2024-12-07 18:10:03.481246500,4.31224658203125,-0.0652351230382919,-0.3281370401382446,-0.3105486631393432
2024-12-07 18:10:03.491220500,4.322220458984375,-0.0421687066555023,-0.381427526473999,-0.3186109066009521
2024-12-07 18:10:03.501193500,4.332193359375,-0.0234916936606168,-0.4545795023441314,-0.3260523080825805
2024-12-07 18:10:03.511167500,4.34216748046875,-0.0173839163035154,-0.5076355338096619,-0.3414344489574432
2024-12-07 18:10:03.521141500,4.3521416015625,-0.0309788212180137,-0.5110593438148499,-0.3679608702659607
2024-12-07 18:10:03.531114500,4.362114501953125,-0.0358010344207286,-0.481404036283493,-0.4079195261001587
2024-12-07 18:10:03.541088500,4.372088623046875,-0.0422488152980804,-0.425405740737915,-0.4579424858093261
2024-12-07 18:10:03.551062500,4.3820625,-0.0618966780602932,-0.3402866721153259,-0.4945131242275238
2024-12-07 18:10:03.561035500,4.392035400390625,-0.1061123386025428,-0.2326923161745071,-0.4919218719005584
2024-12-07 18:10:03.571009500,4.402009521484375,-0.1761543005704879,-0.0613981448113918,-0.3897433578968048
2024-12-07 18:10:03.580983600,4.411983642578125,-0.2199302762746811,0.1336832046508789,-0.1975347846746444
2024-12-07 18:10:03.590957800,4.421957763671875,-0.2061987817287445,0.2703184485435486,-0.0057395901530981
2024-12-07 18:10:03.600930800,4.431930908203125,-0.158039778470993,0.3541939258575439,0.097766026854515
2024-12-07 18:10:03.610904800,4.44190478515625,-0.1185907870531082,0.3977846205234527,0.0900722444057464
2024-12-07 18:10:03.620878800,4.45187890625,-0.1079261600971221,0.3811947107315063,0.0143402051180601
2024-12-07 18:10:03.630852000,4.46185205078125,-0.1214586794376373,0.3298662006855011,-0.0773405581712722
2024-12-07 18:10:03.640825900,4.471825927734375,-0.1365484148263931,0.2757257521152496,-0.1458612978458404
2024-12-07 18:10:03.650799900,4.4817998046875,-0.1381561607122421,0.2298578917980194,-0.1528873145580291
2024-12-07 18:10:03.660772900,4.49177294921875,-0.1272073686122894,0.1934801787137985,-0.1184233427047729
2024-12-07 18:10:03.670747000,4.501746826171875,-0.1230456978082656,0.1454549729824066,-0.049374982714653
2024-12-07 18:10:03.680721000,4.511720947265625,-0.1342677175998687,0.0827353969216346,0.0022384100593626
2024-12-07 18:10:03.690695000,4.52169482421875,-0.1540025472640991,-0.0037318537943065,0.0131869316101074
2024-12-07 18:10:03.700668000,4.53166796875,-0.1685479283332824,-0.1253642737865448,0.0028011361137032
2024-12-07 18:10:03.710642000,4.541641845703125,-0.189733624458313,-0.2378311306238174,-0.0150141427293419
2024-12-07 18:10:03.720616000,4.551615966796875,-0.1918889284133911,-0.3010404706001282,-0.014428780414164
2024-12-07 18:10:03.730589000,4.5615888671875,-0.1923653334379196,-0.2630831003189087,-0.0090817436575889
2024-12-07 18:10:03.740563000,4.57156298828125,-0.1925032883882522,-0.1210780143737793,0.0048931948840618
2024-12-07 18:10:03.750537000,4.581536865234375,-0.1648019850254058,0.1066030114889144,0.0524259991943836
2024-12-07 18:10:03.760511000,4.591510986328125,-0.1312637329101562,0.4071463346481323,0.1169946044683456
2024-12-07 18:10:03.770484000,4.60148388671875,-0.0447541922330856,0.6985447406768799,0.2226975262165069
2024-12-07 18:10:03.780458000,4.6114580078125,0.058443833142519,0.9434106945991516,0.3303997218608856
2024-12-07 18:10:03.790432000,4.621431884765625,0.1474366337060928,1.1039667129516602,0.4018312692642212
2024-12-07 18:10:03.800404700,4.63140478515625,0.2045140266418457,1.1718534231185913,0.426618367433548
2024-12-07 18:10:03.810378800,4.641378662109375,0.2149751186370849,1.1467366218566897,0.4197899401187897
2024-12-07 18:10:03.820352800,4.651352783203125,0.2156955003738403,1.046900749206543,0.4068368673324585
2024-12-07 18:10:03.830325800,4.66132568359375,0.2272892147302627,0.8925895690917969,0.4124355912208557
2024-12-07 18:10:03.840299800,4.6712998046875,0.2660784423351288,0.719768762588501,0.4446792900562286
2024-12-07 18:10:03.850273800,4.681273681640625,0.3147574067115783,0.5799471139907837,0.5258979201316833
2024-12-07 18:10:03.860247800,4.691247802734375,0.3827314078807831,0.5513096451759338,0.6754634976387024
2024-12-07 18:10:03.870220800,4.701220703125,0.4818181693553924,0.6457222104072571,0.8827373385429382
2024-12-07 18:10:03.880194800,4.71119482421875,0.5926067233085632,0.8318247199058533,1.0970666408538818
2024-12-07 18:10:03.890168800,4.7211689453125,0.7074683904647827,0.9779694676399232,1.2727336883544922
2024-12-07 18:10:03.900142000,4.73114208984375,0.8177040815353394,0.9685506820678712,1.4018746614456177
2024-12-07 18:10:03.910115800,4.74111572265625,0.8555859923362732,0.7574494481086731,1.4964925050735474
2024-12-07 18:10:03.920089900,4.75108984375,0.7551403641700745,0.5259221792221069,1.5449188947677612
2024-12-07 18:10:03.930064000,4.76106396484375,0.5719167590141296,0.4692593812942505,1.5349669456481934
2024-12-07 18:10:03.940036900,4.771036865234375,0.373292326927185,0.5267692804336548,1.460566520690918
2024-12-07 18:10:03.950011000,4.781010986328125,0.2053013443946838,0.7128783464431763,1.2973648309707642
2024-12-07 18:10:03.959985000,4.79098486328125,0.1229633316397667,0.9192402958869934,1.0489020347595217
2024-12-07 18:10:03.969958000,4.8009580078125,0.1202360540628433,0.9643805623054504,0.7857639193534851
2024-12-07 18:10:03.979932000,4.810931884765625,0.1634104251861572,0.908006489276886,0.5384726524353027
2024-12-07 18:10:03.989906000,4.820906005859375,0.2346688061952591,0.954912006855011,0.3374307453632355
2024-12-07 18:10:03.999880000,4.8308798828125,0.2940365374088287,1.0778543949127195,0.251688688993454
2024-12-07 18:10:04.009853000,4.84085302734375,0.310192734003067,1.11042582988739,0.2743372321128845
2024-12-07 18:10:04.019827000,4.850826904296875,0.2976833581924438,0.9906336665153505,0.3183385133743286
2024-12-07 18:10:04.029801000,4.860801025390625,0.2891667783260345,0.7540226578712463,0.281377226114273
2024-12-07 18:10:04.039774000,4.87077392578125,0.3375937044620514,0.4855871498584747,0.1581932306289672
2024-12-07 18:10:04.049748000,4.880748046875,0.4315233826637268,0.2275500446557998,-0.0185852739959955
2024-12-07 18:10:04.059722000,4.890721923828125,0.4977170526981354,0.058472067117691,-0.1934388428926468
2024-12-07 18:10:04.069696000,4.900696044921875,0.4833643436431885,0.0006075801793485,-0.3265007138252258
2024-12-07 18:10:04.079668700,4.910668701171875,0.4280411601066589,-0.0043067513033747,-0.419436514377594
2024-12-07 18:10:04.089642800,4.920642822265625,0.358402669429779,0.0407101437449455,-0.4782866835594177
2024-12-07 18:10:04.099616800,4.93061669921875,0.2930859625339508,0.1045453175902366,-0.5118722915649414
2024-12-07 18:10:04.109589800,4.94058984375,0.2394922971725464,0.1250964701175689,-0.5143693685531616
2024-12-07 18:10:04.119563800,4.950563720703125,0.1724144667387008,0.0583893470466136,-0.5003432631492615
2024-12-07 18:10:04.129537800,4.960537841796875,0.0624965541064739,-0.0244752280414104,-0.5117798447608948
2024-12-07 18:10:04.139510800,4.9705107421875,-0.0804012194275856,-0.1276846975088119,-0.5346271395683289
2024-12-07 18:10:04.149484800,4.98048486328125,-0.2210308909416198,-0.2384118735790252,-0.5538924932479858
2024-12-07 18:10:04.159458800,4.990458740234375,-0.3192661106586456,-0.3674220442771911,-0.5478742718696594
2024-12-07 18:10:04.169432800,5.000432861328125,-0.3899969160556793,-0.539292573928833,-0.5026636719703674
2024-12-07 18:10:04.179405800,5.01040576171875,-0.4744367003440857,-0.8319518566131592,-0.414597749710083
2024-12-07 18:10:04.189379800,5.0203798828125,-0.5543460845947266,-1.0608277320861816,-0.3745870590209961
2024-12-07 18:10:04.199353900,5.030353759765625,-0.5998169183731079,-1.194712519645691,-0.3665035665035248
2024-12-07 18:10:04.209327000,5.0403271484375,-0.6264623999595642,-1.1877566576004028,-0.3436123728752136
2024-12-07 18:10:04.219300900,5.05030078125,-0.6323373317718506,-1.1005691289901731,-0.3028734624385834
2024-12-07 18:10:04.229274600,5.060274658203125,-0.6345005631446838,-0.9762932658195496,-0.2608490884304046
2024-12-07 18:10:04.239248000,5.070247802734375,-0.6251768469810486,-0.8666911125183105,-0.2215259224176406
2024-12-07 18:10:04.249222000,5.080221923828125,-0.58176189661026,-0.8418887257575989,-0.1605786830186844
2024-12-07 18:10:04.259196000,5.09019580078125,-0.4899249672889709,-0.871908962726593,-0.0352758914232254
2024-12-07 18:10:04.269170000,5.100169921875,-0.3527296483516693,-0.8019112944602966,0.1870153546333313
2024-12-07 18:10:04.279143000,5.110142822265625,-0.1714299023151397,-0.473503828048706,0.4794991314411163
2024-12-07 18:10:04.289117000,5.120116943359375,0.0492078624665737,0.1297624260187149,0.7040113806724548
2024-12-07 18:10:04.299091000,5.130091064453125,0.2898151278495788,0.8574341535568237,0.72730952501297
2024-12-07 18:10:04.309064000,5.14006396484375,0.4636732041835785,1.401362419128418,0.48371222615242
2024-12-07 18:10:04.319038000,5.150037841796875,0.4739122688770294,1.484615445137024,0.064207375049591
2024-12-07 18:10:04.329012000,5.160011962890625,0.3338103890419006,1.038274884223938,-0.2702615857124328
2024-12-07 18:10:04.338986000,5.169986083984375,0.1687218397855758,0.4107645452022552,-0.4298608601093292
2024-12-07 18:10:04.348959000,5.179958984375,0.0013352630194276,-0.102203369140625,-0.5100430846214294
2024-12-07 18:10:04.358933000,5.18993310546875,-0.1588267087936401,-0.5470730066299438,-0.5890367031097412
2024-12-07 18:10:04.368907000,5.199906982421875,-0.327182412147522,-0.9103600382804872,-0.6502740979194641
2024-12-07 18:10:04.378879700,5.209879638671875,-0.498916357755661,-0.9345551133155824,-0.6079828143119812
2024-12-07 18:10:04.388853800,5.219853759765625,-0.6025633215904236,-0.6582227945327759,-0.4498442411422729
2024-12-07 18:10:04.398827800,5.229827880859375,-0.5700815320014954,-0.2660547792911529,-0.2471507787704467
2024-12-07 18:10:04.408801800,5.2398017578125,-0.4014186263084411,0.0409906730055809,-0.0618783645331859
2024-12-07 18:10:04.418774800,5.24977490234375,-0.1960984915494918,0.093347355723381,-0.0174357965588569
2024-12-07 18:10:04.428748800,5.259748779296875,-0.0607885643839836,-0.1143391281366348,-0.1401995867490768
2024-12-07 18:10:04.438722800,5.269722900390625,0.0035970828030258,-0.4659829139709472,-0.3252155184745788
2024-12-07 18:10:04.448695800,5.27969580078125,0.07379911839962,-0.7643726468086243,-0.469594269990921
2024-12-07 18:10:04.458669800,5.289669921875,0.133297860622406,-0.887823760509491,-0.5234971642494202
2024-12-07 18:10:04.468643800,5.299643798828125,0.1468096673488617,-0.8269955515861511,-0.4923121035099029
2024-12-07 18:10:04.478617900,5.309617919921875,0.1039159595966339,-0.6647322773933411,-0.3936216831207275
2024-12-07 18:10:04.488590800,5.3195908203125,0.0266920011490583,-0.4996106922626495,-0.2682869136333465
2024-12-07 18:10:04.498564900,5.32956494140625,-0.0608887150883674,-0.3664329349994659,-0.1544051021337509
2024-12-07 18:10:04.508539000,5.339538818359375,-0.1339385062456131,-0.278227150440216,-0.0774133279919624
2024-12-07 18:10:04.518511900,5.349511962890625,-0.175579160451889,-0.2588558495044708,-0.0377977415919303
2024-12-07 18:10:04.528486000,5.35948583984375,-0.1710358411073684,-0.3124328553676605,-0.0300105325877666
2024-12-07 18:10:04.538460000,5.3694599609375,-0.1432239115238189,-0.4010474383831024,-0.0574112646281719
2024-12-07 18:10:04.548433000,5.379432861328125,-0.1362465322017669,-0.5031635165214539,-0.1098386123776435
2024-12-07 18:10:04.558407000,5.389406982421875,-0.1557200998067855,-0.5795890092849731,-0.1674923300743103
2024-12-07 18:10:04.568381000,5.399380859375,-0.1619620770215988,-0.6014114022254944,-0.2150035947561264
2024-12-07 18:10:04.578355000,5.40935498046875,-0.1471738070249557,-0.5500779151916504,-0.2429862320423126
2024-12-07 18:10:04.588328000,5.419327880859375,-0.1210665926337242,-0.42935311794281,-0.2637918293476105
2024-12-07 18:10:04.598301700,5.4293017578125,-0.1236570477485656,-0.2896594107151031,-0.2736356854438782
2024-12-07 18:10:04.608275700,5.439275634765625,-0.1453590244054794,-0.2205284237861633,-0.2787904739379883
2024-12-07 18:10:04.618248700,5.449248779296875,-0.1713863611221313,-0.2641451358795166,-0.2966839671134949
2024-12-07 18:10:04.628222700,5.45922265625,-0.1905402988195419,-0.3847143352031708,-0.3428378403186798
2024-12-07 18:10:04.638196700,5.46919677734375,-0.197815790772438,-0.5467455387115479,-0.4173980951309204
2024-12-07 18:10:04.648170800,5.479170654296875,-0.1975013762712478,-0.7305353879928589,-0.5002785325050354
2024-12-07 18:10:04.658143500,5.4891435546875,-0.2071462720632553,-0.8882235884666443,-0.5711795687675476
2024-12-07 18:10:04.668117500,5.499117431640625,-0.212320402264595,-1.0101394653320312,-0.6288983225822449
2024-12-07 18:10:04.678091500,5.509091552734375,-0.1976823508739471,-1.10197114944458,-0.6618035435676575
2024-12-07 18:10:04.688064500,5.519064453125,-0.171804279088974,-1.136156678199768,-0.660746693611145
2024-12-07 18:10:04.698038500,5.52903857421875,-0.1380244791507721,-1.086762309074402,-0.6324785947799683
2024-12-07 18:10:04.708012500,5.539012451171875,-0.1082265973091125,-0.9909384250640868,-0.5941599607467651
2024-12-07 18:10:04.717985500,5.548985595703125,-0.0979041829705238,-0.8693632483482361,-0.5439798831939697
2024-12-07 18:10:04.727959600,5.55895947265625,-0.0868458598852157,-0.7832930684089661,-0.5091257691383362
2024-12-07 18:10:04.737933600,5.56893359375,-0.0901055708527565,-0.7015372514724731,-0.4780072271823883
2024-12-07 18:10:04.747907600,5.578907470703125,-0.1107782647013664,-0.6037164330482483,-0.4327203333377838
2024-12-07 18:10:04.757880600,5.588880615234375,-0.1426429897546768,-0.4850755333900451,-0.3595758378505707
2024-12-07 18:10:04.767854600,5.5988544921875,-0.1724965870380401,-0.3812960982322693,-0.2571038603782654
2024-12-07 18:10:04.777828600,5.60882861328125,-0.1853519231081009,-0.2871456146240234,-0.163562998175621
2024-12-07 18:10:04.787801600,5.618801513671875,-0.2109599709510803,-0.1911633610725402,-0.0968374088406562
2024-12-07 18:10:04.797775600,5.628775634765625,-0.233587771654129,-0.0836611464619636,-0.0561536252498626
2024-12-07 18:10:04.807749600,5.63874951171875,-0.2550984621047973,0.020633440464735,-0.0195450261235237
2024-12-07 18:10:04.817723400,5.648723388671875,-0.2492104619741439,0.1229129359126091,0.0044053141027688
2024-12-07 18:10:04.827696600,5.658696533203125,-0.2440268099308014,0.2346420735120773,0.0352163761854171
2024-12-07 18:10:04.837670700,5.668670654296875,-0.2180103957653045,0.354636937379837,0.0703466609120369
2024-12-07 18:10:04.847644700,5.678644775390625,-0.1839824020862579,0.48006671667099,0.0951165929436683
2024-12-07 18:10:04.857617700,5.68861767578125,-0.1644055098295211,0.6071361899375916,0.0901103839278221
2024-12-07 18:10:04.867591700,5.698591796875,-0.168515995144844,0.7088154554367065,0.0640847980976104
2024-12-07 18:10:04.877565700,5.708565673828125,-0.1722755879163742,0.747035026550293,0.0177053119987249
2024-12-07 18:10:04.887538700,5.71853857421875,-0.1868645250797271,0.6904458999633789,-0.0321201384067535
2024-12-07 18:10:04.897512700,5.7285126953125,-0.2028317749500274,0.5557376146316528,-0.0788032189011573
2024-12-07 18:10:04.907486700,5.73848681640625,-0.2229461371898651,0.3696629405021667,-0.1219662204384803
2024-12-07 18:10:04.917460700,5.748460693359375,-0.2444820553064346,0.1472088396549224,-0.1528021544218063
2024-12-07 18:10:04.927433700,5.758433837890625,-0.2588855624198913,-0.076390117406845,-0.1206586882472038
2024-12-07 18:10:04.937407700,5.76840771484375,-0.2451620399951934,-0.2161022126674652,-0.0234293416142463
2024-12-07 18:10:04.947381800,5.7783818359375,-0.1933477818965912,-0.2110995650291443,0.0895405709743499
2024-12-07 18:10:04.957354500,5.7883544921875,-0.0878234878182411,-0.1040924191474914,0.2210269570350647
2024-12-07 18:10:04.967328500,5.79832861328125,-0.0048834304325282,0.1128633022308349,0.3353801965713501
2024-12-07 18:10:04.977302500,5.808302490234375,0.0788546055555343,0.3597404658794403,0.430200457572937
2024-12-07 18:10:04.987276500,5.818276611328125,0.16768778860569,0.5803936719894409,0.4783263802528381
2024-12-07 18:10:04.997249500,5.82824951171875,0.2480025887489318,0.765622079372406,0.4622560739517212
2024-12-07 18:10:05.007223600,5.8382236328125,0.3141548633575439,0.8683320879936218,0.4159839451313019
2024-12-07 18:10:05.017197600,5.848197509765625,0.3583883643150329,0.8995763063430786,0.3673120141029358
2024-12-07 18:10:05.027170600,5.858170654296875,0.3833799958229065,0.8655163645744324,0.3528671264648437
2024-12-07 18:10:05.037144600,5.86814453125,0.4089370369911194,0.8153749108314514,0.3917133212089538
2024-12-07 18:10:05.047118600,5.87811865234375,0.4508699476718902,0.8102502822875977,0.4929202795028686
2024-12-07 18:10:05.057091800,5.888091796875,0.5144036412239075,0.8933118581771851,0.6432168483734131
2024-12-07 18:10:05.067065600,5.898065673828125,0.6143853664398193,1.059084177017212,0.8296278119087219
2024-12-07 18:10:05.077039600,5.90803955078125,0.7146339416503906,1.2093390226364136,1.041164755821228
2024-12-07 18:10:05.087013600,5.918013671875,0.759264349937439,1.2258317470550537,1.259357452392578
2024-12-07 18:10:05.096986600,5.927986572265625,0.7308324575424194,1.074568748474121,1.4434937238693235
2024-12-07 18:10:05.106960600,5.937960693359375,0.647252082824707,0.8236862421035767,1.5717389583587646
2024-12-07 18:10:05.116934700,5.9479345703125,0.5222787261009216,0.4606622755527496,1.6286975145339966
2024-12-07 18:10:05.126907600,5.95790771484375,0.3600359559059143,-0.0049216942861676,1.621556520462036
2024-12-07 18:10:05.136881700,5.967881591796875,0.180200383067131,-0.3365060091018677,1.5116934776306152
2024-12-07 18:10:05.146855700,5.977855712890625,0.0643891170620918,-0.486185759305954,1.241840362548828
2024-12-07 18:10:05.156829700,5.98782958984375,0.0620074495673179,-0.4243111908435821,0.922138214111328
2024-12-07 18:10:05.166802700,5.997802734375,0.1593563109636306,0.017509140074253,0.6998907327651978
2024-12-07 18:10:05.176776700,6.007776611328125,0.317749410867691,0.6948849558830261,0.5837811827659607
2024-12-07 18:10:05.186750700,6.017750732421875,0.4564280211925506,1.277825117111206,0.5560623407363892
2024-12-07 18:10:05.196723700,6.0277236328125,0.524958074092865,1.5022573471069336,0.5367973446846008
2024-12-07 18:10:05.206697700,6.03769775390625,0.5319864153862,1.3280996084213257,0.4724155962467193
2024-12-07 18:10:05.216671700,6.047671630859375,0.5083295106887817,0.9125543236732484,0.3587771952152252
2024-12-07 18:10:05.226645800,6.057645751953125,0.4897685348987579,0.4077510833740234,0.2750796973705292
2024-12-07 18:10:05.236618500,6.067618408203125,0.4854254424571991,-0.0008436229545623,0.226699098944664
2024-12-07 18:10:05.246592500,6.077592529296875,0.4899100959300995,-0.1861045956611633,0.1763651967048645
2024-12-07 18:10:05.256566500,6.08756640625,0.4952289760112762,-0.1940812915563583,0.1189927235245704
2024-12-07 18:10:05.266539500,6.09753955078125,0.4812600314617157,-0.1267620176076889,0.048374980688095
2024-12-07 18:10:05.276513500,6.107513427734375,0.4450096189975738,-0.0462213717401027,-0.0311739072203636
2024-12-07 18:10:05.286487600,6.117487548828125,0.4100331366062164,-0.0032574583310633,-0.117657832801342
2024-12-07 18:10:05.296460500,6.12746044921875,0.3848572373390198,-0.0159109346568584,-0.1952546089887619
2024-12-07 18:10:05.306434600,6.1374345703125,0.3680830895900726,-0.0812916830182075,-0.2580591440200805
2024-12-07 18:10:05.316408600,6.14740869140625,0.3452507555484772,-0.1761015355587005,-0.3044093251228332
2024-12-07 18:10:05.326382600,6.157382568359375,0.3025102317333221,-0.2338419109582901,-0.3506317436695099
2024-12-07 18:10:05.336355600,6.16735546875,0.2405257076025009,-0.2699751257896423,-0.3978953957557678
2024-12-07 18:10:05.346329600,6.17732958984375,0.1655949056148529,-0.2974129021167755,-0.4471923112869262
2024-12-07 18:10:05.356303600,6.1873037109375,0.077527105808258,-0.3797922134399414,-0.4898215234279632
2024-12-07 18:10:05.366276600,6.197276611328125,-0.0331763066351413,-0.4673531651496887,-0.5464215278625488
2024-12-07 18:10:05.376250600,6.207250732421875,-0.166082426905632,-0.5804970264434814,-0.6272447109222412
2024-12-07 18:10:05.386224400,6.217224365234375,-0.2869613170623779,-0.7687914371490479,-0.6805406212806702
2024-12-07 18:10:05.396198400,6.227198486328125,-0.4003733694553375,-0.917537808418274,-0.7158810496330261
2024-12-07 18:10:05.406171600,6.237171630859375,-0.4980182349681854,-1.001628041267395,-0.6901492476463318
2024-12-07 18:10:05.416145700,6.247145751953125,-0.5676881074905396,-0.9546680450439452,-0.5615172386169434
2024-12-07 18:10:05.426119700,6.25711962890625,-0.5738827586174011,-0.7378226518630981,-0.284955233335495
2024-12-07 18:10:05.436092700,6.2670927734375,-0.4815978109836578,-0.4062827825546264,0.0810128897428512
2024-12-07 18:10:05.446066700,6.277066650390625,-0.3100517690181732,-0.0244876854121685,0.398611456155777
2024-12-07 18:10:05.456040700,6.287040771484375,-0.0886323228478431,0.4040689766407013,0.5815293192863464
2024-12-07 18:10:05.466013700,6.297013671875,0.1027427315711975,0.7714968919754028,0.5706296563148499
2024-12-07 18:10:05.475987700,6.30698779296875,0.1869987547397613,0.961103081703186,0.3283757865428924
2024-12-07 18:10:05.485961700,6.316961669921875,0.1755662113428115,0.8035122156143188,-0.0950490161776542
2024-12-07 18:10:05.495935700,6.326935791015625,0.1536689102649688,0.3669548630714416,-0.5392150282859802
2024-12-07 18:10:05.505908700,6.33690869140625,0.142418697476387,-0.1041525900363922,-0.835487425327301
2024-12-07 18:10:05.515882800,6.3468828125,0.0949118882417678,-0.4710171222686767,-0.9923843741416932
2024-12-07 18:10:05.525856800,6.356856689453125,-0.0216263867914676,-0.6947799921035767,-1.0638622045516968
2024-12-07 18:10:05.535829500,6.36682958984375,-0.1879676878452301,-0.71573805809021,-1.0452632904052734
2024-12-07 18:10:05.545803500,6.376803466796875,-0.3627282679080963,-0.4218719899654388,-0.9272564649581908
2024-12-07 18:10:05.555777500,6.386777587890625,-0.476244181394577,-0.0193008333444595,-0.7210058569908142
2024-12-07 18:10:05.565751600,6.39675146484375,-0.5094298720359802,0.315262109041214,-0.4609108865261078
2024-12-07 18:10:05.575724500,6.406724609375,-0.4732175767421722,0.4948715567588806,-0.2431678920984268
2024-12-07 18:10:05.585698600,6.416698486328125,-0.3987081348896026,0.4265083074569702,-0.1500682234764099
2024-12-07 18:10:05.595672000,6.426672119140625,-0.3144073784351349,0.0471990592777729,-0.1952926963567733
2024-12-07 18:10:05.605645000,6.43664501953125,-0.201588287949562,-0.5613336563110352,-0.3437615036964416
2024-12-07 18:10:05.615619000,6.446619140625,-0.100382849574089,-1.095702886581421,-0.490030825138092
2024-12-07 18:10:05.625593000,6.456593017578125,-0.0636255070567131,-1.339120864868164,-0.5567288994789124
2024-12-07 18:10:05.635566300,6.46656640625,-0.0656995773315429,-1.3244585990905762,-0.5175577998161316
2024-12-07 18:10:05.645540400,6.476540283203125,-0.0991667062044143,-1.1557220220565796,-0.4035036861896515
2024-12-07 18:10:05.655514400,6.486514404296875,-0.1315443515777588,-0.8787364959716797,-0.2711943984031677
2024-12-07 18:10:05.665488100,6.496488037109375,-0.1638382971286773,-0.5440090894699097,-0.1437530517578125
2024-12-07 18:10:05.675461400,6.50646142578125,-0.1987603157758712,-0.2137523889541626,-0.0416802167892456
2024-12-07 18:10:05.685435400,6.516435302734375,-0.2356564849615097,0.0702297389507293,0.003112971317023
2024-12-07 18:10:05.695409400,6.526409423828125,-0.2456297576427459,0.2679670453071594,-0.0223974473774433
2024-12-07 18:10:05.705382400,6.53638232421875,-0.2132781744003296,0.3198108673095703,-0.1004961058497428
2024-12-07 18:10:05.715356400,6.5463564453125,-0.1754050999879837,0.247799813747406,-0.1888398081064224
2024-12-07 18:10:05.725330400,6.556330322265625,-0.1517517417669296,0.2057318687438964,-0.2516915500164032
2024-12-07 18:10:05.735304400,6.566304443359375,-0.1636342406272888,0.2404576241970062,-0.2470800280570984
2024-12-07 18:10:05.745277200,6.576277099609375,-0.1790312975645065,0.3287051916122436,-0.2200864851474762
2024-12-07 18:10:05.755251200,6.586251220703125,-0.1789506077766418,0.415799081325531,-0.1954429298639297
2024-12-07 18:10:05.765225200,6.59622509765625,-0.1622347384691238,0.4509973227977752,-0.1859523504972458
2024-12-07 18:10:05.775198200,6.6061982421875,-0.1491548866033554,0.3659705817699432,-0.2095093429088592
2024-12-07 18:10:05.785172200,6.616172119140625,-0.1492067575454712,0.2009511590003967,-0.2745935320854187
2024-12-07 18:10:05.795146200,6.626146240234375,-0.1737997084856033,-0.0162503961473703,-0.3503924310207367
2024-12-07 18:10:05.805120300,6.636120361328125,-0.2137410342693328,-0.2473369091749191,-0.4105574786663055
2024-12-07 18:10:05.815093200,6.64609326171875,-0.2503229975700378,-0.4510128200054168,-0.4358468651771545
2024-12-07 18:10:05.825067300,6.6560673828125,-0.2657226324081421,-0.6093236207962036,-0.4237240552902221
2024-12-07 18:10:05.835041300,6.666041259765625,-0.2490853518247604,-0.6962651610374451,-0.4056332111358642
2024-12-07 18:10:05.845014300,6.67601416015625,-0.216016411781311,-0.6832917928695679,-0.4083357155323028
2024-12-07 18:10:05.854988300,6.68598828125,-0.1845314502716064,-0.6111449003219604,-0.4258606731891632
2024-12-07 18:10:05.864962300,6.69596240234375,-0.1586278080940246,-0.5108159780502319,-0.4395448267459869
2024-12-07 18:10:05.874935000,6.70593505859375,-0.1355794817209243,-0.4200879335403442,-0.4504672586917877
2024-12-07 18:10:05.884909000,6.715908935546875,-0.1348142921924591,-0.3430038690567016,-0.4607789218425751
2024-12-07 18:10:05.894883000,6.725883056640625,-0.1367354840040207,-0.2685610353946686,-0.4666104614734649
2024-12-07 18:10:05.904857000,6.735857177734375,-0.1578536629676818,-0.2017259001731872,-0.4390567541122436
2024-12-07 18:10:05.914830000,6.745830078125,-0.1642596274614334,-0.1389011293649673,-0.4055901169776916
2024-12-07 18:10:05.924804000,6.75580419921875,-0.1845891177654266,-0.0773149132728576,-0.3683798611164093
2024-12-07 18:10:05.934778000,6.765778076171875,-0.2185374945402145,-0.0262839570641517,-0.34860560297966
2024-12-07 18:10:05.944751400,6.77575146484375,-0.2650370299816131,0.0218933690339326,-0.32743039727211
2024-12-07 18:10:05.954725400,6.785725341796875,-0.2944819927215576,0.0463044345378875,-0.3204739689826965
2024-12-07 18:10:05.964699400,6.795699462890625,-0.3242049813270569,0.0472653433680534,-0.2951478958129883
2024-12-07 18:10:05.974673200,6.805673095703125,-0.3328202962875366,0.0188352987170219,-0.2743275761604309
2024-12-07 18:10:05.984646400,6.815646484375,-0.3574252426624298,-0.0353125818073749,-0.228560134768486
2024-12-07 18:10:05.994620400,6.825620361328125,-0.358860433101654,-0.0741867423057556,-0.2165439575910568
2024-12-07 18:10:06.004594400,6.835594482421875,-0.3757467865943908,-0.0635236576199531,-0.2064560502767563
2024-12-07 18:10:06.014567200,6.845567138671875,-0.379397988319397,0.0042138462886214,-0.2002878934144973
2024-12-07 18:10:06.024541200,6.855541259765625,-0.3751368224620819,0.0925583392381668,-0.1706886440515518
2024-12-07 18:10:06.034515200,6.86551513671875,-0.3579967319965362,0.1818868815898895,-0.1141012609004974
2024-12-07 18:10:06.044488200,6.87548828125,-0.3123816847801208,0.2549853026866913,-0.0661161169409751
2024-12-07 18:10:06.054462200,6.885462158203125,-0.2906915843486786,0.2936064898967743,0.0191212855279445
2024-12-07 18:10:06.064436200,6.895436279296875,-0.2809128165245056,0.3216007351875305,0.065275102853775
2024-12-07 18:10:06.074410200,6.90541015625,-0.2642630040645599,0.2890406548976898,0.087249107658863
2024-12-07 18:10:06.084383200,6.91538330078125,-0.2250572741031646,0.2285876721143722,0.0708622112870216
2024-12-07 18:10:06.094357200,6.925357177734375,-0.1868491768836975,0.1908996850252151,0.0186954140663146
2024-12-07 18:10:06.104331300,6.935331298828125,-0.1104590445756912,0.1055851355195045,-0.0016782283782958
2024-12-07 18:10:06.114304300,6.94530419921875,-0.0349051617085933,0.047089334577322,0.029835756868124
2024-12-07 18:10:06.124278300,6.9552783203125,0.0273770671337842,0.0564126223325729,0.1087919473648071
2024-12-07 18:10:06.134252300,6.965252197265625,0.087370365858078,0.1364925354719162,0.216109350323677
2024-12-07 18:10:06.144226300,6.975226318359375,0.1528169959783554,0.2348456680774688,0.3224907517433166
2024-12-07 18:10:06.154199000,6.985198974609375,0.1940600275993347,0.3221824467182159,0.4230924844741821
2024-12-07 18:10:06.164173000,6.995173095703125,0.2078829109668731,0.4051340520381927,0.5026847720146179
2024-12-07 18:10:06.174147000,7.00514697265625,0.1832694411277771,0.5266059041023254,0.5209583044052124
2024-12-07 18:10:06.184120000,7.0151201171875,0.1438266485929489,0.6816811561584473,0.5130072832107544
2024-12-07 18:10:06.194094000,7.025093994140625,0.1363607496023178,0.8485044836997986,0.5732727646827698
2024-12-07 18:10:06.204068000,7.035068115234375,0.1965045630931854,1.0663889646530151,0.7683148980140686
2024-12-07 18:10:06.214041300,7.045041259765625,0.3264151513576507,1.314515471458435,1.0376931428909302
2024-12-07 18:10:06.224015400,7.055015380859375,0.4820176661014557,1.5058045387268066,1.2612468004226685
2024-12-07 18:10:06.233989000,7.064989013671875,0.632656455039978,1.5683940649032593,1.4042788743972778
2024-12-07 18:10:06.243963100,7.074963134765625,0.7340741753578186,1.4173800945281982,1.5200060606002808
2024-12-07 18:10:06.253936400,7.084936279296875,0.7325811982154846,1.0439740419387815,1.6194956302642822
2024-12-07 18:10:06.263910400,7.094910400390625,0.6323271989822388,0.553525984287262,1.696488618850708
2024-12-07 18:10:06.273884400,7.104884521484375,0.4980186223983764,0.0936311036348342,1.681135177612305
2024-12-07 18:10:06.283857400,7.114857421875,0.3977459073066711,-0.2438494265079498,1.5257083177566528
2024-12-07 18:10:06.293831400,7.12483154296875,0.3475421369075775,-0.3793627917766571,1.245047688484192
2024-12-07 18:10:06.303805400,7.134805419921875,0.3698312044143677,-0.3008733093738556,0.9093759059906006
2024-12-07 18:10:06.313779500,7.144779541015625,0.4348687827587127,0.1578077226877212,0.6002750396728516
2024-12-07 18:10:06.323752200,7.154752197265625,0.523581326007843,1.0036271810531616,0.4322948455810547
2024-12-07 18:10:06.333726200,7.164726318359375,0.6434035897254944,1.925465703010559,0.4411732852458954
2024-12-07 18:10:06.343700200,7.1747001953125,0.7258749604225159,2.400429964065552,0.486769288778305
2024-12-07 18:10:06.353673200,7.184673095703125,0.7201230525970459,2.080396890640259,0.4366320669651031
2024-12-07 18:10:06.363647200,7.194647216796875,0.6557226777076721,1.264683723449707,0.2726790606975555
2024-12-07 18:10:06.373621200,7.204621337890625,0.6043161749839783,0.4749289155006408,0.0867864266037941
2024-12-07 18:10:06.383594200,7.21459423828125,0.5775254368782043,-0.0129673834890127,-0.0234753414988517
2024-12-07 18:10:06.393568300,7.224568359375,0.5831844210624695,-0.1636194735765457,-0.0794619098305702
2024-12-07 18:10:06.403542300,7.234542236328125,0.5882313251495361,-0.0530368983745574,-0.1137847453355789
2024-12-07 18:10:06.413516300,7.244516357421875,0.5757115483283997,0.1334253996610641,-0.1311778426170349
2024-12-07 18:10:06.423489300,7.2544892578125,0.5483101606369019,0.3100136518478393,-0.1715696454048156
2024-12-07 18:10:06.433463300,7.26446337890625,0.503153920173645,0.3834103941917419,-0.2342604547739029
2024-12-07 18:10:06.443437300,7.274437255859375,0.4424724280834198,0.3164575397968292,-0.2847937941551208
2024-12-07 18:10:06.453410000,7.28441015625,0.3852062225341797,0.1344653666019439,-0.3358439207077026
2024-12-07 18:10:06.463384000,7.294384033203125,0.3302547037601471,-0.0664950236678123,-0.3976543247699737
2024-12-07 18:10:06.473358000,7.304358154296875,0.2712984383106231,-0.2559480369091034,-0.4514730870723724
2024-12-07 18:10:06.483332000,7.31433203125,0.2140257209539413,-0.3511864244937897,-0.4985348284244537
2024-12-07 18:10:06.493305000,7.32430517578125,0.1478999704122543,-0.3558919429779053,-0.526350736618042
2024-12-07 18:10:06.503279000,7.334279052734375,0.0883000418543815,-0.3311468958854675,-0.5257319211959839
2024-12-07 18:10:06.513253000,7.344253173828125,0.0065793469548225,-0.3905564248561859,-0.5059848427772522
2024-12-07 18:10:06.523226400,7.354226318359375,-0.1227213889360427,-0.5699552297592163,-0.487013041973114
2024-12-07 18:10:06.533200400,7.364200439453125,-0.2870171070098877,-0.8161090612411499,-0.4822870194911957
2024-12-07 18:10:06.543174100,7.374174072265625,-0.4639431536197662,-0.9834709167480468,-0.5133705139160156
2024-12-07 18:10:06.553147400,7.3841474609375,-0.6101040840148926,-1.1493467092514038,-0.5171705484390259
2024-12-07 18:10:06.563121400,7.394121337890625,-0.7109314799308777,-1.331252098083496,-0.4460363090038299
2024-12-07 18:10:06.573095400,7.404095458984375,-0.7491416931152344,-1.491752862930298,-0.2598829269409179
2024-12-07 18:10:06.583069400,7.4140693359375,-0.6938236355781555,-1.612930178642273,0.072475641965866
2024-12-07 18:10:06.593042000,7.4240419921875,-0.5370302796363831,-1.564070224761963,0.5079240798950195
2024-12-07 18:10:06.603016000,7.434015869140625,-0.3215582966804504,-1.0959595441818235,0.8526080846786499
2024-12-07 18:10:06.612990000,7.443989990234375,-0.0838309675455093,-0.2643009722232818,0.9035785794258118
2024-12-07 18:10:06.622962700,7.453962646484375,0.2390675544738769,0.657615602016449,0.6251291036605835
2024-12-07 18:10:06.632936700,7.463936767578125,0.566109836101532,1.515437364578247,0.1788922250270843
2024-12-07 18:10:06.642910700,7.47391064453125,0.6605047583580017,1.9864685535430908,-0.2059294432401657
2024-12-07 18:10:06.652884700,7.483884765625,0.4997549951076507,1.7148256301879885,-0.4269829988479614
2024-12-07 18:10:06.662857700,7.493857666015625,0.3001030683517456,0.8564286828041077,-0.4934141635894775
2024-12-07 18:10:06.672831700,7.503831787109375,0.1678283810615539,-0.1602799445390701,-0.492552101612091
2024-12-07 18:10:06.682805800,7.5138056640625,0.0200039204210042,-1.0746827125549316,-0.5533074736595154
2024-12-07 18:10:06.692778800,7.52377880859375,-0.1762012690305709,-1.758185625076294,-0.6990510821342468
2024-12-07 18:10:06.702752800,7.533752685546875,-0.4040245413780212,-1.7232364416122437,-0.763089120388031
2024-12-07 18:10:06.712726800,7.543726806640625,-0.5784384608268738,-1.0942286252975464,-0.6485130190849304
2024-12-07 18:10:06.722699800,7.55369970703125,-0.623441219329834,-0.36842942237854,-0.3863588273525238
2024-12-07 18:10:06.732673800,7.563673828125,-0.5590164661407471,0.1440368145704269,-0.067720927298069
2024-12-07 18:10:06.742647800,7.573647705078125,-0.4479418396949768,0.2952077686786651,0.1262182593345642
2024-12-07 18:10:06.752621800,7.583621826171875,-0.3808770477771759,0.1660124957561493,0.1256382316350937
2024-12-07 18:10:06.762594800,7.5935947265625,-0.3607277870178222,-0.2135986089706421,-0.0291564054787158
2024-12-07 18:10:06.772568800,7.60356884765625,-0.2922528684139251,-0.867610514163971,-0.2795079052448272
2024-12-07 18:10:06.782542800,7.61354296875,-0.1913023293018341,-1.589562177658081,-0.5002147555351257
2024-12-07 18:10:06.792515800,7.623515869140625,-0.137974664568901,-2.0607380867004395,-0.5981378555297852
2024-12-07 18:10:06.802489900,7.63348974609375,-0.1312556862831115,-2.1008758544921875,-0.594529390335083
2024-12-07 18:10:06.812463900,7.6434638671875,-0.1385570019483566,-1.7484283447265625,-0.5167911648750305
2024-12-07 18:10:06.822436900,7.653436767578125,-0.1341141462326049,-1.193199872970581,-0.3682102262973785
2024-12-07 18:10:06.832411000,7.663410888671875,-0.1196513175964355,-0.5756084322929382,-0.2042996138334274
2024-12-07 18:10:06.842385000,7.673385009765625,-0.1185703054070472,-0.0279742013663053,-0.082903929054737
2024-12-07 18:10:06.852359000,7.68335888671875,-0.1433776468038559,0.3149224519729614,-0.0464641600847244
2024-12-07 18:10:06.862332000,7.693331787109375,-0.1807264536619186,0.4545391201972961,-0.0710676684975624
2024-12-07 18:10:06.872306000,7.703305908203125,-0.2432865053415298,0.4748696982860565,-0.1109096258878707
2024-12-07 18:10:06.882280000,7.713280029296875,-0.3084359467029571,0.4214256405830383,-0.1334072798490524
2024-12-07 18:10:06.892253000,7.7232529296875,-0.3466509878635406,0.3571444153785705,-0.1441683173179626
2024-12-07 18:10:06.902227000,7.73322705078125,-0.358653724193573,0.3129715025424957,-0.1398566961288452
2024-12-07 18:10:06.912201000,7.743200927734375,-0.3474937379360199,0.2704213559627533,-0.1584540754556656
2024-12-07 18:10:06.922175000,7.753175048828125,-0.3225772380828857,0.2446133345365524,-0.2229169011116027
2024-12-07 18:10:06.932147700,7.763147705078125,-0.2908675372600555,0.165831446647644,-0.358964204788208
2024-12-07 18:10:06.942121700,7.773121826171875,-0.2467271536588668,-0.0069089587777853,-0.5260192155838013
2024-12-07 18:10:06.952095700,7.783095703125,-0.185801476240158,-0.250214010477066,-0.6920132040977478
2024-12-07 18:10:06.962068700,7.79306884765625,-0.1124566122889518,-0.4762873649597168,-0.7964298725128174
2024-12-07 18:10:06.972042800,7.803042724609375,-0.0867938622832298,-0.5544232130050659,-0.7950292825698853
2024-12-07 18:10:06.982016800,7.813016845703125,-0.0739592313766479,-0.5189851522445679,-0.7316477298736572
2024-12-07 18:10:06.991989800,7.82298974609375,-0.0462335869669914,-0.449855625629425,-0.6616406440734863
2024-12-07 18:10:07.001963800,7.8329638671875,-0.0178218651562929,-0.3914110362529754,-0.6250147819519043
2024-12-07 18:10:07.011937800,7.842937744140625,-0.0032828706316649,-0.3539086878299713,-0.6311951875686646
2024-12-07 18:10:07.021911800,7.852911865234375,-0.0274204295128583,-0.3296757638454437,-0.6348780989646912
2024-12-07 18:10:07.031884800,7.862884765625,-0.0549001358449459,-0.3145973682403564,-0.618600070476532
2024-12-07 18:10:07.041858800,7.87285888671875,-0.0864359959959983,-0.3046300709247589,-0.556963324546814
2024-12-07 18:10:07.051832800,7.882832763671875,-0.109943188726902,-0.2868183255195617,-0.4676224887371063
2024-12-07 18:10:07.061805800,7.892805908203125,-0.121642455458641,-0.2567083537578583,-0.3863604664802551
2024-12-07 18:10:07.071779800,7.90277978515625,-0.1213593631982803,-0.242396280169487,-0.3307558000087738
2024-12-07 18:10:07.081753900,7.91275390625,-0.1282805651426315,-0.2299598604440689,-0.3028761148452759
2024-12-07 18:10:07.092973800,7.923973876953125,-0.152457907795906,-0.2356737405061721,-0.2808279395103454
2024-12-07 18:10:07.102947600,7.933947509765625,-0.2010520696640014,-0.2600797414779663,-0.2491810321807861
2024-12-07 18:10:07.112921600,7.943921630859375,-0.2635407149791717,-0.2641539573669433,-0.2088017761707306
2024-12-07 18:10:07.122895600,7.9538955078125,-0.3330127298831939,-0.213915541768074,-0.1494313925504684
2024-12-07 18:10:07.132868900,7.963868896484375,-0.3613843321800232,-0.1111262440681457,-0.0968457907438278
2024-12-07 18:10:07.142843000,7.9738427734375,-0.3415720164775848,0.0209596175700426,-0.06755181401968
2024-12-07 18:10:07.152817000,7.98381689453125,-0.3006320893764496,0.1509254425764084,-0.0618632510304451
2024-12-07 18:10:07.162790000,7.993789794921875,-0.2480812668800354,0.2605267763137817,-0.0782235860824585
2024-12-07 18:10:07.172764000,8.003763916015625,-0.241964042186737,0.319846361875534,-0.0304834377020597
2024-12-07 18:10:07.182738000,8.013738037109375,-0.266442209482193,0.318986713886261,0.0640044510364532
2024-12-07 18:10:07.192712000,8.0237119140625,-0.2663509547710418,0.2581856548786163,0.1439036577939987
2024-12-07 18:10:07.202685000,8.033684814453125,-0.2312001734972,0.1641006916761398,0.150273397564888
2024-12-07 18:10:07.212659000,8.043658935546874,-0.1929778307676315,0.0273174010217189,0.1000506728887558
2024-12-07 18:10:07.222633000,8.053633056640624,-0.1646127700805664,-0.0850395038723945,-0.0105615891516208
2024-12-07 18:10:07.232606000,8.06360595703125,-0.1517424285411834,-0.1592383831739425,-0.1444570422172546
2024-12-07 18:10:07.242580000,8.073580078125,-0.13092902302742,-0.1629111468791961,-0.2292608916759491
2024-12-07 18:10:07.252554000,8.083553955078125,-0.0812133476138114,-0.0256378073245286,-0.260191947221756
2024-12-07 18:10:07.262526700,8.093526611328125,-0.0227990355342626,0.2040148377418518,-0.1718882024288177
2024-12-07 18:10:07.272500700,8.103500732421875,0.0310239810496568,0.5358883738517761,0.0110493991523981
2024-12-07 18:10:07.282474800,8.113474853515624,0.1105129495263099,0.8668740391731262,0.2480680793523788
2024-12-07 18:10:07.292448800,8.12344873046875,0.1868696808815002,1.1278347969055176,0.4651464223861694
2024-12-07 18:10:07.302421800,8.133421875,0.2269425243139267,1.2394001483917236,0.6073475480079651
2024-12-07 18:10:07.312395800,8.143395751953125,0.2118170857429504,1.1783177852630615,0.6765751242637634
2024-12-07 18:10:07.322369800,8.153369873046875,0.1731293499469757,0.9532461762428284,0.7056350111961365
2024-12-07 18:10:07.332342800,8.1633427734375,0.153794065117836,0.6559829711914062,0.7289562225341797
2024-12-07 18:10:07.342316800,8.17331689453125,0.1797758787870407,0.4824769496917724,0.7947741150856018
2024-12-07 18:10:07.352290800,8.183290771484375,0.2526634037494659,0.4858978688716888,0.8958086371421814
2024-12-07 18:10:07.362264800,8.193264892578124,0.3683223724365234,0.5817908644676208,0.9904352426528932
2024-12-07 18:10:07.372237800,8.20323779296875,0.5041913390159607,0.7281956672668457,1.0694494247436523
2024-12-07 18:10:07.382211800,8.2132119140625,0.6185924410820007,0.8216603398323059,1.169502854347229
2024-12-07 18:10:07.392185900,8.223185791015625,0.6751508712768555,0.776260495185852,1.2863224744796753
2024-12-07 18:10:07.402158800,8.233158935546875,0.6500638723373413,0.6006572842597961,1.369199514389038
2024-12-07 18:10:07.412132900,8.2431328125,0.5689698457717896,0.3030537664890289,1.3607826232910156
2024-12-07 18:10:07.422105900,8.25310595703125,0.4749893248081207,-0.0677474737167358,1.2881206274032593
2024-12-07 18:10:07.432080000,8.263079833984374,0.3937482833862304,-0.3922363221645355,1.17060387134552
2024-12-07 18:10:07.442054000,8.273053955078124,0.3265356719493866,-0.4746415615081787,1.0390524864196775
2024-12-07 18:10:07.452028000,8.28302783203125,0.2803095877170563,-0.2044422924518585,0.8820421695709229
2024-12-07 18:10:07.462001000,8.2930009765625,0.2529217004776001,0.4069819152355194,0.7091288566589355
2024-12-07 18:10:07.471975000,8.302974853515625,0.2499714493751526,1.0595065355300903,0.5778350234031677
2024-12-07 18:10:07.481949000,8.312948974609375,0.295918196439743,1.4128882884979248,0.5104401707649231
2024-12-07 18:10:07.491922000,8.322921875,0.4146363437175751,1.4094527959823608,0.474737286567688
2024-12-07 18:10:07.501896000,8.33289599609375,0.5378577709197998,1.1455044746398926,0.4120412766933441
2024-12-07 18:10:07.511870000,8.342869873046874,0.5479849576950073,0.7551758289337158,0.339984655380249
2024-12-07 18:10:07.521844000,8.352843994140626,0.4649221897125244,0.3093287348747253,0.2923727035522461
2024-12-07 18:10:07.531816700,8.362816650390625,0.3520989418029785,-0.1143775284290313,0.2885982096195221
2024-12-07 18:10:07.541790700,8.372790771484375,0.2436450272798538,-0.2982458472251892,0.2802667319774627
2024-12-07 18:10:07.551764700,8.3827646484375,0.1637049168348312,-0.2415596544742584,0.2399147599935531
2024-12-07 18:10:07.561737700,8.39273779296875,0.1309650093317031,-0.049367781728506,0.1700505763292312
2024-12-07 18:10:07.571711700,8.402711669921874,0.1343482881784439,0.1880058944225311,0.0891152545809745
2024-12-07 18:10:07.581685800,8.412685791015624,0.145020842552185,0.3669736087322235,0.0211529619991779
2024-12-07 18:10:07.591658800,8.42265869140625,0.1454711854457855,0.4579716920852661,-0.0341134890913963
2024-12-07 18:10:07.601633300,8.43263330078125,0.1261908859014511,0.4529580473899841,-0.0894576534628868
2024-12-07 18:10:07.611607300,8.442607177734375,0.0993020087480545,0.3857430517673492,-0.1357175558805465
2024-12-07 18:10:07.621581300,8.452581298828125,0.0774100050330162,0.2349398732185363,-0.1702915877103805
2024-12-07 18:10:07.631554300,8.46255419921875,0.0409198999404907,0.0301619581878185,-0.1978617012500763
2024-12-07 18:10:07.641528300,8.4725283203125,-0.0149358669295907,-0.1835073232650756,-0.2132795304059982
2024-12-07 18:10:07.651502300,8.48250244140625,-0.1026880890130996,-0.4198266565799713,-0.2078099250793457
2024-12-07 18:10:07.661475300,8.492475341796874,-0.2105142474174499,-0.6382502913475037,-0.203757956624031
2024-12-07 18:10:07.671449300,8.502449462890626,-0.3090876936912536,-0.8048680424690247,-0.2103090584278106
2024-12-07 18:10:07.681423400,8.51242333984375,-0.4090023338794708,-0.8444363474845886,-0.2305534780025482
2024-12-07 18:10:07.691397400,8.5223974609375,-0.4798293709754944,-0.7840890884399414,-0.2421510219573974
2024-12-07 18:10:07.701370000,8.5323701171875,-0.4756128787994385,-0.6804940104484558,-0.2219834625720977
2024-12-07 18:10:07.711344000,8.54234423828125,-0.4067778885364532,-0.5657972097396851,-0.1557642221450805
2024-12-07 18:10:07.721318100,8.552318115234375,-0.2993878424167633,-0.4504402279853821,-0.0789869725704193
2024-12-07 18:10:07.731291400,8.56229150390625,-0.1934946924448013,-0.3402822911739349,-0.0507353581488132
2024-12-07 18:10:07.741265400,8.572265380859376,-0.12178835272789,-0.2305421531200409,-0.0816364288330078
2024-12-07 18:10:07.751239400,8.582239501953126,-0.0604184679687023,-0.0553040206432342,-0.0881875455379486
2024-12-07 18:10:07.761213200,8.592213134765625,0.0295499265193939,0.180930808186531,-0.0144111514091491
2024-12-07 18:10:07.771186400,8.6021865234375,0.1700455248355865,0.4382092356681824,0.1137763783335685
2024-12-07 18:10:07.781160400,8.612160400390625,0.3399468958377838,0.7518799304962158,0.2049390226602554
2024-12-07 18:10:07.791134500,8.622134521484375,0.5357779264450073,1.1450461149215698,0.2447101473808288
2024-12-07 18:10:07.801107500,8.632107421875,0.6664738655090332,1.5342175960540771,0.2861138582229614
2024-12-07 18:10:07.811081500,8.64208154296875,0.5403848886489868,1.6737035512924194,0.2260342687368393
2024-12-07 18:10:07.821055500,8.652055419921876,0.1767930686473846,1.4464380741119385,0.0551650412380695
2024-12-07 18:10:07.831028200,8.6620283203125,-0.181468665599823,1.0201998949050903,-0.128900945186615
2024-12-07 18:10:07.841002200,8.672002197265625,-0.429313987493515,0.6475232243537903,-0.2674312889575958
2024-12-07 18:10:07.850976300,8.681976318359375,-0.5607824921607971,0.2216068059206009,-0.3657658398151397
2024-12-07 18:10:07.860950300,8.6919501953125,-0.6280871629714966,-0.424446165561676,-0.4604331254959106
2024-12-07 18:10:07.870923300,8.70192333984375,-0.7250267267227173,-0.923492968082428,-0.5834157466888428
2024-12-07 18:10:07.880897300,8.711897216796874,-0.7975163459777832,-1.162011742591858,-0.7599948048591614
2024-12-07 18:10:07.890871300,8.721871337890626,-0.7666508555412292,-1.1926133632659912,-0.9452732801437378
2024-12-07 18:10:07.900844300,8.73184423828125,-0.6629776954650879,-1.0232678651809692,-1.0100460052490234
2024-12-07 18:10:07.910818300,8.741818359375,-0.5830850005149841,-0.7258561253547668,-0.8567470908164978
2024-12-07 18:10:07.920792300,8.751792236328125,-0.5242432355880737,-0.3657087087631225,-0.5573689937591553
2024-12-07 18:10:07.930766300,8.761766357421875,-0.4446376860141754,-0.0628755837678909,-0.2551715672016144
2024-12-07 18:10:07.940739300,8.7717392578125,-0.3489343225955963,-0.0438430421054363,-0.1120945736765861
2024-12-07 18:10:07.950713300,8.78171337890625,-0.2443016320466995,-0.3018847107887268,-0.1634472608566284
2024-12-07 18:10:07.960687400,8.791687255859374,-0.1823823750019073,-0.6100577712059021,-0.3148020207881927
2024-12-07 18:10:07.970660000,8.80166015625,-0.1929119676351547,-0.7651829123497009,-0.4457435309886932
2024-12-07 18:10:07.980634000,8.811634033203125,-0.2191303372383117,-0.7853129506111145,-0.4934675693511963
2024-12-07 18:10:07.990608100,8.821608154296875,-0.2351604402065277,-0.7550575733184814,-0.4575391411781311
2024-12-07 18:10:08.000582100,8.83158203125,-0.2533465921878814,-0.6562355160713196,-0.3722719848155975
2024-12-07 18:10:08.010555400,8.841555419921875,-0.2692134380340576,-0.4581959545612335,-0.2908058762550354
2024-12-07 18:10:08.020529200,8.851529052734374,-0.2666598856449127,-0.2012506574392318,-0.2414315193891525
2024-12-07 18:10:08.030503200,8.861503173828124,-0.2427910417318344,0.025995023548603,-0.2216881811618805
2024-12-07 18:10:08.040476400,8.871476318359376,-0.2137250006198883,0.1432080566883087,-0.2407465428113937
2024-12-07 18:10:08.050450400,8.881450439453126,-0.2016353160142898,0.120246022939682,-0.2848804593086242
2024-12-07 18:10:08.060424400,8.891424560546875,-0.2171050012111663,-0.0170735046267509,-0.3202932775020599
2024-12-07 18:10:08.070398200,8.901398193359375,-0.2318599820137024,-0.2083646357059478,-0.3436497449874878
2024-12-07 18:10:08.080371500,8.911371337890625,-0.2197493761777877,-0.4408381879329681,-0.3432207405567169
2024-12-07 18:10:08.090345500,8.921345458984375,-0.1783063262701034,-0.6824069023132324,-0.344561904668808
2024-12-07 18:10:08.100319500,8.931319580078124,-0.1314460337162017,-0.9208566546440125,-0.3298839628696441
2024-12-07 18:10:08.110292500,8.94129248046875,-0.0968691557645797,-1.1208491325378418,-0.3070457577705383
2024-12-07 18:10:08.120266500,8.9512666015625,-0.0691266804933548,-1.25394868850708,-0.2876261472702026
2024-12-07 18:10:08.130240500,8.961240478515625,-0.0601411759853363,-1.293244481086731,-0.2878048419952392
2024-12-07 18:10:08.140214500,8.971214599609375,-0.0604033544659614,-1.2432076930999756,-0.2866641581058502
2024-12-07 18:10:08.150187300,8.981187255859375,-0.0602361112833023,-1.1597203016281128,-0.2809551358222961
2024-12-07 18:10:08.160161300,8.991161376953125,-0.0549442395567894,-1.076068878173828,-0.2766485214233398
2024-12-07 18:10:08.170135300,9.00113525390625,-0.0487526580691337,-0.9899888038635254,-0.2852577269077301
2024-12-07 18:10:08.180108300,9.0111083984375,-0.0574780441820621,-0.9055130481719972,-0.2705497443675995
2024-12-07 18:10:08.190082300,9.021082275390626,-0.0561097115278244,-0.8064354658126831,-0.2541830241680145
2024-12-07 18:10:08.200056300,9.031056396484376,-0.0579594150185585,-0.6523491144180298,-0.2277132421731948
2024-12-07 18:10:08.210030300,9.0410302734375,-0.0598747581243515,-0.5093661546707153,-0.190997838973999
2024-12-07 18:10:08.220003300,9.05100341796875,-0.0646788924932479,-0.3516288697719574,-0.1579786390066146
2024-12-07 18:10:08.229977300,9.060977294921877,-0.0726057887077331,-0.2682495415210724,-0.1136271655559539
2024-12-07 18:10:08.239951400,9.070951416015625,-0.0675880312919616,-0.2316457033157348,-0.0856493636965751
2024-12-07 18:10:08.249924400,9.08092431640625,-0.07955814152956,-0.2255934029817581,-0.0631054416298866
2024-12-07 18:10:08.259898400,9.0908984375,-0.0925058424472808,-0.2180503755807876,-0.0559248141944408
2024-12-07 18:10:08.269872400,9.100872314453126,-0.1081031784415245,-0.1978588253259658,-0.062157142907381
2024-12-07 18:10:08.279845000,9.11084521484375,-0.1224455758929252,-0.1606148779392242,-0.0660645812749862
2024-12-07 18:10:08.289819100,9.120819091796877,-0.1237129718065261,-0.1174793913960456,-0.0606831386685371
2024-12-07 18:10:08.299793200,9.130793212890625,-0.1233309209346771,-0.0752648934721946,-0.0507891215384006
2024-12-07 18:10:08.309767200,9.14076708984375,-0.1310756504535675,-0.0337661877274513,-0.058245975524187
2024-12-07 18:10:08.319740400,9.150740478515624,-0.1653075516223907,0.0261952094733715,-0.098714604973793
2024-12-07 18:10:08.329714200,9.160714111328126,-0.2205441743135452,0.0991112291812896,-0.1397342234849929
2024-12-07 18:10:08.339688200,9.170688232421876,-0.2623835802078247,0.1893908679485321,-0.1760325878858566
2024-12-07 18:10:08.349661400,9.180661376953124,-0.2731339633464813,0.2401496618986129,-0.1781609803438186
2024-12-07 18:10:08.359635500,9.190635498046875,-0.2367111593484878,0.2792310118675232,-0.1767584681510925
2024-12-07 18:10:08.369609500,9.200609375,-0.1885974258184433,0.3287141323089599,-0.1410555988550186
2024-12-07 18:10:08.379583200,9.210583251953125,-0.1389767080545425,0.3986761569976806,-0.1212240681052208
2024-12-07 18:10:08.389556500,9.220556396484374,-0.0954476073384285,0.4778399467468261,-0.1140878647565841
2024-12-07 18:10:08.399530500,9.230530517578124,-0.0714036971330642,0.5502911806106567,-0.144649401307106
2024-12-07 18:10:08.409504500,9.24050439453125,-0.0583185218274593,0.5655268430709839,-0.1685888320207595
2024-12-07 18:10:08.419477200,9.250477294921875,-0.0439633391797542,0.5449697971343994,-0.1535696238279342
2024-12-07 18:10:08.429451300,9.260451171875,-0.0129260635003447,0.5155016183853149,-0.0727187022566795
2024-12-07 18:10:08.439425300,9.27042529296875,0.0488510765135288,0.4633989036083221,0.0772795304656028
2024-12-07 18:10:08.449399300,9.2803994140625,0.1521052867174148,0.3930722773075104,0.2679640054702759
2024-12-07 18:10:08.459372300,9.290372314453125,0.2336705923080444,0.356151670217514,0.4024158418178558
2024-12-07 18:10:08.469346300,9.30034619140625,0.2481659054756164,0.3178927004337311,0.4445273280143738
2024-12-07 18:10:08.479320300,9.3103203125,0.2069818079471588,0.2413063496351242,0.4457485377788543
2024-12-07 18:10:08.489293300,9.320293212890626,0.1567268967628479,0.1719738841056823,0.4599147140979767
2024-12-07 18:10:08.499267300,9.330267333984375,0.1217973753809928,0.1708592027425766,0.5151471495628357
2024-12-07 18:10:08.509241300,9.340241455078123,0.1138760671019554,0.2895062267780304,0.6073497533798218
2024-12-07 18:10:08.519215400,9.35021533203125,0.1295472532510757,0.5467116236686707,0.6975451707839966
2024-12-07 18:10:08.529188400,9.360188232421876,0.1794311851263046,0.9289106726646424,0.7673705816268921
2024-12-07 18:10:08.539162400,9.370162353515624,0.2808030247688293,1.3783141374588013,0.8334742784500122
2024-12-07 18:10:08.549136400,9.380136474609374,0.4329099953174591,1.767177939414978,0.9439784288406372
2024-12-07 18:10:08.559109000,9.390109130859376,0.5763004422187805,1.9571925401687624,1.0906285047531128
2024-12-07 18:10:08.569083100,9.400083251953124,0.637693464756012,1.9413052797317505,1.165694236755371
2024-12-07 18:10:08.579057200,9.41005712890625,0.6236094236373901,1.7584986686706543,1.1382719278335571
2024-12-07 18:10:08.589031200,9.42003125,0.5803689956665039,1.1898658275604248,1.0554285049438477
2024-12-07 18:10:08.599004400,9.43000439453125,0.470814049243927,0.2413957566022873,0.9933806657791138
2024-12-07 18:10:08.608978400,9.439978515625,0.3650761842727661,-0.5154666304588318,0.9131574630737304
2024-12-07 18:10:08.618952400,9.449952392578124,0.3091888427734375,-0.6692625880241394,0.801719069480896
2024-12-07 18:10:08.628925400,9.459925537109376,0.3331075012683868,-0.2423205971717834,0.6661085486412048
2024-12-07 18:10:08.638899500,9.4698994140625,0.3927609920501709,0.5298750400543213,0.5911042094230652
2024-12-07 18:10:08.648873500,9.47987353515625,0.4321792423725128,1.2075525522232056,0.6004191637039185
2024-12-07 18:10:08.658846500,9.489846435546877,0.4548929929733276,1.4218424558639526,0.6302562952041626
2024-12-07 18:10:08.668820500,9.499820556640625,0.4684785604476928,1.040655493736267,0.6188230514526367
2024-12-07 18:10:08.678794500,9.50979443359375,0.4770626723766327,0.3321864306926727,0.5376964211463928
2024-12-07 18:10:08.688768500,9.5197685546875,0.4987059235572815,-0.332489550113678,0.4104769229888916
2024-12-07 18:10:08.698741500,9.529741455078126,0.5184469819068909,-0.6554722189903259,0.2581064701080322
2024-12-07 18:10:08.708715500,9.539715576171876,0.5285313129425049,-0.6310151219367981,0.1297826021909713
2024-12-07 18:10:08.718689500,9.549689453125,0.5122091174125671,-0.3675879240036011,0.0405660383403301
2024-12-07 18:10:08.728662500,9.55966259765625,0.4781248867511749,-0.0698779448866844,-0.0013212237972766
2024-12-07 18:10:08.738636500,9.569636474609377,0.419068843126297,0.1846766024827957,-0.0487245358526706
2024-12-07 18:10:08.748610600,9.579610595703125,0.3462737202644348,0.3100031018257141,-0.1059401482343673
2024-12-07 18:10:08.758584600,9.58958447265625,0.260526180267334,0.3810080587863922,-0.199573203921318
2024-12-07 18:10:08.768557600,9.5995576171875,0.1937884241342544,0.3655281662940979,-0.303224503993988
2024-12-07 18:10:08.778531600,9.609531494140626,0.1536080539226532,0.3242272734642029,-0.3917190432548523
2024-12-07 18:10:08.788505600,9.619505615234376,0.1188764423131942,0.2617468535900116,-0.4402437210083008
2024-12-07 18:10:08.798478600,9.629478515625,0.0833980217576026,0.2223268449306488,-0.4708857536315918
2024-12-07 18:10:08.808452600,9.63945263671875,0.0536995120346546,0.1555768400430679,-0.4742362797260284
2024-12-07 18:10:08.818426600,9.649426513671877,0.0119867157191038,0.009005325846374,-0.426753282546997
2024-12-07 18:10:08.828400400,9.659400390625,-0.079518161714077,-0.1932266056537628,-0.3470193147659302
2024-12-07 18:10:08.838373400,9.669373291015624,-0.1869428157806396,-0.3535976707935333,-0.2723346650600433
2024-12-07 18:10:08.848347400,9.679347412109376,-0.2624626159667969,-0.4703615605831146,-0.2161155939102172
2024-12-07 18:10:08.858321400,9.6893212890625,-0.2996456027030945,-0.5376863479614258,-0.1862094849348068
2024-12-07 18:10:08.868294400,9.69929443359375,-0.3196717798709869,-0.5918893814086914,-0.1921432763338089
2024-12-07 18:10:08.878268400,9.709268310546875,-0.3381617367267608,-0.6031907796859741,-0.2459800541400909
2024-12-07 18:10:08.888242400,9.719242431640623,-0.3451922237873077,-0.6167377829551697,-0.30391526222229
2024-12-07 18:10:08.898216400,9.729216552734377,-0.3286949396133423,-0.657417356967926,-0.3208553493022918
2024-12-07 18:10:08.908189400,9.739189453125,-0.2887611091136932,-0.7609578371047974,-0.2563368082046509
2024-12-07 18:10:08.918163500,9.74916357421875,-0.2409347295761108,-0.7954980134963989,-0.0813340321183204
2024-12-07 18:10:08.928137500,9.759137451171876,-0.1307006329298019,-0.4956207275390625,0.2210284918546676
2024-12-07 18:10:08.938110500,9.7691103515625,0.0531664751470088,0.162691593170166,0.5127264857292175
2024-12-07 18:10:08.948084500,9.77908447265625,0.2536100745201111,0.9053231477737428,0.6060172915458679
2024-12-07 18:10:08.958058500,9.78905859375,0.4710008203983307,1.5097548961639404,0.4787033200263977
2024-12-07 18:10:08.968032500,9.799032470703125,0.768092155456543,1.799401044845581,0.3042673468589782
2024-12-07 18:10:08.978005500,9.809005615234376,0.954322338104248,1.794930100440979,0.1912110298871994
2024-12-07 18:10:08.987979500,9.8189794921875,0.7778112292289734,1.6012133359909058,0.0626479834318161
2024-12-07 18:10:08.997953500,9.82895361328125,0.3706597089767456,1.245816707611084,-0.0631468966603279
2024-12-07 18:10:09.007926500,9.838926513671876,0.0117734530940651,0.8203353881835938,-0.1117407977581024
2024-12-07 18:10:09.017900500,9.848900634765624,-0.2083187997341156,0.4092594087123871,-0.1048901081085205
2024-12-07 18:10:09.027874600,9.85887451171875,-0.2969498634338379,-0.2072514593601226,-0.142133891582489
2024-12-07 18:10:09.037847600,9.86884765625,-0.3088664412498474,-0.9990065693855286,-0.1946903616189956
2024-12-07 18:10:09.047821600,9.878821533203125,-0.3429130911827087,-1.2676382064819336,-0.1082739830017089
2024-12-07 18:10:09.057795600,9.888795654296874,-0.3653076887130737,-0.983950674533844,0.0711975470185279
2024-12-07 18:10:09.067769600,9.89876953125,-0.3236870169639587,-0.5244400501251221,0.2128953039646148
2024-12-07 18:10:09.077742600,9.90874267578125,-0.2652197778224945,-0.1835542321205139,0.2288193851709365
2024-12-07 18:10:09.087716600,9.918716552734375,-0.2811601161956787,-0.0153559045866131,0.1382492780685424
2024-12-07 18:10:09.097690600,9.928690673828124,-0.3332682847976684,-0.0576318241655826,-0.0075740278698503
2024-12-07 18:10:09.107663400,9.938663330078125,-0.3310916721820831,-0.314153105020523,-0.203450858592987
2024-12-07 18:10:09.117637400,9.948637451171876,-0.2578417360782623,-0.6020781993865967,-0.4160358309745788
2024-12-07 18:10:09.127611400,9.958611328125,-0.1616877615451812,-0.6339410543441772,-0.5502287745475769
2024-12-07 18:10:09.137585400,9.96858544921875,-0.0907844305038452,-0.3459230065345764,-0.5447937846183777
2024-12-07 18:10:09.147558400,9.978558349609376,-0.0526855178177356,0.1182015091180801,-0.4346446394920349
2024-12-07 18:10:09.157532400,9.988532470703126,-0.0555725805461406,0.5765085220336914,-0.2833506464958191
2024-12-07 18:10:09.167506400,9.99850634765625,-0.1088970527052879,0.8463008999824524,-0.1528051644563675
2024-12-07 18:10:09.177479400,10.0084794921875,-0.1709658503532409,0.8417812585830688,-0.0983290150761604
2024-12-07 18:10:09.187453400,10.018453369140625,-0.2133982628583908,0.6100585460662842,-0.1170880571007728
2024-12-07 18:10:09.197427500,10.028427490234376,-0.2440252006053924,0.3085605204105377,-0.1707424521446228
2024-12-07 18:10:09.207401500,10.0384013671875,-0.2708152830600738,0.0176448207348585,-0.2423098385334015
2024-12-07 18:10:09.217374500,10.04837451171875,-0.2964759767055511,-0.258048951625824,-0.3240270316600799
2024-12-07 18:10:09.227348500,10.058348388671876,-0.3245611190795898,-0.4848634600639343,-0.4122056365013122
2024-12-07 18:10:09.237322500,10.068322509765624,-0.3465664088726043,-0.6771425008773804,-0.5099999904632568
2024-12-07 18:10:09.247295500,10.07829541015625,-0.3607389628887176,-0.7794473171234131,-0.6175408363342285
2024-12-07 18:10:09.257269500,10.08826953125,-0.3528431951999664,-0.7749441266059875,-0.712768018245697
2024-12-07 18:10:09.267243300,10.0982431640625,-0.3154300451278686,-0.7108636498451233,-0.770234227180481
2024-12-07 18:10:09.277217300,10.10821728515625,-0.2492398023605346,-0.66982102394104,-0.7722818851470947
2024-12-07 18:10:09.287190500,10.1181904296875,-0.1594401448965072,-0.6950898766517639,-0.7329336404800415
2024-12-07 18:10:09.297164500,10.12816455078125,-0.0761004090309143,-0.7529920935630798,-0.6795857548713684
2024-12-07 18:10:09.307138600,10.138138671875,-0.0139068067073822,-0.8525165319442749,-0.6374779939651489
2024-12-07 18:10:09.317111600,10.148111572265623,0.0338667444884777,-0.9895215034484864,-0.6111007332801819
2024-12-07 18:10:09.327085600,10.15808544921875,0.0705973282456398,-1.1336617469787598,-0.5897645354270935
2024-12-07 18:10:09.337059600,10.1680595703125,0.0872685760259628,-1.2417997121810913,-0.5654847025871277
2024-12-07 18:10:09.347033600,10.17803369140625,0.0790106430649757,-1.291759014129639,-0.538793683052063
2024-12-07 18:10:09.357006600,10.188006591796874,0.0499121323227882,-1.2617956399917605,-0.5054817199707031
2024-12-07 18:10:09.366980600,10.197980712890624,0.0159954447299242,-1.1720249652862549,-0.4778743684291839
2024-12-07 18:10:09.376954600,10.20795458984375,-0.0156614258885383,-1.0456408262252808,-0.4577738642692566
2024-12-07 18:10:09.386927600,10.217927734375,-0.0534615330398082,-0.8823267221450806,-0.4381037354469299
2024-12-07 18:10:09.396901600,10.227901611328123,-0.1131623983383178,-0.6875097751617432,-0.3965187966823578
2024-12-07 18:10:09.406875600,10.237875732421877,-0.1945621967315673,-0.49186572432518,-0.3160828351974487
2024-12-07 18:10:09.416848400,10.247848388671876,-0.2868632972240448,-0.3473421037197113,-0.2000368982553482
2024-12-07 18:10:09.426822400,10.257822509765624,-0.3583784699440002,-0.255462497472763,-0.0818191766738891
2024-12-07 18:10:09.436796400,10.26779638671875,-0.3993642032146454,-0.2233371585607528,-0.0036794212646782
2024-12-07 18:10:09.446770400,10.2777705078125,-0.4239518344402313,-0.2250967174768448,0.0562305189669132
2024-12-07 18:10:09.456743400,10.287743408203124,-0.4144798815250397,-0.2274976819753646,0.0753386691212654
2024-12-07 18:10:09.466717400,10.297717529296875,-0.3757383525371551,-0.2201343029737472,0.0550970435142517
2024-12-07 18:10:09.476691500,10.30769140625,-0.3269438743591308,-0.1922106593847274,0.0090650469064712
2024-12-07 18:10:09.486664400,10.31766455078125,-0.2897754907608032,-0.1310911029577255,-0.0458938106894493
2024-12-07 18:10:09.496638500,10.327638427734374,-0.2839400470256805,-0.0129202911630272,-0.1152826249599456
2024-12-07 18:10:09.506612500,10.337612548828124,-0.2798861861228943,0.1215826570987701,-0.1789063364267349
2024-12-07 18:10:09.516586500,10.34758642578125,-0.2617791891098022,0.2218828201293945,-0.2162362337112426
2024-12-07 18:10:09.526559500,10.3575595703125,-0.2059305757284164,0.2616976201534271,-0.2486732602119445
2024-12-07 18:10:09.536533500,10.367533447265624,-0.1635984480381012,0.2282047122716903,-0.2367147803306579
2024-12-07 18:10:09.546507500,10.377507568359375,-0.107737585902214,0.1490909904241562,-0.2103289812803268
2024-12-07 18:10:09.556480500,10.38748046875,-0.0362301580607891,0.0456733927130699,-0.1777572780847549
2024-12-07 18:10:09.566454500,10.39745458984375,-0.0088880136609077,-0.0834092274308204,-0.1227656528353691
2024-12-07 18:10:09.576428300,10.40742822265625,-0.0105261364951729,-0.1691827625036239,-0.0948979407548904
2024-12-07 18:10:09.586402300,10.41740234375,0.0049209967255592,-0.1809534132480621,-0.1014296039938926
2024-12-07 18:10:09.596375300,10.427375244140626,0.0278588458895683,-0.1476392596960067,-0.1040456220507621
2024-12-07 18:10:09.606349300,10.437349365234375,0.0563251078128814,-0.100587859749794,-0.0837893560528755
2024-12-07 18:10:09.616323300,10.4473232421875,0.0729658231139183,-0.0400977432727813,-0.0786497965455055
2024-12-07 18:10:09.626296300,10.45729638671875,0.0829239189624786,-0.0191740896552801,-0.067774511873722
2024-12-07 18:10:09.636270300,10.467270263671876,0.0771228000521659,-0.0205532256513834,-0.0608658604323864
2024-12-07 18:10:09.646244400,10.477244384765624,0.0732404440641403,-0.0018666230607777,-0.060283426195383
2024-12-07 18:10:09.656218400,10.48721826171875,0.076371744275093,0.094025433063507,0.0020493776537477
2024-12-07 18:10:09.666191000,10.497191162109376,0.1129436045885086,0.2676012217998504,0.1444880068302154
2024-12-07 18:10:09.676165000,10.5071650390625,0.172997310757637,0.4736194908618927,0.3685778379440307
2024-12-07 18:10:09.686139100,10.51713916015625,0.2367315590381622,0.6926131248474121,0.6210276484489441
2024-12-07 18:10:09.696112000,10.527112060546877,0.3025028705596924,0.8794723153114319,0.8615648746490479
2024-12-07 18:10:09.706086100,10.537086181640625,0.3463622033596039,1.024253487586975,1.0332467555999756
2024-12-07 18:10:09.716060200,10.54706005859375,0.3528867661952972,1.098902702331543,1.096047043800354
2024-12-07 18:10:09.726033200,10.557033203125,0.3399467468261719,1.1771725416183472,1.0771889686584473
2024-12-07 18:10:09.736007200,10.567007080078126,0.386246383190155,1.370082974433899,1.05390202999115
2024-12-07 18:10:09.745981200,10.576981201171876,0.5521551966667175,1.702203631401062,1.0938042402267456
2024-12-07 18:10:09.755955200,10.586955078125,0.7657599449157715,2.057741165161133,1.2010575532913208
2024-12-07 18:10:09.765928200,10.59692822265625,0.8319301605224609,2.162070274353028,1.292882800102234
2024-12-07 18:10:09.775902200,10.606902099609377,0.7450704574584961,1.8735061883926392,1.2565910816192627
2024-12-07 18:10:09.785876200,10.616876220703125,0.6707871556282043,1.2473528385162354,1.0986579656600952
2024-12-07 18:10:09.795849000,10.626848876953124,0.5705776214599609,0.4067215919494629,0.8986387848854065
2024-12-07 18:10:09.805823000,10.636822998046876,0.416801393032074,-0.3322156071662903,0.7686333656311035
2024-12-07 18:10:09.815797000,10.646796875,0.2222249805927276,-0.8458867073059082,0.7351439595222473
2024-12-07 18:10:09.825771000,10.65677099609375,0.0236208196729421,-1.0744245052337646,0.7702372074127197
2024-12-07 18:10:09.835744300,10.666744140625,-0.1275896728038787,-0.9556596279144288,0.7710580825805664
2024-12-07 18:10:09.845718300,10.67671826171875,-0.1833658516407013,-0.52459716796875,0.714152455329895
2024-12-07 18:10:09.855692000,10.686692138671877,-0.108357734978199,0.0214145388454198,0.6182968020439148
2024-12-07 18:10:09.865665300,10.696665283203124,0.045188944786787,0.584942638874054,0.5125389695167542
2024-12-07 18:10:09.875639300,10.706639404296874,0.1756769716739654,1.0230761766433716,0.3851014673709869
2024-12-07 18:10:09.885613300,10.71661328125,0.2236130684614181,1.2010467052459717,0.2409608066082
2024-12-07 18:10:09.895587300,10.72658740234375,0.2264456003904342,1.1588425636291504,0.1157417669892311
2024-12-07 18:10:09.905560300,10.736560302734375,0.2230415344238281,1.0874820947647097,-0.0076302313245832
2024-12-07 18:10:09.915534300,10.746534423828123,0.2294328808784485,1.042839527130127,-0.1468316614627838
2024-12-07 18:10:09.925508400,10.75650830078125,0.2539938986301422,0.968927264213562,-0.2702183127403259
2024-12-07 18:10:09.935481300,10.7664814453125,0.299030601978302,0.8443989157676697,-0.3417093753814697
2024-12-07 18:10:09.945455400,10.776455322265624,0.3734702169895172,0.7173863649368286,-0.3558840751647949
2024-12-07 18:10:09.955429400,10.786429443359374,0.4322379529476166,0.6521044373512268,-0.3511337339878082
2024-12-07 18:10:09.965402000,10.796402099609375,0.4591574668884277,0.6205384731292725,-0.32466721534729
2024-12-07 18:10:09.975376100,10.806376220703124,0.4539090096950531,0.5859376788139343,-0.2905958294868469
2024-12-07 18:10:09.985350100,10.81635009765625,0.4110877811908722,0.5095095038414001,-0.2491501271724701
2024-12-07 18:10:09.995324200,10.82632421875,0.3492933809757232,0.4217928349971771,-0.2172122448682785
2024-12-07 18:10:10.005297200,10.836297119140625,0.2802248299121856,0.2838906347751617,-0.1896312236785888
2024-12-07 18:10:10.015271200,10.846271240234374,0.2061804383993148,0.0933817774057388,-0.1641596108675003
2024-12-07 18:10:10.025245200,10.8562451171875,0.1379324048757553,-0.1064282730221748,-0.1581200808286667
2024-12-07 18:10:10.035218200,10.86621826171875,0.0813167318701744,-0.3005305826663971,-0.142970323562622
2024-12-07 18:10:10.045192200,10.876192138671875,0.0144191887229681,-0.4309458434581756,-0.1323014348745346
2024-12-07 18:10:10.055166200,10.886166259765623,-0.0715319514274597,-0.5666723251342773,-0.1195871084928512
2024-12-07 18:10:10.065140200,10.89614013671875,-0.184877410531044,-0.7083844542503357,-0.1051282733678817
2024-12-07 18:10:10.075113200,10.90611328125,-0.3069024384021759,-0.7866101264953613,-0.1212379485368728
2024-12-07 18:10:10.085087200,10.916087158203124,-0.3941276371479034,-0.8366469740867615,-0.1136772334575653
2024-12-07 18:10:10.095061200,10.926061279296874,-0.4107136130332947,-0.869104266166687,-0.0509991608560085
2024-12-07 18:10:10.105034200,10.9360341796875,-0.3668303191661834,-0.8927427530288696,0.0492896251380443
2024-12-07 18:10:10.115008000,10.946008056640624,-0.3015170693397522,-0.8973866105079651,0.1287361979484558
2024-12-07 18:10:10.124982000,10.95598193359375,-0.2555921673774719,-0.8278850317001343,0.1654257625341415
2024-12-07 18:10:10.134956000,10.9659560546875,-0.215103805065155,-0.6585533618927002,0.1662102788686752
2024-12-07 18:10:10.144929300,10.97592919921875,-0.1429944634437561,-0.4202222824096679,0.1678145676851272
2024-12-07 18:10:10.154903300,10.9859033203125,-0.0383542068302631,-0.2074411809444427,0.1889949887990951
2024-12-07 18:10:10.164877000,10.995876953125,0.0659767314791679,0.0035131361801177,0.2315616309642791
2024-12-07 18:10:10.174850300,11.005850341796876,0.2509828805923462,0.4444825649261474,0.2305373251438141
2024-12-07 18:10:10.184824300,11.01582421875,0.5688580870628357,0.9330530166625975,0.1867829263210296
2024-12-07 18:10:10.194798300,11.02579833984375,0.8088144659996033,1.2231202125549316,0.1323877722024917
2024-12-07 18:10:10.204771300,11.035771240234377,0.7569200992584229,1.3361527919769287,-0.0506933592259883
2024-12-07 18:10:10.214745300,11.045745361328123,0.4998311102390289,1.2948538064956665,-0.3355784714221954
2024-12-07 18:10:10.224719400,11.05571923828125,0.234753668308258,0.9918691515922546,-0.5369361042976379
2024-12-07 18:10:10.234693400,11.065693359375,0.0204965509474277,0.5348677039146423,-0.6405839920043945
2024-12-07 18:10:10.244666000,11.075666015625,-0.1828427165746688,-0.1811452507972717,-0.7542591094970703
2024-12-07 18:10:10.254640000,11.08564013671875,-0.4914224147796631,-1.0805751085281372,-0.8210136890411377
2024-12-07 18:10:10.264614100,11.0956142578125,-0.8661206364631653,-1.5316216945648191,-0.6737003922462463
2024-12-07 18:10:10.274587100,11.105587158203123,-1.1081780195236206,-1.3910828828811646,-0.3586874902248382
2024-12-07 18:10:10.284561200,11.11556103515625,-1.1008052825927734,-0.7983652353286743,-0.0246626399457454
2024-12-07 18:10:10.294535200,11.12553515625,-0.920312225818634,-0.1889880448579788,0.2253419309854507
2024-12-07 18:10:10.304509200,11.13550927734375,-0.7190055251121521,0.1293148249387741,0.2888135910034179
2024-12-07 18:10:10.314482200,11.145482177734374,-0.6145451664924622,0.0891897454857826,0.1930977702140808
2024-12-07 18:10:10.324456200,11.155456298828126,-0.5750302672386169,-0.3011737465858459,-0.0007657092064619
2024-12-07 18:10:10.334430200,11.16543017578125,-0.5257231593132019,-0.8401345610618591,-0.2593401074409485
2024-12-07 18:10:10.344403200,11.1754033203125,-0.4828193783760071,-1.263414978981018,-0.4757448434829712
2024-12-07 18:10:10.354377200,11.185377197265623,-0.4555443823337555,-1.4786993265151978,-0.5707646608352661
2024-12-07 18:10:10.364351200,11.195351318359377,-0.4182635843753814,-1.4060437679290771,-0.5269429087638855
2024-12-07 18:10:10.374325200,11.2053251953125,-0.3481037020683288,-1.0707745552062988,-0.3856855034828186
2024-12-07 18:10:10.384298000,11.215298095703124,-0.2600342929363251,-0.528764545917511,-0.2200680524110794
2024-12-07 18:10:10.394272000,11.22527197265625,-0.1800314038991928,0.0633022934198379,-0.0918878018856048
2024-12-07 18:10:10.404246000,11.23524609375,-0.1177166327834129,0.4591169953346252,-0.045755460858345
2024-12-07 18:10:10.414219300,11.24521923828125,-0.0990438759326934,0.6017034649848938,-0.0750571563839912
2024-12-07 18:10:10.424193000,11.255193115234375,-0.109704777598381,0.5944346189498901,-0.1708734333515167
2024-12-07 18:10:10.434167000,11.2651669921875,-0.1226038560271263,0.5366829633712769,-0.2800507247447967
2024-12-07 18:10:10.444140300,11.275140380859376,-0.1262875348329544,0.4213364422321319,-0.3381257355213165
2024-12-07 18:10:10.454114300,11.2851142578125,-0.1335143595933914,0.2892495691776275,-0.3393631875514984
2024-12-07 18:10:10.464088300,11.29508837890625,-0.1611947268247604,0.1853849589824676,-0.318090409040451
2024-12-07 18:10:10.474062000,11.30506201171875,-0.2043239772319793,0.088683508336544,-0.3075862228870392
2024-12-07 18:10:10.484035300,11.315035400390624,-0.2436767071485519,-0.0061689657159149,-0.3188162446022033
2024-12-07 18:10:10.494009300,11.32500927734375,-0.2675488591194153,-0.0990598276257515,-0.3421467244625091
2024-12-07 18:10:10.503983400,11.3349833984375,-0.2756760120391845,-0.202214702963829,-0.3468005955219269
2024-12-07 18:10:10.513956400,11.344956298828125,-0.2816299796104431,-0.3063262104988098,-0.3324258327484131
2024-12-07 18:10:10.523930400,11.354930419921876,-0.281122624874115,-0.4009845554828644,-0.3033723533153534
