time,seconds_elapsed,z,y,x
2024-12-07 16:24:06.841461000,0.1364609375,-0.0122505314648151,0.030226856470108,0.013049479573965
2024-12-07 16:24:06.851488500,0.146488525390625,-0.0165115855634212,0.0387489646673202,0.0162452701479196
2024-12-07 16:24:06.861553000,0.156552978515625,-0.0197073780000209,0.0483363382518291,0.0162452701479196
2024-12-07 16:24:06.871651600,0.166651611328125,-0.023968432098627,0.057923711836338,0.0077231614850461
2024-12-07 16:24:06.881780000,0.176780029296875,-0.0260989591479301,0.0557931847870349,-0.0039947386831045
2024-12-07 16:24:06.891933400,0.186933349609375,-0.0282294861972332,0.0472710728645324,-0.0146473748609423
2024-12-07 16:24:06.902105300,0.197105224609375,-0.0282294861972332,0.032357383519411,-0.0242347475141286
2024-12-07 16:24:06.912289300,0.207289306640625,-0.0250336956232786,0.018508955836296,-0.0253000110387802
2024-12-07 16:24:06.922478800,0.217478759765625,-0.0197073780000209,0.0131826372817158,-0.0242347475141286
2024-12-07 16:24:06.932638000,0.227637939453125,-0.0133157959207892,0.0099868467077612,-0.0210389569401741
2024-12-07 16:24:06.942665700,0.237665771484375,-0.010120004415512,0.0057257921434938,-0.0157126393169164
2024-12-07 16:24:06.952693500,0.247693603515625,-0.0122505314648151,0.002530001103878,-0.0103863207623362
2024-12-07 16:24:06.962721300,0.25772119140625,-0.0143810594454407,0.0089215831831097,-0.0061252657324075
2024-12-07 16:24:06.972749000,0.2677490234375,-0.0175768509507179,0.0099868467077612,0.0023968431632965
2024-12-07 16:24:06.982776800,0.27777685546875,-0.023968432098627,0.0014647374628111,0.0077231614850461
2024-12-07 16:24:06.992804400,0.287804443359375,-0.0282294861972332,-0.0091878985986113,0.010918952524662
2024-12-07 16:24:07.002832100,0.29783203125,-0.0260989591479301,-0.0113184265792369,0.0151800066232681
2024-12-07 16:24:07.012860000,0.30785986328125,-0.021837905049324,-0.0081226350739598,0.0162452701479196
2024-12-07 16:24:07.022887700,0.3178876953125,-0.0186421144753694,-0.0059921080246567,0.0162452701479196
2024-12-07 16:24:07.032915500,0.32791552734375,-0.0143810594454407,-0.0027963169850409,0.0162452701479196
2024-12-07 16:24:07.042943200,0.337943115234375,-0.0090547408908605,0.0067910556681454,0.010918952524662
2024-12-07 16:24:07.052971000,0.347970947265625,-0.0047936863265931,0.0174436923116445,0.0002663159102667
2024-12-07 16:24:07.062998800,0.357998779296875,-0.0026631590444594,0.0195742193609476,-0.0114515842869877
2024-12-07 16:24:07.073026600,0.368026611328125,-0.0026631590444594,0.0142479008063673,-0.0199736934155225
2024-12-07 16:24:07.083054300,0.378054443359375,-0.0069242138415575,0.0057257921434938,-0.0284958016127347
2024-12-07 16:24:07.093082000,0.38808203125,-0.0111852679401636,-0.0027963169850409,-0.0295610651373863
2024-12-07 16:24:07.103110000,0.39810986328125,-0.0133157959207892,-0.0006657897611148,-0.0231694839894771
2024-12-07 16:24:07.113137700,0.4081376953125,-0.0143810594454407,0.0110521102324128,-0.018908429890871
2024-12-07 16:24:07.123165400,0.41816552734375,-0.0165115855634212,0.0110521102324128,-0.0082557927817106
2024-12-07 16:24:07.133193200,0.428193115234375,-0.0154463229700922,0.0131826372817158,0.0034621069207787
2024-12-07 16:24:07.143221000,0.438220947265625,-0.0133157959207892,0.0206394828855991,0.0023968431632965
2024-12-07 16:24:07.153248500,0.44824853515625,-0.0090547408908605,0.016378428786993,-0.0029294749256223
2024-12-07 16:24:07.163276300,0.4582763671875,-0.0047936863265931,0.0057257921434938,-0.0135821113362908
2024-12-07 16:24:07.173304000,0.468303955078125,0.0026631590444594,-0.0081226350739598,-0.030626330524683
2024-12-07 16:24:07.183331800,0.478331787109375,0.0133157959207892,-0.0177100077271461,-0.0476705469191074
2024-12-07 16:24:07.193359600,0.488359619140625,0.023968432098627,-0.0209057983011007,-0.060453712940216
2024-12-07 16:24:07.203387400,0.498387451171875,0.0346210673451423,-0.0241015907377004,-0.0647147670388221
2024-12-07 16:24:07.213415200,0.508415283203125,0.0399473868310451,-0.0219710618257522,-0.0593884475529193
2024-12-07 16:24:07.223443000,0.51844287109375,0.0367515943944454,-0.0102531621232628,-0.0529968664050102
2024-12-07 16:24:07.233470700,0.528470703125,0.0250336956232786,-0.003861580742523,-0.0487358123064041
2024-12-07 16:24:07.243498500,0.53849853515625,0.0037284228019416,0.0046605286188423,-0.032756857573986
2024-12-07 16:24:07.253526300,0.5485263671875,-0.0186421144753694,0.0280963294208049,-0.0167779028415679
2024-12-07 16:24:07.263554000,0.558553955078125,-0.0388821214437484,0.0568584464490413,0.0013315795222297
2024-12-07 16:24:07.273581800,0.568581787109375,-0.0527305491268634,0.084555298089981,0.0194410607218742
2024-12-07 16:24:07.283609600,0.578609619140625,-0.0665789768099784,0.1101216301321983,0.038615807890892
2024-12-07 16:24:07.293637400,0.588637451171875,-0.0740358233451843,0.1218395307660102,0.0535294972360134
2024-12-07 16:24:07.303665200,0.5986650390625,-0.0793621391057968,0.1218395307660102,0.0620516054332256
2024-12-07 16:24:07.313693000,0.60869287109375,-0.0782968774437904,0.112252153456211,0.0588558167219162
2024-12-07 16:24:07.323720400,0.618720458984375,-0.0676442384719848,0.0952079370617866,0.0428768619894981
2024-12-07 16:24:07.333748200,0.628748291015625,-0.0463389679789543,0.06964161247015,0.013049479573965
2024-12-07 16:24:07.343776000,0.63877587890625,-0.0197073780000209,0.0355531722307205,-0.0178431663662195
2024-12-07 16:24:07.353803800,0.6488037109375,0.0090547408908605,-0.0049268445000052,-0.0370179116725921
2024-12-07 16:24:07.363831600,0.65883154296875,0.0367515943944454,-0.054994236677885,-0.0476705469191074
2024-12-07 16:24:07.373859300,0.668859375,0.0601873956620693,-0.0986700430512428,-0.0529968664050102
2024-12-07 16:24:07.383887000,0.67888720703125,0.076166346669197,-0.1221058443188667,-0.0657800287008285
2024-12-07 16:24:07.393915000,0.688914794921875,0.0825579315423965,-0.1263668984174728,-0.0806937217712402
2024-12-07 16:24:07.403942700,0.698942626953125,0.0782968774437904,-0.1434111148118972,-0.0892158299684524
2024-12-07 16:24:07.413970400,0.708970458984375,0.0644484534859657,-0.1711079776287078,-0.0934768840670585
2024-12-07 16:24:07.423998200,0.718998291015625,0.0516652874648571,-0.1945437788963318,-0.0977379381656646
2024-12-07 16:24:07.434026000,0.72902587890625,0.0442084409296512,-0.2147837877273559,-0.1094558387994766
2024-12-07 16:24:07.444053800,0.7390537109375,0.0431431792676448,-0.2392848432064056,-0.1254348009824752
2024-12-07 16:24:07.454081500,0.74908154296875,0.0410126484930515,-0.2744385600090027,-0.1446095407009124
2024-12-07 16:24:07.464109300,0.759109375,0.0399473868310451,-0.3127880394458771,-0.1669800728559494
2024-12-07 16:24:07.474137000,0.76913720703125,0.0367515943944454,-0.3287670016288757,-0.1914811432361602
2024-12-07 16:24:07.484164600,0.77916455078125,0.0506000220775604,-0.3383543491363525,-0.2138516753911972
2024-12-07 16:24:07.494192400,0.7891923828125,0.0751010850071907,-0.3298322558403015,-0.2298306375741958
2024-12-07 16:24:07.504220200,0.79922021484375,0.088949516415596,-0.3085269927978515,-0.2298306375741958
2024-12-07 16:24:07.514248000,0.809248046875,0.1198421567678451,-0.2541985511779785,-0.2127864062786102
2024-12-07 16:24:07.524275700,0.819275634765625,0.132625326514244,-0.3032006621360779,-0.1957421898841858
2024-12-07 16:24:07.534303500,0.829303466796875,0.1272990107536316,-0.3767038583755493,-0.1914811432361602
2024-12-07 16:24:07.544331300,0.839331298828125,0.1230379492044448,-0.3841606974601745,-0.2319611608982086
2024-12-07 16:24:07.554359000,0.849359130859375,0.116646371781826,-0.3767038583755493,-0.2724411785602569
2024-12-07 16:24:07.564386800,0.85938671875,0.0985368862748146,-0.4161186218261719,-0.3022685647010803
2024-12-07 16:24:07.574414600,0.86941455078125,-0.0197073780000209,-0.3649859428405761,-0.4439486265182495
2024-12-07 16:24:07.584442400,0.8794423828125,-0.088949516415596,-0.392682820558548,-0.6026729345321655
2024-12-07 16:24:07.594470100,0.88947021484375,-0.0420779138803482,-0.4278365075588226,-0.4524707198143005
2024-12-07 16:24:07.604498000,0.899497802734375,-0.088949516415596,-0.4842954874038696,-0.3864243924617767
2024-12-07 16:24:07.614525700,0.909525634765625,-0.0985368862748146,-0.4587291479110718,-0.4705802202224731
2024-12-07 16:24:07.624553500,0.919553466796875,-0.0367515943944454,-0.4672512710094452,-0.550475001335144
2024-12-07 16:24:07.634581200,0.929581298828125,-0.0367515943944454,-0.524775505065918,-0.5739107728004456
2024-12-07 16:24:07.644609000,0.939609130859375,-0.0260989591479301,-0.6270408034324646,-0.5696497559547424
2024-12-07 16:24:07.654636800,0.94963671875,0.0516652874648571,-0.6856303215026855,-0.580302357673645
2024-12-07 16:24:07.664664600,0.95966455078125,0.087884247303009,-0.6621944904327393,-0.6026729345321655
2024-12-07 16:24:07.674692400,0.9696923828125,0.0591221302747726,-0.5748428702354431,-0.6090644598007202
2024-12-07 16:24:07.684720000,0.97972021484375,0.0527305491268634,-0.4853607416152954,-0.5739107728004456
2024-12-07 16:24:07.694748200,0.989748046875,0.0335558056831359,-0.4672512710094452,-0.5195823311805725
2024-12-07 16:24:07.704776000,0.99977587890625,-0.0015978955198079,-0.4810996949672699,-0.450340211391449
2024-12-07 16:24:07.714803700,1.0098037109375,-0.0154463229700922,-0.4736428558826446,-0.3672496378421783
2024-12-07 16:24:07.724831500,1.01983154296875,-0.035686332732439,-0.4203796684741974,-0.2724411785602569
2024-12-07 16:24:07.734859300,1.029859375,-0.0442084409296512,-0.3490070104598999,-0.1797632426023483
2024-12-07 16:24:07.744887000,1.039886962890625,-0.0346210673451423,-0.2296974658966064,-0.1062600463628768
2024-12-07 16:24:07.754914800,1.049914794921875,-0.0335558056831359,-0.107192151248455,-0.046605285257101
2024-12-07 16:24:07.764942800,1.05994287109375,-0.0580568686127662,-0.0070573715493083,0.0055926339700818
2024-12-07 16:24:07.774970600,1.069970703125,-0.1017326787114143,0.0675110816955566,0.0535294972360134
2024-12-07 16:24:07.784998400,1.079998291015625,-0.1816274523735046,0.1452753245830536,0.0822916179895401
2024-12-07 16:24:07.795026200,1.090026123046875,-0.2423474788665771,0.1772332340478897,0.0886831954121589
2024-12-07 16:24:07.805054000,1.100053955078125,-0.2434127479791641,0.1889511346817016,0.0961400419473648
2024-12-07 16:24:07.815081700,1.110081787109375,-0.2316948473453521,0.207060620188713,0.0727042406797409
2024-12-07 16:24:07.825109500,1.120109619140625,-0.1890842914581298,0.1846900880336761,0.0322242267429828
2024-12-07 16:24:07.835137500,1.130137451171875,-0.1720400750637054,0.1452753245830536,-0.0103863207623362
2024-12-07 16:24:07.845165300,1.140165283203125,-0.1816274523735046,0.1069258376955986,-0.0434094928205013
2024-12-07 16:24:07.855193000,1.150193115234375,-0.199736937880516,0.0600542388856411,-0.0657800287008285
2024-12-07 16:24:07.865220900,1.160220947265625,-0.2018674612045288,-0.0049268445000052,-0.0732368752360344
2024-12-07 16:24:07.875248600,1.17024853515625,-0.154995858669281,-0.0912131965160369,-0.0828242450952529
2024-12-07 16:24:07.885276400,1.1802763671875,-0.087884247303009,-0.1849564015865326,-0.1318263709545135
2024-12-07 16:24:07.895304200,1.19030419921875,-0.1038632020354271,-0.2499374747276306,-0.1861548274755478
2024-12-07 16:24:07.905332200,1.200332275390625,-0.116646371781826,-0.2904174923896789,-0.2213085144758224
2024-12-07 16:24:07.915360000,1.210360107421875,-0.1198421567678451,-0.2850911915302276,-0.2277000993490219
2024-12-07 16:24:07.925387800,1.2203876953125,-0.1464737504720688,-0.2573943138122558,-0.2191779911518097
2024-12-07 16:24:07.935415600,1.23041552734375,-0.1784316599369049,-0.2659164369106293,-0.193611666560173
2024-12-07 16:24:07.945443300,1.240443359375,-0.2135853618383407,-0.2755038142204284,-0.1637842804193496
2024-12-07 16:24:07.955471000,1.25047119140625,-0.2380864173173904,-0.27763432264328,-0.1510011255741119
2024-12-07 16:24:07.965499000,1.260498779296875,-0.2711096107959747,-0.2946785688400268,-0.1723063886165619
2024-12-07 16:24:07.975527000,1.27052685546875,-0.3041327595710754,-0.3479417264461517,-0.2277000993490219
2024-12-07 16:24:07.985554700,1.2805546875,-0.3339601457118988,-0.3830954432487488,-0.3086601495742798
2024-12-07 16:24:07.995582500,1.29058251953125,-0.3659180700778961,-0.3980091214179992,-0.3736412227153778
2024-12-07 16:24:08.005610200,1.3006103515625,-0.3904191255569458,-0.4001396596431732,-0.3853591084480285
2024-12-07 16:24:08.015638000,1.310637939453125,-0.5203812718391418,-0.3745733201503753,-0.3821633458137512
2024-12-07 16:24:08.025665800,1.320665771484375,-0.6514087319374084,-0.4438154697418213,-0.439687579870224
2024-12-07 16:24:08.035693600,1.330693603515625,-0.7920235395431519,-0.2968090772628784,-0.4311654567718506
2024-12-07 16:24:08.045721600,1.3407216796875,-0.966726779937744,-0.108257420361042,-0.3896201848983764
2024-12-07 16:24:08.055749400,1.350749267578125,-1.1883015632629397,0.0291615929454565,-0.3736412227153778
2024-12-07 16:24:08.065777200,1.360777099609375,-1.520663857460022,0.0866858288645744,-0.393881231546402
2024-12-07 16:24:08.075805000,1.370804931640625,-2.3824620246887207,-0.2552638053894043,-0.6133255362510681
2024-12-07 16:24:08.085832700,1.380832763671875,-2.954508781433105,-0.3415501415729522,-0.6506097912788391
2024-12-07 16:24:08.095860500,1.390860595703125,-3.104710817337036,0.1878858804702758,-0.4876244366168976
2024-12-07 16:24:08.105888300,1.40088818359375,-3.134538173675537,0.8121303915977478,-0.2820285558700561
2024-12-07 16:24:08.115916300,1.410916259765625,-2.980075120925904,1.0219873189926147,-0.1019989922642707
2024-12-07 16:24:08.125944000,1.420944091796875,-2.972618103027344,1.0347704887390137,-0.138217955827713
2024-12-07 16:24:08.135971800,1.430971923828125,-3.070622444152832,0.8004124760627747,-0.2351569533348083
2024-12-07 16:24:08.145999600,1.44099951171875,-3.1430604457855225,0.6502103209495544,-0.2415485233068466
2024-12-07 16:24:08.156027400,1.45102734375,-3.260239362716675,0.7237134575843811,-0.1211737394332885
2024-12-07 16:24:08.166055200,1.46105517578125,-3.2133677005767822,0.8291745781898499,0.0471379160881042
2024-12-07 16:24:08.176083000,1.4710830078125,-2.9087023735046387,0.7034734487533569,0.0631168708205223
2024-12-07 16:24:08.186111000,1.481111083984375,-2.4975106716156006,0.3189133107662201,0.0620516054332256
2024-12-07 16:24:08.196138800,1.491138671875,-1.998967170715332,-0.1284974217414856,0.094009518623352
2024-12-07 16:24:08.206166500,1.50116650390625,-1.6431691646575928,-0.5439502596855164,-0.0071905297227203
2024-12-07 16:24:08.216194300,1.5111943359375,-1.3459606170654297,-0.5695165991783142,-0.1254348009824752
2024-12-07 16:24:08.226222000,1.52122216796875,-0.9571393728256226,-0.4033354520797729,-0.261788547039032
2024-12-07 16:24:08.236249900,1.531249755859375,-0.4894886314868927,-0.2424806356430053,-0.2905506491661072
2024-12-07 16:24:08.246277600,1.541277587890625,0.0367515943944454,0.0078563196584582,-0.181893765926361
2024-12-07 16:24:08.256305700,1.5513056640625,0.662061333656311,0.3327617347240448,-0.060453712940216
2024-12-07 16:24:08.266333400,1.56133349609375,1.1669963598251345,0.5245091915130615,-0.0167779028415679
2024-12-07 16:24:08.276361200,1.571361328125,1.3747227191925049,0.4105259776115417,-0.0508663393557071
2024-12-07 16:24:08.286389000,1.581388916015625,1.235173225402832,0.1154479458928108,-0.0647147670388221
2024-12-07 16:24:08.296416800,1.591416748046875,0.8900277614593506,-0.2531332671642303,0.1025316268205642
2024-12-07 16:24:08.306444500,1.601444580078125,0.4426170289516449,-0.3990744054317474,0.3688475489616394
2024-12-07 16:24:08.316472300,1.611472412109375,-0.037816859781742,-0.1604553312063217,0.6074665784835815
2024-12-07 16:24:08.326500400,1.621500244140625,-0.4095938801765442,0.2326269447803497,0.7800393104553223
2024-12-07 16:24:08.336528100,1.631528076171875,-0.5214465260505676,0.3764375448226928,0.8407593369483948
2024-12-07 16:24:08.346556000,1.641555908203125,-0.4500738978385925,0.3870901763439178,0.8769782781600952
2024-12-07 16:24:08.356583700,1.651583740234375,-0.3424822688102722,0.4893554747104645,0.860999345779419
2024-12-07 16:24:08.366611700,1.66161181640625,-0.1645832359790802,0.652340829372406,0.818388819694519
2024-12-07 16:24:08.376639500,1.671639404296875,-0.0090547408908605,0.7567366361618042,0.8141277432441711
2024-12-07 16:24:08.386667300,1.681667236328125,0.0719052925705909,0.8057388067245483,0.9100014567375184
2024-12-07 16:24:08.396695300,1.6916953125,0.1006674170494079,0.782302975654602,1.0687257051467896
2024-12-07 16:24:08.406723000,1.70172314453125,0.1283642649650573,0.7151913642883301,1.1912310123443604
2024-12-07 16:24:08.416751000,1.711751220703125,0.087884247303009,0.5756418108940125,1.4042837619781494
2024-12-07 16:24:08.426779000,1.72177880859375,-0.021837905049324,0.2549974918365478,1.6002923250198364
2024-12-07 16:24:08.436806700,1.731806640625,-0.0516652874648571,-0.0475373901426792,1.5363764762878418
2024-12-07 16:24:08.446834700,1.741834716796875,0.0814926698803901,-0.0027963169850409,1.3755216598510742
2024-12-07 16:24:08.456862500,1.751862548828125,0.3680485785007477,0.6374271512031555,1.2412984371185305
2024-12-07 16:24:08.466890200,1.76189013671875,0.6705834865570068,1.2084084749221802,1.0016140937805176
2024-12-07 16:24:08.476918300,1.771918212890625,0.8921582698822021,1.276585340499878,0.5499423742294312
2024-12-07 16:24:08.486946000,1.781946044921875,0.9901625514030457,1.0464884042739868,-0.0061252657324075
2024-12-07 16:24:08.496973800,1.791973876953125,0.9773793816566468,0.7034734487533569,-0.4609928429126739
2024-12-07 16:24:08.507001900,1.802001953125,0.89641934633255,0.3306311964988708,-0.6484792232513428
2024-12-07 16:24:08.517029600,1.812029541015625,0.6588655710220337,0.016378428786993,-0.6101297736167908
2024-12-07 16:24:08.527057400,1.822057373046875,0.3339601457118988,-0.1519332230091095,-0.43755704164505
2024-12-07 16:24:08.537085400,1.83208544921875,0.0825579315423965,-0.258459597826004,-0.2852243483066559
2024-12-07 16:24:08.547113200,1.84211328125,-0.0271642226725816,-0.3170490860939026,-0.2010685056447982
2024-12-07 16:24:08.557141000,1.85214111328125,-0.0857537239789962,-0.334093302488327,-0.1723063886165619
2024-12-07 16:24:08.567169000,1.8621689453125,-0.0836231932044029,-0.2265016883611679,-0.1499358564615249
2024-12-07 16:24:08.577196800,1.87219677734375,0.021837905049324,-0.0187752712517976,-0.1115863695740699
2024-12-07 16:24:08.587224600,1.882224609375,0.1187768951058387,0.1101216301321983,-0.098803199827671
2024-12-07 16:24:08.597252600,1.892252685546875,0.1017326787114143,0.1111868917942047,-0.115847423672676
2024-12-07 16:24:08.607280400,1.9022802734375,0.0644484534859657,0.0121173737570643,-0.1115863695740699
2024-12-07 16:24:08.617308200,1.91230810546875,0.0548610761761665,-0.054994236677885,-0.0487358123064041
2024-12-07 16:24:08.627336200,1.922336181640625,0.0484694950282573,-0.108257420361042,0.052464235574007
2024-12-07 16:24:08.637364000,1.932364013671875,0.0431431792676448,-0.1870869249105453,0.1579253375530243
2024-12-07 16:24:08.647391700,1.942391845703125,0.0474042333662509,-0.2648511826992035,0.2527337968349457
2024-12-07 16:24:08.657419800,1.952419677734375,0.0665789768099784,-0.325571209192276,0.3251717388629913
2024-12-07 16:24:08.667447600,1.962447509765625,0.0868189856410026,-0.3862912356853485,0.3720433413982391
2024-12-07 16:24:08.677475600,1.9724755859375,0.104928471148014,-0.4502070546150207,0.4135886132717132
2024-12-07 16:24:08.687503400,1.98250341796875,0.0996021479368209,-0.5386239290237427,0.4530033767223358
2024-12-07 16:24:08.697531100,1.99253125,0.0751010850071907,-0.6323671340942383,0.4956139028072357
2024-12-07 16:24:08.707559200,2.00255908203125,0.049534760415554,-0.6589987277984619,0.5371592044830322
2024-12-07 16:24:08.717587000,2.0125869140625,0.0303600132465362,-0.6685860753059387,0.5424855351448059
2024-12-07 16:24:08.727614700,2.02261474609375,0.0367515943944454,-0.6856303215026855,0.4902876019477844
2024-12-07 16:24:08.737642800,2.032642822265625,0.0836231932044029,-0.6419544816017151,0.4274370372295379
2024-12-07 16:24:08.747670500,2.04267041015625,0.1720400750637054,-0.5428850054740906,0.3731085956096649
2024-12-07 16:24:08.757698300,2.0526982421875,0.2806969583034515,-0.4853607416152954,0.2964096069335937
2024-12-07 16:24:08.767726300,2.062726318359375,0.4117243885993957,-0.5215796828269958,0.1962748318910598
2024-12-07 16:24:08.777754000,2.072754150390625,0.5576655268669128,-0.5897566080093384,0.092944249510765
2024-12-07 16:24:08.787782000,2.082781982421875,0.6940192580223083,-0.721849262714386,0.0183757971972227
2024-12-07 16:24:08.797810000,2.092809814453125,0.7611308693885803,-0.8773777484893799,0.0151800066232681
2024-12-07 16:24:08.807837700,2.102837646484375,0.7643266916275024,-0.9178577661514282,0.0854874104261398
2024-12-07 16:24:08.817865500,2.112865478515625,0.7376950979232788,-0.9732515215873718,0.1419463753700256
2024-12-07 16:24:08.827893500,2.1228935546875,0.6972150802612305,-1.0116009712219238,0.15899059176445
2024-12-07 16:24:08.837921300,2.13292138671875,0.6567350625991821,-0.9668599367141724,0.149403229355812
2024-12-07 16:24:08.847949000,2.142948974609375,0.6183855533599854,-0.8922914862632751,0.1174453198909759
2024-12-07 16:24:08.857977000,2.15297705078125,0.5715139508247375,-0.8102661371231079,0.0503337085247039
2024-12-07 16:24:08.868004900,2.1630048828125,0.5054675936698914,-0.7399587631225586,-0.0402137041091918
2024-12-07 16:24:08.878032600,2.17303271484375,0.4106591343879699,-0.7186535000801086,-0.1243695318698883
2024-12-07 16:24:08.888060400,2.183060302734375,0.3009369671344757,-0.7516766786575317,-0.1797632426023483
2024-12-07 16:24:08.898088200,2.193088134765625,0.198671668767929,-0.804939866065979,-0.2159821987152099
2024-12-07 16:24:08.908116000,2.203115966796875,0.1315600574016571,-0.7740471959114075,-0.2213085144758224
2024-12-07 16:24:08.918143700,2.213143798828125,0.088949516415596,-0.7197187542915344,-0.204264298081398
2024-12-07 16:24:08.928171800,2.223171875,0.061252661049366,-0.6952176690101624,-0.1914811432361602
2024-12-07 16:24:08.938199600,2.233199462890625,0.061252661049366,-0.6621944904327393,-0.19467693567276
2024-12-07 16:24:08.948227300,2.243227294921875,0.0814926698803901,-0.6142576336860657,-0.2074600905179977
2024-12-07 16:24:08.958255000,2.253255126953125,0.1006674170494079,-0.5503418445587158,-0.2223737835884094
2024-12-07 16:24:08.968283000,2.263282958984375,0.0996021479368209,-0.4534028470516205,-0.2735064327716827
2024-12-07 16:24:08.978310700,2.273310546875,0.088949516415596,-0.3308975100517273,-0.3384875357151031
2024-12-07 16:24:08.988338400,2.28333837890625,0.0655137151479721,-0.2328932583332061,-0.3906854391098022
2024-12-07 16:24:08.998366500,2.293366455078125,0.023968432098627,-0.203065887093544,-0.4332959949970245
2024-12-07 16:24:09.008394200,2.303394287109375,-0.0292947497218847,-0.2137185186147689,-0.4812328517436981
2024-12-07 16:24:09.018422000,2.313422119140625,-0.0910800397396087,-0.2254364192485809,-0.5376918315887451
2024-12-07 16:24:09.028449800,2.32344970703125,-0.1933453530073166,-0.3074617087841034,-0.5685844421386719
2024-12-07 16:24:09.038477600,2.3334775390625,-0.3126548826694488,-0.4107922911643982,-0.5014728307723999
2024-12-07 16:24:09.048505300,2.34350537109375,-0.3627222776412964,-0.4203796684741974,-0.3512706756591797
2024-12-07 16:24:09.058533000,2.353533203125,-0.3243727684020996,-0.2062616795301437,-0.182959035038948
2024-12-07 16:24:09.068561200,2.36356103515625,-0.2348906397819519,0.0802942439913749,-0.0668452903628349
2024-12-07 16:24:09.078589000,2.3735888671875,-0.0250336956232786,0.2017343044281005,0.0023968431632965
2024-12-07 16:24:09.088616700,2.38361669921875,0.0825579315423965,0.3348922431468963,0.094009518623352
2024-12-07 16:24:09.098644500,2.39364453125,-0.0154463229700922,0.4797681272029876,0.1376853287220001
2024-12-07 16:24:09.108672300,2.40367236328125,-0.153930589556694,0.4957470595836639,0.1142495274543762
2024-12-07 16:24:09.118700000,2.413699951171875,-0.2572611570358276,0.3519364893436432,0.0173105336725711
2024-12-07 16:24:09.128727800,2.423727783203125,-0.3627222776412964,0.1186437383294105,-0.1435442715883255
2024-12-07 16:24:09.138755800,2.433755859375,-0.4767054915428161,-0.04114580899477,-0.3438138365745544
2024-12-07 16:24:09.148783600,2.44378369140625,-0.5502086877822876,-0.1593900769948959,-0.5142560005187988
2024-12-07 16:24:09.158811400,2.453811279296875,-0.599210798740387,-0.2925480306148529,-0.6197171211242676
2024-12-07 16:24:09.168839200,2.463839111328125,-0.6002760529518127,-0.3735080659389496,-0.6580666303634644
2024-12-07 16:24:09.178867200,2.4738671875,-0.5203812718391418,-0.3607248961925506,-0.6538055539131165
2024-12-07 16:24:09.188895000,2.48389501953125,-0.3818970024585724,-0.246741697192192,-0.638891875743866
2024-12-07 16:24:09.198922800,2.4939228515625,-0.211454838514328,-0.0464721247553825,-0.6186518669128418
2024-12-07 16:24:09.208950800,2.50395068359375,-0.0282294861972332,0.1452753245830536,-0.5621928572654724
2024-12-07 16:24:09.218978600,2.513978515625,0.1123853176832199,0.2539322078227997,-0.4556665122509002
2024-12-07 16:24:09.229006300,2.52400634765625,0.1528653353452682,0.3348922431468963,-0.3310306668281555
2024-12-07 16:24:09.239034400,2.534034423828125,0.1454084813594818,0.3817638456821441,-0.1723063886165619
2024-12-07 16:24:09.249062100,2.544062255859375,0.0836231932044029,0.34021857380867,-0.0316915921866893
2024-12-07 16:24:09.259090000,2.55408984375,-0.0154463229700922,0.1846900880336761,0.0556600242853164
2024-12-07 16:24:09.269118000,2.564117919921875,-0.1198421567678451,-0.027297381311655,0.0844221413135528
2024-12-07 16:24:09.279145700,2.574145751953125,-0.2018674612045288,-0.1945437788963318,0.0599210783839225
2024-12-07 16:24:09.289173800,2.584173828125,-0.2530001103878021,-0.2605901062488556,-0.0210389569401741
2024-12-07 16:24:09.299201500,2.594201416015625,-0.2519348561763763,-0.2744385600090027,-0.1318263709545135
2024-12-07 16:24:09.309229300,2.604229248046875,-0.1656484901905059,-0.314918577671051,-0.2074600905179977
2024-12-07 16:24:09.319257300,2.61425732421875,-0.0846884623169899,-0.3202448785305023,-0.2745717167854309
2024-12-07 16:24:09.329285000,2.62428515625,-0.0154463229700922,-0.2893522381782532,-0.3299654126167297
2024-12-07 16:24:09.339313000,2.63431298828125,0.0431431792676448,-0.2552638053894043,-0.3693801760673523
2024-12-07 16:24:09.349341000,2.6443408203125,0.088949516415596,-0.2424806356430053,-0.3928159773349762
2024-12-07 16:24:09.359368700,2.65436865234375,0.1283642649650573,-0.258459597826004,-0.4013380706310272
2024-12-07 16:24:09.369396500,2.664396484375,0.1518000662326812,-0.2595248520374298,-0.3853591084480285
2024-12-07 16:24:09.379424500,2.674424560546875,0.1475390195846557,-0.2296974658966064,-0.3651190996170044
2024-12-07 16:24:09.389452300,2.684452392578125,0.132625326514244,-0.1785648167133331,-0.3406180441379547
2024-12-07 16:24:09.399480000,2.69447998046875,0.1091895252466201,-0.1444763839244842,-0.3001380264759063
2024-12-07 16:24:09.409508000,2.704508056640625,0.0836231932044029,-0.1316932141780853,-0.2660495936870575
2024-12-07 16:24:09.419536000,2.714535888671875,0.0697747692465782,-0.12423637509346,-0.2404832690954208
2024-12-07 16:24:09.429564000,2.72456396484375,0.0676442384719848,-0.1008005738258361,-0.2170474678277969
2024-12-07 16:24:09.439592000,2.734592041015625,0.0804274082183837,-0.054994236677885,-0.1914811432361602
2024-12-07 16:24:09.449619700,2.74461962890625,0.0996021479368209,-0.0230363253504037,-0.1669800728559494
2024-12-07 16:24:09.459647700,2.754647705078125,0.1241032108664512,-0.0219710618257522,-0.1446095407009124
2024-12-07 16:24:09.469675500,2.764675537109375,0.1262337416410446,-0.0347542278468608,-0.1424790173768997
2024-12-07 16:24:09.479703600,2.77470361328125,0.104928471148014,-0.0677774026989936,-0.1648495495319366
2024-12-07 16:24:09.489731300,2.7847314453125,0.0410126484930515,-0.0933437272906303,-0.2255695760250091
2024-12-07 16:24:09.499759400,2.79475927734375,-0.010120004415512,-0.1625858694314956,-0.2671148478984833
2024-12-07 16:24:09.509787100,2.804787109375,-0.007989477366209,-0.2765690684318542,-0.2649843394756317
2024-12-07 16:24:09.519815200,2.814815185546875,0.0143810594454407,-0.336223840713501,-0.2713759243488312
2024-12-07 16:24:09.529843000,2.824843017578125,0.010120004415512,-0.3436806797981262,-0.2990727722644806
2024-12-07 16:24:09.539871000,2.83487109375,-0.0005326318205334,-0.3277017176151275,-0.3310306668281555
2024-12-07 16:24:09.549899000,2.84489892578125,0.0026631590444594,-0.3511375188827514,-0.3629885911941528
2024-12-07 16:24:09.559926800,2.8549267578125,0.021837905049324,-0.4033354520797729,-0.3789675533771515
2024-12-07 16:24:09.569954800,2.864954833984375,0.0442084409296512,-0.4235754609107971,-0.3800328075885772
2024-12-07 16:24:09.579982600,2.874982666015625,0.0410126484930515,-0.4044007062911987,-0.3928159773349762
2024-12-07 16:24:09.590010600,2.8850107421875,0.0250336956232786,-0.4139880836009979,-0.3906854391098022
2024-12-07 16:24:09.600038400,2.895038330078125,-0.0111852679401636,-0.4225101768970489,-0.3544664680957794
2024-12-07 16:24:09.610066400,2.90506640625,-0.0644484534859657,-0.4139880836009979,-0.2948117256164551
2024-12-07 16:24:09.620094200,2.91509423828125,-0.1145158410072326,-0.3948133289813995,-0.238352745771408
2024-12-07 16:24:09.630122200,2.925122314453125,-0.153930589556694,-0.3660512268543243,-0.2106558829545974
2024-12-07 16:24:09.640150300,2.935150390625,-0.1826927214860916,-0.3245059251785278,-0.2138516753911972
2024-12-07 16:24:09.650178000,2.945177978515625,-0.2018674612045288,-0.2840259075164795,-0.2277000993490219
2024-12-07 16:24:09.660206000,2.9552060546875,-0.2157158851623535,-0.2414153665304184,-0.238352745771408
2024-12-07 16:24:09.670233900,2.96523388671875,-0.2284990549087524,-0.1977395564317703,-0.2404832690954208
2024-12-07 16:24:09.680262000,2.975261962890625,-0.2359558939933776,-0.1647163927555084,-0.2426137924194336
2024-12-07 16:24:09.690289700,2.98528955078125,-0.2423474788665771,-0.1423458606004715,-0.2404832690954208
2024-12-07 16:24:09.700317700,2.995317626953125,-0.2434127479791641,-0.1103879436850547,-0.238352745771408
2024-12-07 16:24:09.710345500,3.005345458984375,-0.2338253706693649,-0.0475373901426792,-0.2394179999828338
2024-12-07 16:24:09.720373200,3.015373291015625,-0.210389569401741,0.046205811202526,-0.2532664239406585
2024-12-07 16:24:09.730401300,3.0254013671875,-0.2082590460777282,0.2049300968647003,-0.2926811873912811
2024-12-07 16:24:09.740429000,3.035428955078125,-0.2327601015567779,0.3583280444145202,-0.3438138365745544
2024-12-07 16:24:09.750456800,3.045456787109375,-0.211454838514328,0.4893554747104645,-0.3299654126167297
2024-12-07 16:24:09.760484900,3.05548486328125,-0.1709748208522796,0.598012387752533,-0.2767022252082824
2024-12-07 16:24:09.770512600,3.0655126953125,-0.1635179668664932,0.6416881680488586,-0.2553969621658325
2024-12-07 16:24:09.780540400,3.07554052734375,-0.1805621832609176,0.6896250247955322,-0.2820285558700561
2024-12-07 16:24:09.790568400,3.085568359375,-0.1837579756975174,0.7045387625694275,-0.3129211962223053
2024-12-07 16:24:09.800596200,3.09559619140625,-0.1869537681341171,0.6768419146537781,-0.3363569974899292
2024-12-07 16:24:09.810624000,3.1056240234375,-0.2018674612045288,0.6693850159645081,-0.3715106844902038
2024-12-07 16:24:09.820652000,3.115652099609375,-0.2615222334861755,0.7343661189079285,-0.4428833723068237
2024-12-07 16:24:09.830679800,3.1256796875,-0.2583264410495758,0.7695198059082031,-0.4418180882930755
2024-12-07 16:24:09.840707600,3.13570751953125,-0.2487390637397766,0.8185219764709473,-0.4354265034198761
2024-12-07 16:24:09.850735600,3.145735595703125,-0.267913818359375,0.8877640962600708,-0.4258391261100769
2024-12-07 16:24:09.860763400,3.155763427734375,-0.3137201368808746,0.9431577920913696,-0.381098061800003
2024-12-07 16:24:09.870791200,3.165791259765625,-0.3755054473876953,0.9527451395988464,-0.3661843836307525
2024-12-07 16:24:09.880819200,3.175819091796875,-0.4266380965709686,0.8504798412322998,-0.3193127810955047
2024-12-07 16:24:09.890847000,3.185846923828125,-0.4607265293598175,0.6587324142456055,-0.2095906287431717
2024-12-07 16:24:09.900875000,3.195875,-0.4617917835712433,0.4680502116680145,-0.1286305785179138
2024-12-07 16:24:09.910902800,3.20590283203125,-0.3946801722049713,0.3412838280200958,-0.137152686715126
2024-12-07 16:24:09.920930600,3.2159306640625,-0.2498043179512024,0.2976080179214477,-0.2266348451375961
2024-12-07 16:24:09.930958600,3.22595849609375,-0.0782968774437904,0.3274354040622711,-0.3470096290111542
2024-12-07 16:24:09.940986400,3.235986328125,0.0814926698803901,0.3689807057380676,-0.4183822870254516
2024-12-07 16:24:09.951014100,3.24601416015625,0.2242379933595657,0.3466101586818695,-0.4183822870254516
2024-12-07 16:24:09.961042200,3.256042236328125,0.3499391078948974,0.2869553864002228,-0.3874896466732025
2024-12-07 16:24:09.971070000,3.266070068359375,0.3797664940357208,0.296542763710022,-0.3619233071804046
2024-12-07 16:24:09.981097700,3.27609765625,0.3105243444442749,0.3487406969070434,-0.2639190554618835
2024-12-07 16:24:09.991125800,3.286125732421875,0.1571263819932937,0.3913512229919433,-0.0625842362642288
2024-12-07 16:24:10.001153500,3.296153564453125,-0.0346210673451423,0.4009386003017425,0.170708492398262
2024-12-07 16:24:10.011181300,3.306181396484375,-0.1880190372467041,0.3817638456821441,0.3826959729194641
2024-12-07 16:24:10.021209300,3.316209228515625,-0.2988064587116241,0.4211786091327667,0.5392897129058838
2024-12-07 16:24:10.031237000,3.326237060546875,-0.3563306927680969,0.4861596822738647,0.6564686894416809
2024-12-07 16:24:10.041265000,3.336264892578125,-0.3733749091625213,0.5202481150627136,0.756603479385376
2024-12-07 16:24:10.051293000,3.34629296875,-0.3584612011909485,0.5032039284706116,0.8439550995826721
2024-12-07 16:24:10.061320700,3.35632080078125,-0.3233075141906738,0.4659196734428406,0.915327787399292
2024-12-07 16:24:10.071348500,3.366348388671875,-0.2753706574440002,0.4105259776115417,0.9792435765266418
2024-12-07 16:24:10.081376500,3.37637646484375,-0.2071937769651413,0.3849596381187439,1.0506162643432615
2024-12-07 16:24:10.091404300,3.386404296875,-0.0996021479368209,0.4392880797386169,1.128380537033081
2024-12-07 16:24:10.101432000,3.39643212890625,0.0303600132465362,0.5596628785133362,1.219993233680725
2024-12-07 16:24:10.111460000,3.406460205078125,0.1390169113874435,0.7460840344429016,1.329715371131897
2024-12-07 16:24:10.121488000,3.41648779296875,0.2530001103878021,0.987898886203766,1.4586122035980225
2024-12-07 16:24:10.131515600,3.426515625,0.341416984796524,1.2616716623306274,1.5715302228927612
2024-12-07 16:24:10.141543700,3.436543701171875,0.397875964641571,1.523726463317871,1.6354459524154663
2024-12-07 16:24:10.151571500,3.446571533203125,0.4010717570781708,1.7431707382202148,1.5992270708084106
2024-12-07 16:24:10.161599500,3.456599609375,0.3701791167259216,1.8571540117263792,1.451155424118042
2024-12-07 16:24:10.171627300,3.466627197265625,0.397875964641571,1.812412977218628,1.2487553358078003
2024-12-07 16:24:10.181655000,3.476655029296875,0.4223770201206207,1.6313180923461914,1.0623341798782349
2024-12-07 16:24:10.191683000,3.48668310546875,0.3818970024585724,1.3032169342041016,0.9494162201881408
2024-12-07 16:24:10.201710800,3.4967109375,0.2892190814018249,0.8355661630630493,0.9046751260757446
2024-12-07 16:24:10.211738600,3.506738525390625,0.1699095517396927,0.2209090441465377,0.9249151349067688
2024-12-07 16:24:10.221766700,3.5167666015625,0.076166346669197,-0.4906870722770691,1.0175931453704834
2024-12-07 16:24:10.231794400,3.52679443359375,-0.0165115855634212,-1.1287800073623655,1.1379679441452026
2024-12-07 16:24:10.241822200,3.536822265625,-0.1347558498382568,-1.5378412008285522,1.2391679286956787
2024-12-07 16:24:10.251850200,3.546850341796875,-0.2284990549087524,-1.5921696424484253,1.2945616245269775
2024-12-07 16:24:10.261878000,3.5568779296875,-0.2775011658668518,-1.3546159267425537,1.296692132949829
2024-12-07 16:24:10.271905800,3.56690576171875,-0.287088543176651,-0.993491530418396,1.1891005039215088
2024-12-07 16:24:10.281933800,3.576933837890625,-0.2444780021905899,-0.7388935089111328,0.9728519916534424
2024-12-07 16:24:10.291961600,3.586961669921875,-0.1241032108664512,-0.6334323883056641,0.7576687932014465
2024-12-07 16:24:10.301989400,3.5969892578125,0.0591221302747726,-0.5567334294319153,0.6085318326950073
2024-12-07 16:24:10.312017400,3.607017333984375,0.2444780021905899,-0.4299670457839966,0.5137233734130859
2024-12-07 16:24:10.322045200,3.617045166015625,0.4053328037261963,-0.2051964104175567,0.4380896687507629
2024-12-07 16:24:10.332073000,3.627072998046875,0.5523391962051392,0.018508955836296,0.3411506712436676
2024-12-07 16:24:10.342101000,3.63710107421875,0.7025413513183594,0.1101216301321983,0.2090579867362976
2024-12-07 16:24:10.352128800,3.647128662109375,0.8271772265434265,0.0877510905265808,0.066312663257122
2024-12-07 16:24:10.362156500,3.657156494140625,0.9134635925292968,0.0142479008063673,-0.060453712940216
2024-12-07 16:24:10.372184600,3.6671845703125,0.972053050994873,-0.1263668984174728,-0.1797632426023483
2024-12-07 16:24:10.382212400,3.67721240234375,0.9944236278533936,-0.336223840713501,-0.2948117256164551
2024-12-07 16:24:10.392240000,3.687240234375,0.98909729719162,-0.524775505065918,-0.3842938542366028
2024-12-07 16:24:10.402268200,3.69726806640625,0.9709877967834472,-0.6611292362213135,-0.4279696643352508
2024-12-07 16:24:10.412296000,3.7072958984375,0.9315730333328248,-0.7687208652496338,-0.4237086176872253
2024-12-07 16:24:10.422324000,3.717323974609375,0.8804404139518738,-0.7964177131652832,-0.3608580529689789
2024-12-07 16:24:10.432351700,3.727351806640625,0.8388951420783997,-0.7697861194610596,-0.2458095848560333
2024-12-07 16:24:10.442379500,3.737379638671875,0.8133288025856018,-0.7261103391647339,-0.0924116224050521
2024-12-07 16:24:10.452407600,3.747407470703125,0.7866972088813782,-0.6430197358131409,0.0822916179895401
2024-12-07 16:24:10.462435300,3.757435302734375,0.7408908605575562,-0.4704470634460449,0.237820103764534
2024-12-07 16:24:10.472463000,3.767463134765625,0.6876276731491089,-0.2755038142204284,0.3752391040325165
2024-12-07 16:24:10.482491100,3.7774912109375,0.623711884021759,-0.1221058443188667,0.492418110370636
2024-12-07 16:24:10.492519000,3.787518798828125,0.5289034247398376,-0.0901479348540306,0.5914876461029053
2024-12-07 16:24:10.502546700,3.797546630859375,0.4095938801765442,-0.1956090331077575,0.668186604976654
2024-12-07 16:24:10.512574700,3.80757470703125,0.2796317040920257,-0.3181143403053283,0.7299718856811523
2024-12-07 16:24:10.522602500,3.8176025390625,0.1603221744298935,-0.3916175365447998,0.7747129797935486
2024-12-07 16:24:10.532630300,3.82763037109375,0.0399473868310451,-0.3969438672065735,0.7832350730895996
2024-12-07 16:24:10.542658300,3.837658203125,-0.077231615781784,-0.3394196331501007,0.7459508776664734
2024-12-07 16:24:10.552686000,3.84768603515625,-0.143277958035469,-0.3266364634037018,0.668186604976654
2024-12-07 16:24:10.562713900,3.8577138671875,-0.1720400750637054,-0.3585943877696991,0.5691171288490295
2024-12-07 16:24:10.572742000,3.867741943359375,-0.1837579756975174,-0.4044007062911987,0.4657865166664123
2024-12-07 16:24:10.582769700,3.877769775390625,-0.1763011366128921,-0.4597944319248199,0.3432812094688415
2024-12-07 16:24:10.592797400,3.88779736328125,-0.1486042737960815,-0.4938828647136688,0.2047969400882721
2024-12-07 16:24:10.602825500,3.897825439453125,-0.1006674170494079,-0.4842954874038696,0.0790958255529403
2024-12-07 16:24:10.612853200,3.907853271484375,-0.037816859781742,-0.444880723953247,-0.0221042204648256
2024-12-07 16:24:10.622881000,3.917881103515625,0.049534760415554,-0.3777691125869751,-0.110521100461483
2024-12-07 16:24:10.632909000,3.927908935546875,0.1379516422748565,-0.2872216999530792,-0.1669800728559494
2024-12-07 16:24:10.642936800,3.937936767578125,0.2284990549087524,-0.1380847990512848,-0.1850895583629608
2024-12-07 16:24:10.652964600,3.947964599609375,0.3137201368808746,0.0792289823293685,-0.1648495495319366
2024-12-07 16:24:10.662992600,3.95799267578125,0.3808317482471466,0.2699111700057983,-0.1243695318698883
2024-12-07 16:24:10.673020400,3.9680205078125,0.4585959911346435,0.4020038545131683,-0.0860200375318527
2024-12-07 16:24:10.683048200,3.978048095703125,0.5267728567123413,0.3892207145690918,-0.0668452903628349
2024-12-07 16:24:10.693076000,3.988075927734375,0.540621280670166,0.2454101145267486,-0.0689758211374282
2024-12-07 16:24:10.703103700,3.998103759765625,0.5054675936698914,0.0536626577377319,-0.0860200375318527
2024-12-07 16:24:10.713131500,4.008131591796875,0.4458128213882446,-0.118910051882267,-0.0966726765036583
2024-12-07 16:24:10.723159300,4.0181591796875,0.3755054473876953,-0.2190448343753814,-0.088150568306446
2024-12-07 16:24:10.733187300,4.028187255859375,0.2913496196269989,-0.2808301150798797,-0.0902810916304588
2024-12-07 16:24:10.743215000,4.038215087890625,0.2167811542749405,-0.3404848873615265,-0.1254348009824752
2024-12-07 16:24:10.753243000,4.048242919921875,0.1699095517396927,-0.3969438672065735,-0.2085253596305847
2024-12-07 16:24:10.763270700,4.058270751953125,0.1518000662326812,-0.4427502155303955,-0.3310306668281555
2024-12-07 16:24:10.773298400,4.06829833984375,0.1347558498382568,-0.4235754609107971,-0.4631233811378479
2024-12-07 16:24:10.783326200,4.078326171875,0.0964063629508018,-0.3245059251785278,-0.601607620716095
2024-12-07 16:24:10.793354000,4.08835400390625,0.0314252786338329,-0.2041311413049698,-0.7400919198989868
2024-12-07 16:24:10.803382000,4.098382080078125,-0.0282294861972332,-0.0922784656286239,-0.8881635665893555
2024-12-07 16:24:10.813409800,4.108409912109375,-0.1134505793452262,-0.0006657897611148,-1.0522141456604004
2024-12-07 16:24:10.823437600,4.1184375,-0.2370211631059646,0.0632500275969505,-1.2120037078857422
2024-12-07 16:24:10.833465300,4.12846533203125,-0.3712443709373474,0.0472710728645324,-1.3451616764068604
2024-12-07 16:24:10.843493000,4.1384931640625,-0.4958802163600921,-0.0635163411498069,-1.420795440673828
2024-12-07 16:24:10.853521000,4.14852099609375,-0.636495053768158,-0.2350237965583801,-1.3920332193374634
2024-12-07 16:24:10.863548700,4.158548583984375,-0.8229161500930786,-0.4416849315166473,-1.207742691040039
2024-12-07 16:24:10.873576700,4.16857666015625,-0.8772445917129517,-0.5109270811080933,-0.8455530405044556
2024-12-07 16:24:10.883604500,4.1786044921875,-0.6865624189376831,-0.5311670899391174,-0.3842938542366028
2024-12-07 16:24:10.893632300,4.18863232421875,-0.1848232448101043,-0.5844302773475647,0.0375505425035953
2024-12-07 16:24:10.903660000,4.198659912109375,0.3339601457118988,-0.5407544374465942,0.2633864283561706
2024-12-07 16:24:10.913687800,4.208687744140625,0.4958802163600921,-0.5045354962348938,0.2229064106941223
2024-12-07 16:24:10.923715600,4.218715576171875,0.6141244769096375,-0.4438154697418213,0.1195758432149887
2024-12-07 16:24:10.933743400,4.228743408203125,0.7376950979232788,-0.3788343966007232,0.0737695097923278
2024-12-07 16:24:10.943771400,4.238771484375,0.8026761412620544,-0.3649859428405761,0.0759000331163406
2024-12-07 16:24:10.953799200,4.248799072265625,0.7494129538536072,-0.4214449226856231,0.076965294778347
2024-12-07 16:24:10.963827000,4.258826904296875,0.5725792050361633,-0.4225101768970489,0.0780305638909339
2024-12-07 16:24:10.973854700,4.268854736328125,0.3147853910923004,-0.2637858986854553,0.0716389790177345
2024-12-07 16:24:10.983882500,4.278882568359375,0.0069242138415575,0.0153131652623415,0.0354200154542923
2024-12-07 16:24:10.993910300,4.28891015625,-0.2806969583034515,0.2667153775691986,-0.0348873846232891
2024-12-07 16:24:11.003938000,4.29893798828125,-0.4862928390502929,0.3530017435550689,-0.1957421898841858
2024-12-07 16:24:11.013966000,4.308966064453125,-0.6801708340644836,0.331696480512619,-0.4119907021522522
2024-12-07 16:24:11.023993900,4.318993896484375,-0.9028109312057496,0.3391533195972442,-0.5909550189971924
2024-12-07 16:24:11.034021600,4.329021728515625,-1.0871015787124634,0.2400837987661361,-0.7411571741104126
2024-12-07 16:24:11.044049400,4.33904931640625,-1.2468911409378052,0.0504668653011322,-0.8412919640541077
2024-12-07 16:24:11.054077200,4.3490771484375,-1.3289164304733276,-0.2062616795301437,-0.8455530405044556
2024-12-07 16:24:11.064105000,4.35910498046875,-1.2958931922912598,-0.5844302773475647,-0.7400919198989868
2024-12-07 16:24:11.074132700,4.3691328125,-1.2074763774871826,-0.9146620035171508,-0.6133255362510681
2024-12-07 16:24:11.084160800,4.379160888671875,-1.0242509841918943,-1.0190578699111938,-0.5376918315887451
2024-12-07 16:24:11.094188500,4.3891884765625,-0.7163897752761841,-0.8294408917427063,-0.5153213143348694
2024-12-07 16:24:11.104216300,4.39921630859375,-0.3403517305850982,-0.4523375630378723,-0.513190746307373
2024-12-07 16:24:11.114244000,4.409244140625,0.007989477366209,-0.0486026518046855,-0.5451486706733704
2024-12-07 16:24:11.124271900,4.41927197265625,0.2583264410495758,0.3050648868083954,-0.5685844421386719
2024-12-07 16:24:11.134299600,4.429299560546875,0.3818970024585724,0.5319660305976868,-0.5195823311805725
2024-12-07 16:24:11.144327400,4.439327392578125,0.3925496637821197,0.6257092356681824,-0.4428833723068237
2024-12-07 16:24:11.154355500,4.44935546875,0.3595264852046966,0.560728132724762,-0.3896201848983764
2024-12-07 16:24:11.164383200,4.45938330078125,0.3552654385566711,0.4041343927383423,-0.3747064769268036
2024-12-07 16:24:11.174411000,4.469410888671875,0.354200154542923,0.2273006290197372,-0.4013380706310272
2024-12-07 16:24:11.184438800,4.479438720703125,0.2838927507400512,0.0366184376180172,-0.4620580971240997
2024-12-07 16:24:11.194466800,4.489466796875,0.2402169555425644,-0.1093226820230484,-0.5142560005187988
2024-12-07 16:24:11.204494600,4.49949462890625,0.1773663908243179,-0.1593900769948959,-0.5398223400115967
2024-12-07 16:24:11.214522400,4.5095224609375,0.1283642649650573,-0.09653951972723,-0.5462139248847961
2024-12-07 16:24:11.224550400,4.51955029296875,0.0782968774437904,-0.0027963169850409,-0.5494097471237183
2024-12-07 16:24:11.234578200,4.529578125,0.049534760415554,0.085620567202568,-0.5323655009269714
2024-12-07 16:24:11.244606000,4.53960595703125,0.035686332732439,0.1324921697378158,-0.4993423223495483
2024-12-07 16:24:11.254634000,4.549634033203125,0.0005326318205334,0.1207742616534233,-0.4609928429126739
2024-12-07 16:24:11.264661800,4.559661865234375,-0.061252661049366,0.0760331898927688,-0.4311654567718506
2024-12-07 16:24:11.274689500,4.569689453125,-0.1315600574016571,0.068576343357563,-0.4109254479408264
2024-12-07 16:24:11.284717600,4.579717529296875,-0.1805621832609176,0.1399490088224411,-0.3981422781944275
2024-12-07 16:24:11.294745300,4.589745361328125,-0.1773663908243179,0.3103911876678467,-0.3747064769268036
2024-12-07 16:24:11.304773000,4.599773193359375,-0.1198421567678451,0.5500755310058594,-0.3310306668281555
2024-12-07 16:24:11.314801200,4.60980126953125,-0.0335558056831359,0.7876293063163757,-0.2756369709968567
2024-12-07 16:24:11.324829000,4.619828857421875,0.010120004415512,0.8930904269218445,-0.2404832690954208
2024-12-07 16:24:11.334856700,4.629856689453125,0.0058589498512446,0.8611325025558472,-0.251135915517807
2024-12-07 16:24:11.344884700,4.639884765625,0.0303600132465362,0.7684545516967773,-0.280963271856308
2024-12-07 16:24:11.354912500,4.64991259765625,0.0591221302747726,0.6384924054145813,-0.3257043659687042
2024-12-07 16:24:11.364940300,4.659940185546875,0.0708400309085846,0.4957470595836639,-0.3757717609405517
2024-12-07 16:24:11.374968300,4.66996826171875,0.0751010850071907,0.3285006880760193,-0.4034686088562011
2024-12-07 16:24:11.384996000,4.67999609375,0.0644484534859657,0.1676458716392517,-0.4077296555042267
2024-12-07 16:24:11.395024100,4.690024169921875,0.0463389679789543,0.0408794917166233,-0.4024033546447754
2024-12-07 16:24:11.405052000,4.700052001953125,-0.0005326318205334,-0.0187752712517976,-0.4130559861660003
2024-12-07 16:24:11.415079700,4.71007958984375,-0.0015978955198079,0.018508955836296,-0.3906854391098022
2024-12-07 16:24:11.425107700,4.720107666015625,0.0346210673451423,0.1431448012590408,-0.3565970063209533
2024-12-07 16:24:11.435135500,4.730135498046875,0.0580568686127662,0.3338269889354706,-0.3534012138843536
2024-12-07 16:24:11.445163300,4.740163330078125,0.0782968774437904,0.52237868309021,-0.3672496378421783
2024-12-07 16:24:11.455191300,4.75019140625,0.0197073780000209,0.6363618969917297,-0.4247738718986511
2024-12-07 16:24:11.465219000,4.760218994140625,-0.0303600132465362,0.6118608117103577,-0.4524707198143005
2024-12-07 16:24:11.475246800,4.770246826171875,0.0026631590444594,0.52237868309021,-0.3565970063209533
2024-12-07 16:24:11.485274600,4.780274658203125,-0.0452737063169479,0.3476754128932953,-0.2692453861236572
2024-12-07 16:24:11.495302400,4.790302490234375,-0.1006674170494079,0.294412225484848,-0.247940108180046
2024-12-07 16:24:11.505330200,4.800330078125,-0.0910800397396087,0.3444796204566955,-0.249005377292633
2024-12-07 16:24:11.515358200,4.810358154296875,-0.0910800397396087,0.3561975359916687,-0.2575274705886841
2024-12-07 16:24:11.525386000,4.820385986328125,-0.0825579315423965,0.329565942287445,-0.2639190554618835
2024-12-07 16:24:11.535413800,4.830413818359375,-0.0814926698803901,0.3178480267524719,-0.2713759243488312
2024-12-07 16:24:11.545441500,4.840441650390625,-0.1304948031902313,0.2848248779773712,-0.3363569974899292
2024-12-07 16:24:11.555469300,4.85046923828125,-0.1518000662326812,0.2017343044281005,-0.4077296555042267
2024-12-07 16:24:11.565497000,4.8604970703125,-0.144343227148056,0.1186437383294105,-0.4013380706310272
2024-12-07 16:24:11.575524900,4.87052490234375,-0.1571263819932937,0.0632500275969505,-0.3406180441379547
2024-12-07 16:24:11.585552600,4.880552734375,-0.1571263819932937,0.0483363382518291,-0.280963271856308
2024-12-07 16:24:11.595580400,4.890580322265625,-0.1390169113874435,0.085620567202568,-0.2585927546024322
2024-12-07 16:24:11.605608200,4.900608154296875,-0.0868189856410026,0.1868206113576889,-0.2575274705886841
2024-12-07 16:24:11.615636000,4.910635986328125,-0.0143810594454407,0.3167827725410461,-0.2649843394756317
2024-12-07 16:24:11.625663700,4.920663818359375,0.0548610761761665,0.4254396557807922,-0.2894853949546814
2024-12-07 16:24:11.635691500,4.93069140625,0.0964063629508018,0.509595513343811,-0.3470096290111542
2024-12-07 16:24:11.645719300,4.94071923828125,0.1198421567678451,0.5490102767944336,-0.4119907021522522
2024-12-07 16:24:11.655747000,4.9507470703125,0.0996021479368209,0.5458144545555115,-0.4418180882930755
2024-12-07 16:24:11.665774800,4.96077490234375,0.0367515943944454,0.5990776419639587,-0.4428833723068237
2024-12-07 16:24:11.675802600,4.970802734375,-0.0431431792676448,0.6086649894714355,-0.4087949097156524
2024-12-07 16:24:11.685830400,4.980830322265625,-0.1709748208522796,0.6086649894714355,-0.3949464857578277
2024-12-07 16:24:11.695858200,4.990858154296875,-0.2796317040920257,0.5436839461326599,-0.3747064769268036
2024-12-07 16:24:11.705886000,5.000885986328125,-0.3169159293174743,0.4009386003017425,-0.3203780353069305
2024-12-07 16:24:11.715913700,5.010913818359375,-0.3265033066272735,0.3285006880760193,-0.2777675092220306
2024-12-07 16:24:11.725941500,5.02094140625,-0.3062632977962494,0.3178480267524719,-0.2735064327716827
2024-12-07 16:24:11.735969300,5.03096923828125,-0.2380864173173904,0.3455449044704437,-0.3001380264759063
2024-12-07 16:24:11.745996800,5.040996826171875,-0.1880190372467041,0.4265049397945404,-0.3512706756591797
2024-12-07 16:24:11.756024600,5.051024658203125,-0.144343227148056,0.5319660305976868,-0.3960117697715759
2024-12-07 16:24:11.766052400,5.06105224609375,-0.1624527126550674,0.643818736076355,-0.4492749273777008
2024-12-07 16:24:11.776080100,5.071080078125,-0.1560611277818679,0.710930347442627,-0.4471444189548492
2024-12-07 16:24:11.786108000,5.08110791015625,-0.144343227148056,0.7311703562736511,-0.4013380706310272
2024-12-07 16:24:11.796135700,5.0911357421875,-0.1581916511058807,0.7247787714004517,-0.3491401672363281
2024-12-07 16:24:11.806163500,5.10116357421875,-0.2306295782327652,0.7098650336265564,-0.3214432895183563
2024-12-07 16:24:11.816191200,5.111191162109375,-0.3744401633739471,0.7098650336265564,-0.3235738277435303
2024-12-07 16:24:11.826219000,5.121218994140625,-0.5075981020927429,0.6619281768798828,-0.2585927546024322
2024-12-07 16:24:11.836246800,5.131246826171875,-0.4884233772754669,0.5404881238937378,-0.0753674060106277
2024-12-07 16:24:11.846274600,5.141274658203125,-0.4042675495147705,0.4328965246677398,0.0918789878487587
2024-12-07 16:24:11.856302300,5.15130224609375,-0.2775011658668518,0.3721764981746673,0.1376853287220001
2024-12-07 16:24:11.866330000,5.161330078125,-0.087884247303009,0.3934817612171173,0.0812263563275337
2024-12-07 16:24:11.876358000,5.17135791015625,0.1187768951058387,0.4893554747104645,0.0482031814754009
2024-12-07 16:24:11.886385700,5.1813857421875,0.2359558939933776,0.539422869682312,0.0972053036093711
2024-12-07 16:24:11.896413400,5.191413330078125,0.2380864173173904,0.4712460041046142,0.216514840722084
2024-12-07 16:24:11.906441200,5.201441162109375,0.1720400750637054,0.329565942287445,0.3976096510887146
2024-12-07 16:24:11.916469000,5.211468994140625,0.0719052925705909,0.2422143220901489,0.5914876461029053
2024-12-07 16:24:11.926496800,5.221496826171875,-0.0186421144753694,0.2230395674705505,0.7491466403007507
2024-12-07 16:24:11.936524500,5.231524658203125,-0.0751010850071907,0.2134522050619125,0.8641951084136963
2024-12-07 16:24:11.946552300,5.24155224609375,-0.1006674170494079,0.2368880063295364,0.9632646441459656
2024-12-07 16:24:11.956580400,5.251580322265625,-0.104928471148014,0.3199785649776459,1.0847047567367554
2024-12-07 16:24:11.966608100,5.261608154296875,-0.1017326787114143,0.4446144104003906,1.2221237421035769
2024-12-07 16:24:11.976636000,5.271635986328125,-0.0953410938382148,0.5692502856254578,1.3478248119354248
2024-12-07 16:24:11.986663700,5.28166357421875,-0.0868189856410026,0.6800376772880554,1.4532859325408936
2024-12-07 16:24:11.996691500,5.29169140625,-0.0697747692465782,0.7918903827667236,1.540637493133545
2024-12-07 16:24:12.006719200,5.30171923828125,-0.0516652874648571,0.9111998677253724,1.61946702003479
2024-12-07 16:24:12.016747000,5.3117470703125,-0.0271642226725816,0.992159903049469,1.6951007843017578
2024-12-07 16:24:12.026775000,5.321775146484375,-0.0037284228019416,1.055010437965393,1.756886005401611
2024-12-07 16:24:12.036802800,5.331802734375,0.0271642226725816,1.1199915409088137,1.785648226737976
2024-12-07 16:24:12.046830600,5.34183056640625,0.0601873956620693,1.142362117767334,1.7888439893722534
2024-12-07 16:24:12.056858400,5.3518583984375,0.0782968774437904,1.0273135900497437,1.7760608196258545
2024-12-07 16:24:12.066886100,5.36188623046875,0.104928471148014,0.8398272395133972,1.744102954864502
2024-12-07 16:24:12.076914000,5.371913818359375,0.1688442826271057,0.6832334399223328,1.6897743940353394
2024-12-07 16:24:12.086941700,5.381941650390625,0.2604569494724273,0.5916208028793335,1.5928354263305664
2024-12-07 16:24:12.096969700,5.3919697265625,0.3499391078948974,0.5490102767944336,1.4522206783294678
2024-12-07 16:24:12.106997500,5.40199755859375,0.3957454562187195,0.547944962978363,1.2913658618927002
2024-12-07 16:24:12.117025300,5.412025390625,0.3861580789089203,0.5916208028793335,1.1496857404708862
2024-12-07 16:24:12.127053000,5.422052978515625,0.3595264852046966,0.5948165655136108,1.0229194164276123
2024-12-07 16:24:12.137080800,5.432080810546875,0.3488738536834717,0.585229218006134,0.91213196516037
2024-12-07 16:24:12.147108600,5.442108642578125,0.3648527860641479,0.5575323700904846,0.8215845823287964
2024-12-07 16:24:12.157136400,5.452136474609375,0.4127896726131439,0.4936165511608124,0.7576687932014465
2024-12-07 16:24:12.167164400,5.462164306640625,0.4777707457542419,0.407330185174942,0.7459508776664734
2024-12-07 16:24:12.177192200,5.472192138671875,0.5544697046279907,0.294412225484848,0.7597993016242981
2024-12-07 16:24:12.187220000,5.482219970703125,0.6375603079795837,0.1388837546110153,0.7704519033432007
2024-12-07 16:24:12.197247700,5.492247802734375,0.6918887495994568,-0.0177100077271461,0.7757782340049744
2024-12-07 16:24:12.207275500,5.502275634765625,0.7174550890922546,-0.1636511236429214,0.7757782340049744
2024-12-07 16:24:12.217303300,5.51230322265625,0.7217161059379578,-0.2968090772628784,0.7544729709625244
2024-12-07 16:24:12.227331000,5.5223310546875,0.7142592668533325,-0.4267712533473968,0.7150582075119019
2024-12-07 16:24:12.237359000,5.532359130859375,0.6886929273605347,-0.4981439113616943,0.6575340032577515
2024-12-07 16:24:12.247387000,5.542386962890625,0.6503434777259827,-0.5077312588691711,0.6106624007225037
2024-12-07 16:24:12.257414700,5.55241455078125,0.5896234512329102,-0.503470242023468,0.5946834087371826
2024-12-07 16:24:12.267442400,5.5624423828125,0.510793924331665,-0.4747081100940704,0.5723128914833069
2024-12-07 16:24:12.277470200,5.57247021484375,0.4351601898670196,-0.4161186218261719,0.5115928649902344
2024-12-07 16:24:12.287498000,5.582498046875,0.3648527860641479,-0.3830954432487488,0.435959130525589
2024-12-07 16:24:12.297525800,5.59252587890625,0.311589628458023,-0.4139880836009979,0.3784348964691162
2024-12-07 16:24:12.307553800,5.6025537109375,0.2849580347537994,-0.4406196773052215,0.3411506712436676
2024-12-07 16:24:12.317581600,5.61258154296875,0.2434127479791641,-0.4246407151222229,0.2985401451587677
2024-12-07 16:24:12.327609300,5.622609375,0.1603221744298935,-0.4033354520797729,0.2367548495531082
2024-12-07 16:24:12.337637000,5.63263720703125,0.0655137151479721,-0.3266364634037018,0.160055860877037
2024-12-07 16:24:12.347665000,5.642664794921875,-0.0271642226725816,-0.2414153665304184,0.076965294778347
2024-12-07 16:24:12.357692700,5.652692626953125,-0.1134505793452262,-0.2051964104175567,0.0205063242465257
2024-12-07 16:24:12.367720400,5.662720458984375,-0.1816274523735046,-0.2307627350091934,0.0098536890000104
2024-12-07 16:24:12.377748200,5.672748291015625,-0.2221074700355529,-0.2872216999530792,0.02689790725708
2024-12-07 16:24:12.387776000,5.68277587890625,-0.2498043179512024,-0.3351585865020752,0.0290284343063831
2024-12-07 16:24:12.397803800,5.6928037109375,-0.2753706574440002,-0.3820301592350006,0.0034621069207787
2024-12-07 16:24:12.407831600,5.70283154296875,-0.3073285520076751,-0.4320975542068481,-0.0434094928205013
2024-12-07 16:24:12.417859300,5.712859375,-0.341416984796524,-0.4683165252208709,-0.1062600463628768
2024-12-07 16:24:12.427887000,5.72288720703125,-0.3616569936275482,-0.4810996949672699,-0.1595232337713241
2024-12-07 16:24:12.437915000,5.732914794921875,-0.3691138625144958,-0.4810996949672699,-0.1968074589967727
2024-12-07 16:24:12.447942700,5.742942626953125,-0.3712443709373474,-0.4715123176574707,-0.2245043069124221
2024-12-07 16:24:12.457970400,5.752970458984375,-0.3723096549510956,-0.4512723088264465,-0.2522011697292328
2024-12-07 16:24:12.467998200,5.762998291015625,-0.3595264852046966,-0.4502070546150207,-0.2830938100814819
2024-12-07 16:24:12.478026000,5.77302587890625,-0.3296990990638733,-0.4747081100940704,-0.3129211962223053
2024-12-07 16:24:12.488053800,5.7830537109375,-0.2806969583034515,-0.5087965726852417,-0.3406180441379547
2024-12-07 16:24:12.498081300,5.793081298828125,-0.2316948473453521,-0.54927659034729,-0.372575968503952
2024-12-07 16:24:12.508109000,5.803109130859375,-0.1880190372467041,-0.5844302773475647,-0.4098601937294006
2024-12-07 16:24:12.518136800,5.81313671875,-0.1368863731622696,-0.6344976425170898,-0.4450138807296753
2024-12-07 16:24:12.528164600,5.82316455078125,-0.0729705616831779,-0.7271755933761597,-0.4801675975322723
2024-12-07 16:24:12.538192400,5.8331923828125,0.0058589498512446,-0.8422240614891052,-0.5238434076309204
2024-12-07 16:24:12.548220200,5.84322021484375,0.0687095075845718,-0.9370325207710266,-0.5526055097579956
2024-12-07 16:24:12.558248000,5.853248046875,0.1038632020354271,-1.0041441917419434,-0.5270391702651978
2024-12-07 16:24:12.568275700,5.863275634765625,0.1411474347114563,-1.0094704627990725,-0.4119907021522522
2024-12-07 16:24:12.578303500,5.873303466796875,0.2189116775989532,-0.9306409358978271,-0.2372874766588211
2024-12-07 16:24:12.588331300,5.883331298828125,0.3286338448524475,-0.7623292803764343,-0.0657800287008285
2024-12-07 16:24:12.598359000,5.893359130859375,0.408528596162796,-0.5375586748123169,0.0567252896726131
2024-12-07 16:24:12.608386800,5.90338671875,0.4202465116977691,-0.3958786129951477,0.1185105815529823
2024-12-07 16:24:12.618414600,5.91341455078125,0.3563306927680969,-0.3958786129951477,0.1525990217924118
2024-12-07 16:24:12.628442400,5.9234423828125,0.2647180259227752,-0.3894870281219482,0.1653821766376495
2024-12-07 16:24:12.638470100,5.93347021484375,0.1507348120212555,-0.3063964545726776,0.1323590129613876
2024-12-07 16:24:12.648498000,5.943497802734375,0.0207726415246725,-0.2424806356430053,0.0183757971972227
2024-12-07 16:24:12.658525400,5.953525390625,-0.1123853176832199,-0.336223840713501,-0.1797632426023483
2024-12-07 16:24:12.668553200,5.96355322265625,-0.2817622423171997,-0.5311670899391174,-0.4183822870254516
2024-12-07 16:24:12.678581000,5.9735810546875,-0.4820317924022674,-0.6579334735870361,-0.6676539778709412
2024-12-07 16:24:12.688608800,5.98360888671875,-0.6705834865570068,-0.6366282105445862,-0.906273066997528
2024-12-07 16:24:12.698636500,5.993636474609375,-0.8101329803466797,-0.5258407592773438,-1.0575405359268188
2024-12-07 16:24:12.708664300,6.003664306640625,-0.9081372618675232,-0.503470242023468,-1.0596710443496704
2024-12-07 16:24:12.718692000,6.013692138671875,-0.9603351950645448,-0.7069355845451355,-0.945687770843506
2024-12-07 16:24:12.728720000,6.023719970703125,-0.871918261051178,-1.0691251754760742,-0.7454182505607605
2024-12-07 16:24:12.738747600,6.03374755859375,-0.6578003168106079,-1.4579464197158811,-0.4801675975322723
2024-12-07 16:24:12.748775400,6.043775390625,-0.2934801280498504,-1.4877737760543823,-0.1616537570953369
2024-12-07 16:24:12.758803200,6.05380322265625,-0.0420779138803482,-0.9807083606719972,0.1525990217924118
2024-12-07 16:24:12.768831000,6.0638310546875,0.0367515943944454,-0.5588639378547668,0.3752391040325165
2024-12-07 16:24:12.778858800,6.073858642578125,0.1294295340776443,-0.1434111148118972,0.4743086397647857
2024-12-07 16:24:12.788886500,6.083886474609375,0.2071937769651413,0.4328965246677398,0.416784405708313
2024-12-07 16:24:12.798914300,6.093914306640625,0.2370211631059646,0.8590019941329956,0.2612559199333191
2024-12-07 16:24:12.808942000,6.103942138671875,0.2530001103878021,0.9218525290489196,0.0844221413135528
2024-12-07 16:24:12.818969900,6.113969970703125,0.2498043179512024,0.6747113466262817,-0.1350221633911132
2024-12-07 16:24:12.828997400,6.123997314453125,0.1933453530073166,0.3838943839073181,-0.3512706756591797
2024-12-07 16:24:12.839025200,6.134025146484375,0.1336905807256698,0.2273006290197372,-0.5398223400115967
2024-12-07 16:24:12.849053000,6.144052978515625,0.0740358233451843,0.0451405458152294,-0.7049382328987122
2024-12-07 16:24:12.859080700,6.154080810546875,-0.0324905402958393,-0.2531332671642303,-0.8498140573501587
2024-12-07 16:24:12.869108500,6.1641083984375,-0.1230379492044448,-0.6483460664749146,-0.990428864955902
2024-12-07 16:24:12.879136300,6.17413623046875,-0.1965411454439163,-1.0446242094039917,-1.075649976730347
2024-12-07 16:24:12.889164000,6.1841640625,-0.2625874876976013,-1.1756515502929688,-1.007473111152649
2024-12-07 16:24:12.899191800,6.19419189453125,-0.3105243444442749,-1.0659294128417969,-0.8178561329841614
2024-12-07 16:24:12.909219600,6.204219482421875,-0.3137201368808746,-0.7580682635307312,-0.5973466038703918
2024-12-07 16:24:12.919247400,6.214247314453125,-0.2370211631059646,-0.3351585865020752,-0.4162517786026001
2024-12-07 16:24:12.929275100,6.224275146484375,-0.0857537239789962,0.0653805583715438,-0.3043990731239319
2024-12-07 16:24:12.939303000,6.234302978515625,0.0719052925705909,0.3476754128932953,-0.261788547039032
2024-12-07 16:24:12.949330700,6.24433056640625,0.1624527126550674,0.4584628343582153,-0.2862896025180816
2024-12-07 16:24:12.959358500,6.2543583984375,0.1837579756975174,0.4446144104003906,-0.3278348743915558
2024-12-07 16:24:12.969386200,6.26438623046875,0.209324300289154,0.3189133107662201,-0.3438138365745544
2024-12-07 16:24:12.979414000,6.2744140625,0.1922800838947296,0.0834900364279747,-0.3438138365745544
2024-12-07 16:24:12.989441500,6.284441650390625,0.1518000662326812,-0.1743037700653076,-0.3576622605323791
2024-12-07 16:24:12.999469300,6.29446923828125,0.1283642649650573,-0.3532680571079254,-0.3896201848983764
2024-12-07 16:24:13.009497000,6.3044970703125,0.0921453014016151,-0.4544681012630462,-0.4290349185466766
2024-12-07 16:24:13.019524900,6.31452490234375,0.087884247303009,-0.5279712677001953,-0.4460791349411011
2024-12-07 16:24:13.029552600,6.324552734375,0.1134505793452262,-0.5109270811080933,-0.4514054656028747
2024-12-07 16:24:13.039580400,6.334580322265625,0.1560611277818679,-0.3894870281219482,-0.4418180882930755
2024-12-07 16:24:13.049608200,6.344608154296875,0.1944106072187423,-0.266981691122055,-0.4247738718986511
2024-12-07 16:24:13.059636000,6.354635986328125,0.2135853618383407,-0.1721732318401336,-0.3992075622081756
2024-12-07 16:24:13.069663700,6.364663818359375,0.2221074700355529,-0.0976047813892364,-0.3661843836307525
2024-12-07 16:24:13.079691500,6.37469140625,0.2231727391481399,-0.0091878985986113,-0.3320959508419037
2024-12-07 16:24:13.089719300,6.38471923828125,0.2135853618383407,0.0877510905265808,-0.3033338189125061
2024-12-07 16:24:13.099747000,6.3947470703125,0.198671668767929,0.1804290264844894,-0.2777675092220306
2024-12-07 16:24:13.109774800,6.40477490234375,0.1826927214860916,0.2699111700057983,-0.2649843394756317
2024-12-07 16:24:13.119802600,6.414802734375,0.1518000662326812,0.3561975359916687,-0.2649843394756317
2024-12-07 16:24:13.129830400,6.424830322265625,0.1134505793452262,0.3583280444145202,-0.2745717167854309
2024-12-07 16:24:13.139858200,6.434858154296875,0.0729705616831779,0.2507364153861999,-0.2767022252082824
2024-12-07 16:24:13.149886000,6.444885986328125,0.0367515943944454,0.0909468829631805,-0.2777675092220306
2024-12-07 16:24:13.159913500,6.45491357421875,0.0005326318205334,-0.0731037184596061,-0.2926811873912811
2024-12-07 16:24:13.169941200,6.464941162109375,-0.0335558056831359,-0.2339585274457931,-0.3203780353069305
2024-12-07 16:24:13.179969000,6.474968994140625,-0.0665789768099784,-0.3617901504039764,-0.3565970063209533
2024-12-07 16:24:13.189996800,6.484996826171875,-0.0846884623169899,-0.4257059693336487,-0.381098061800003
2024-12-07 16:24:13.200024600,6.495024658203125,-0.0910800397396087,-0.4406196773052215,-0.393881231546402
2024-12-07 16:24:13.210052400,6.50505224609375,-0.0836231932044029,-0.4161186218261719,-0.4002728164196014
2024-12-07 16:24:13.220080000,6.515080078125,-0.0644484534859657,-0.3649859428405761,-0.4162517786026001
2024-12-07 16:24:13.230108000,6.52510791015625,-0.037816859781742,-0.2861564457416534,-0.4386222958564758
2024-12-07 16:24:13.240135700,6.5351357421875,-0.0165115855634212,-0.1924132406711578,-0.4514054656028747
2024-12-07 16:24:13.250163500,6.54516357421875,0.0005326318205334,-0.1125184744596481,-0.4364917874336242
2024-12-07 16:24:13.260191200,6.555191162109375,-0.0207726415246725,-0.0826910883188247,-0.4301002025604248
2024-12-07 16:24:13.270219000,6.565218994140625,-0.0346210673451423,-0.0848216190934181,-0.4205128252506256
2024-12-07 16:24:13.280246500,6.57524658203125,-0.049534760415554,-0.1167795285582542,-0.4066644012928009
2024-12-07 16:24:13.290274300,6.5852744140625,-0.0633831843733787,-0.1828258782625198,-0.3960117697715759
2024-12-07 16:24:13.300302000,6.595302001953125,-0.088949516415596,-0.2595248520374298,-0.3906854391098022
2024-12-07 16:24:13.310329900,6.605329833984375,-0.115581102669239,-0.3202448785305023,-0.381098061800003
2024-12-07 16:24:13.320357400,6.615357421875,-0.1528653353452682,-0.3916175365447998,-0.3683148920536041
2024-12-07 16:24:13.330385200,6.62538525390625,-0.2039979845285415,-0.4747081100940704,-0.3491401672363281
2024-12-07 16:24:13.340413000,6.635412841796875,-0.2157158851623535,-0.3372890949249267,-0.4034686088562011
2024-12-07 16:24:13.350440400,6.6454404296875,-0.1869537681341171,-0.0826910883188247,-0.5110602378845215
2024-12-07 16:24:13.360468200,6.65546826171875,-0.1763011366128921,0.002530001103878,-0.5600623488426208
2024-12-07 16:24:13.370496000,6.66549609375,-0.1805621832609176,-0.0230363253504037,-0.5408875942230225
2024-12-07 16:24:13.380523800,6.675523681640625,-0.1645832359790802,-0.1274321675300598,-0.494016021490097
2024-12-07 16:24:13.390551300,6.68555126953125,-0.1752358675003051,-0.2520680129528045,-0.4599275887012481
2024-12-07 16:24:13.400579000,6.6955791015625,-0.2039979845285415,-0.344745934009552,-0.4354265034198761
2024-12-07 16:24:13.410606800,6.70560693359375,-0.2253032624721527,-0.3671164810657501,-0.4077296555042267
2024-12-07 16:24:13.420634600,6.715634521484375,-0.2284990549087524,-0.3585943877696991,-0.3736412227153778
2024-12-07 16:24:13.430662100,6.725662109375,-0.2295643091201782,-0.336223840713501,-0.3427485823631286
2024-12-07 16:24:13.440690000,6.73568994140625,-0.2178464084863662,-0.279764860868454,-0.3310306668281555
2024-12-07 16:24:13.450717700,6.7457177734375,-0.1848232448101043,-0.1636511236429214,-0.3225085735321045
2024-12-07 16:24:13.460745500,6.755745361328125,-0.154995858669281,-0.0091878985986113,-0.3012032806873321
2024-12-07 16:24:13.470773000,6.76577294921875,-0.1411474347114563,0.1367532163858413,-0.2905506491661072
2024-12-07 16:24:13.480800800,6.77580078125,-0.0964063629508018,0.2454101145267486,-0.2905506491661072
2024-12-07 16:24:13.490828500,6.78582861328125,-0.037816859781742,0.3199785649776459,-0.324639081954956
2024-12-07 16:24:13.500856000,6.79585595703125,0.0090547408908605,0.3721764981746673,-0.4024033546447754
2024-12-07 16:24:13.510883800,6.8058837890625,0.0633831843733787,0.4446144104003906,-0.4908202290534973
2024-12-07 16:24:13.520911600,6.81591162109375,0.037816859781742,0.52237868309021,-0.6271739602088928
2024-12-07 16:24:13.530939400,6.825939453125,0.0207726415246725,0.5426186919212341,-0.7241129875183105
2024-12-07 16:24:13.540967000,6.835966796875,0.023968432098627,0.5830987095832825,-0.7379614114761353
2024-12-07 16:24:13.550994700,6.84599462890625,-0.0442084409296512,0.6715155839920044,-0.7113298177719116
2024-12-07 16:24:13.561022500,6.8560224609375,-0.1645832359790802,0.782302975654602,-0.6548708081245422
2024-12-07 16:24:13.571050200,6.86605029296875,-0.2934801280498504,0.8803072571754456,-0.5760413408279419
2024-12-07 16:24:13.581077800,6.876077880859375,-0.4074633419513702,0.9431577920913696,-0.5057339072227478
2024-12-07 16:24:13.591105500,6.88610546875,-0.5161202549934387,0.959136724472046,-0.4609928429126739
2024-12-07 16:24:13.601133300,6.89613330078125,-0.6119939684867859,0.9218525290489196,-0.4151864945888519
2024-12-07 16:24:13.611161000,6.9061611328125,-0.6247771382331848,0.8675240874290466,-0.3001380264759063
2024-12-07 16:24:13.621188600,6.916188720703125,-0.532099187374115,0.7695198059082031,-0.1467400640249252
2024-12-07 16:24:13.631216400,6.92621630859375,-0.3840275406837463,0.5937513113021851,-0.0625842362642288
2024-12-07 16:24:13.641244200,6.936244140625,-0.2423474788665771,0.342349112033844,-0.0924116224050521
2024-12-07 16:24:13.651272000,6.94627197265625,-0.1272990107536316,0.1431448012590408,-0.138217955827713
2024-12-07 16:24:13.661299500,6.956299560546875,0.0058589498512446,0.0238352734595537,-0.0977379381656646
2024-12-07 16:24:13.671327200,6.9663271484375,0.1763011366128921,-0.0976047813892364,0.0087884254753589
2024-12-07 16:24:13.681355000,6.97635498046875,0.3573959469795227,-0.1892174482345581,0.0982705727219581
2024-12-07 16:24:13.691382800,6.9863828125,0.4191812574863434,-0.1700427085161209,0.1131842583417892
2024-12-07 16:24:13.701410600,6.99641064453125,0.3733749091625213,-0.0731037184596061,0.1483379602432251
2024-12-07 16:24:13.711438300,7.006438232421875,0.2806969583034515,-0.0177100077271461,0.2836264371871948
2024-12-07 16:24:13.721465900,7.0164658203125,0.1347558498382568,-0.0017310534603893,0.4849612712860107
2024-12-07 16:24:13.731493600,7.02649365234375,-0.0229031685739755,0.0483363382518291,0.6841655969619751
2024-12-07 16:24:13.741521400,7.036521484375,-0.1528653353452682,0.1452753245830536,0.8546077609062195
2024-12-07 16:24:13.751549200,7.046549072265625,-0.2412822097539901,0.2826943397521972,0.9962878227233888
2024-12-07 16:24:13.761577000,7.056576904296875,-0.297741174697876,0.4190480709075928,1.120923638343811
2024-12-07 16:24:13.771604700,7.066604736328125,-0.3360906839370727,0.530900776386261,1.2530163526535034
2024-12-07 16:24:13.781632500,7.076632568359375,-0.3563306927680969,0.5873597264289856,1.4032185077667236
2024-12-07 16:24:13.791660300,7.086660400390625,-0.3499391078948974,0.5713807940483093,1.5789870023727417
2024-12-07 16:24:13.801688000,7.09668798828125,-0.3233075141906738,0.5138565301895142,1.7643429040908811
2024-12-07 16:24:13.811715800,7.1067158203125,-0.265783280134201,0.4009386003017425,1.937980890274048
2024-12-07 16:24:13.821743600,7.11674365234375,-0.2082590460777282,0.2848248779773712,2.0785956382751465
2024-12-07 16:24:13.831771400,7.126771484375,-0.1336905807256698,0.1889511346817016,2.1691431999206543
2024-12-07 16:24:13.841799200,7.136799072265625,-0.049534760415554,0.1612542867660522,2.210688352584839
2024-12-07 16:24:13.851827000,7.146826904296875,0.023968432098627,0.2912164330482483,2.21814513206482
2024-12-07 16:24:13.861854700,7.156854736328125,0.0708400309085846,0.6182523965835571,2.19044828414917
2024-12-07 16:24:13.871882500,7.166882568359375,0.1283642649650573,1.0145304203033447,2.1382503509521484
2024-12-07 16:24:13.881910300,7.17691015625,0.1507348120212555,1.342631697654724,2.033854722976685
2024-12-07 16:24:13.891937800,7.186937744140625,0.1752358675003051,1.5674022436141968,1.865543007850647
2024-12-07 16:24:13.901965600,7.196965576171875,0.2082590460777282,1.7825855016708374,1.6897743940353394
2024-12-07 16:24:13.911993300,7.206993408203125,0.2135853618383407,1.9572887420654297,1.5022881031036377
2024-12-07 16:24:13.922021000,7.217021240234375,0.3041327595710754,1.8933730125427248,1.1997531652450562
2024-12-07 16:24:13.932049000,7.227048828125,0.4884233772754669,1.598294973373413,0.8386288285255432
2024-12-07 16:24:13.942076700,7.23707666015625,0.6109287142753601,1.276585340499878,0.559529721736908
2024-12-07 16:24:13.952104400,7.2471044921875,0.6801708340644836,0.9420925378799438,0.3699128031730652
2024-12-07 16:24:13.962132200,7.25713232421875,0.7323687672615051,0.631035566329956,0.2655169665813446
2024-12-07 16:24:13.972160000,7.267159912109375,0.7728487849235535,0.329565942287445,0.271908551454544
2024-12-07 16:24:13.982187800,7.277187744140625,0.8143940567970276,0.0643152892589569,0.3837612271308899
2024-12-07 16:24:13.992215600,7.287215576171875,0.8538088202476501,-0.1583248078823089,0.5744433999061584
2024-12-07 16:24:14.002243300,7.297243408203125,0.8591351509094238,-0.3820301592350006,0.8088014125823975
2024-12-07 16:24:14.012271000,7.30727099609375,0.8474172353744507,-0.6259755492210388,1.0431593656539917
2024-12-07 16:24:14.022299000,7.317298828125,0.8261119723320007,-0.8656598925590515,1.212536334991455
2024-12-07 16:24:14.032326700,7.32732666015625,0.7930887937545776,-1.0435588359832764,1.2583426237106323
2024-12-07 16:24:14.042354400,7.3373544921875,0.766457200050354,-1.1415631771087646,1.1901657581329346
2024-12-07 16:24:14.052382000,7.3473818359375,0.7419561147689819,-1.1628683805465698,1.0687257051467896
2024-12-07 16:24:14.062409700,7.35740966796875,0.7099981904029846,-1.040363073348999,0.8982835412025452
2024-12-07 16:24:14.072437500,7.3674375,0.7025413513183594,-0.864594578742981,0.7076013684272766
2024-12-07 16:24:14.082465300,7.37746533203125,0.7004108428955078,-0.7175882458686829,0.5275717973709106
2024-12-07 16:24:14.092493000,7.3874931640625,0.6791055798530579,-0.6526071429252625,0.3816306889057159
2024-12-07 16:24:14.102520600,7.3975205078125,0.6599308252334595,-0.6046702861785889,0.2548643350601196
2024-12-07 16:24:14.112548400,7.40754833984375,0.6322339773178101,-0.6206492185592651,0.1877527236938476
2024-12-07 16:24:14.122576100,7.417576171875,0.577905535697937,-0.637693464756012,0.161121129989624
2024-12-07 16:24:14.132604000,7.42760400390625,0.540621280670166,-0.6504766345024109,0.1163800507783889
2024-12-07 16:24:14.142631400,7.43763134765625,0.5246423482894897,-0.7250450849533081,0.040746334940195
2024-12-07 16:24:14.152659200,7.4476591796875,0.4884233772754669,-0.8305061459541321,-0.0508663393557071
2024-12-07 16:24:14.162687000,7.45768701171875,0.4372907280921936,-0.8858999013900757,-0.126500055193901
2024-12-07 16:24:14.172714800,7.46771484375,0.3009369671344757,-0.8092008829116821,-0.2074600905179977
2024-12-07 16:24:14.182742300,7.4777421875,0.1944106072187423,-0.7570029497146606,-0.249005377292633
2024-12-07 16:24:14.192770000,7.48777001953125,0.0846884623169899,-0.654737651348114,-0.247940108180046
2024-12-07 16:24:14.202797800,7.4977978515625,-0.0260989591479301,-0.511992335319519,-0.2308958917856216
2024-12-07 16:24:14.212825300,7.507825439453125,-0.1294295340776443,-0.3703122735023498,-0.2255695760250091
2024-12-07 16:24:14.222853000,7.51785302734375,-0.2221074700355529,-0.246741697192192,-0.2181127369403839
2024-12-07 16:24:14.232881000,7.527880859375,-0.2998717129230499,-0.1828258782625198,-0.182959035038948
2024-12-07 16:24:14.242908700,7.53790869140625,-0.3797664940357208,-0.1753690242767334,-0.1328916400671005
2024-12-07 16:24:14.252936200,7.547936279296875,-0.456465482711792,-0.202000617980957,-0.0892158299684524
2024-12-07 16:24:14.262964000,7.5579638671875,-0.5129244327545166,-0.2520680129528045,-0.0700410827994346
2024-12-07 16:24:14.272991700,7.56799169921875,-0.5555350184440613,-0.3213101327419281,-0.0679105594754219
2024-12-07 16:24:14.283019500,7.57801953125,-0.577905535697937,-0.4044007062911987,-0.071106344461441
2024-12-07 16:24:14.293047000,7.588047119140625,-0.569383442401886,-0.4874912798404693,-0.0774979293346405
2024-12-07 16:24:14.303074800,7.59807470703125,-0.5267728567123413,-0.5535376071929932,-0.1009337306022644
2024-12-07 16:24:14.313102600,7.6081025390625,-0.4585959911346435,-0.5886912941932678,-0.1307611167430877
2024-12-07 16:24:14.323130400,7.61813037109375,-0.3744401633739471,-0.6174534559249878,-0.1531316488981247
2024-12-07 16:24:14.333158000,7.628157958984375,-0.2828274965286255,-0.6536723971366882,-0.1552621722221374
2024-12-07 16:24:14.343185700,7.638185546875,-0.1805621832609176,-0.7058703303337097,-0.1360874325037002
2024-12-07 16:24:14.353213400,7.64821337890625,-0.0591221302747726,-0.7399587631225586,-0.088150568306446
2024-12-07 16:24:14.363241000,7.658240966796875,0.0836231932044029,-0.713327169418335,-0.0263652745634317
2024-12-07 16:24:14.373268700,7.668268798828125,0.2231727391481399,-0.637693464756012,0.0322242267429828
2024-12-07 16:24:14.383296500,7.678296630859375,0.3456780612468719,-0.5673860311508179,0.0759000331163406
2024-12-07 16:24:14.393324300,7.68832421875,0.456465482711792,-0.54181969165802,0.1014663651585578
2024-12-07 16:24:14.403351800,7.698351806640625,0.5597960352897644,-0.5556681752204895,0.1163800507783889
2024-12-07 16:24:14.413379600,7.708379638671875,0.6439518928527832,-0.5897566080093384,0.1291632205247879
2024-12-07 16:24:14.423407400,7.718407470703125,0.6940192580223083,-0.6430197358131409,0.1408811211585998
2024-12-07 16:24:14.433435100,7.72843505859375,0.7142592668533325,-0.7058703303337097,0.1376853287220001
2024-12-07 16:24:14.443462700,7.738462646484375,0.6940192580223083,-0.7388935089111328,0.1014663651585578
2024-12-07 16:24:14.453490400,7.748490478515625,0.6460824012756348,-0.7239798307418823,0.024767380207777
2024-12-07 16:24:14.463518200,7.758518310546875,0.561926543712616,-0.6408892273902893,-0.0774979293346405
2024-12-07 16:24:14.473546000,7.7685458984375,0.4522044062614441,-0.5322323441505432,-0.1808284968137741
2024-12-07 16:24:14.483573500,7.778573486328125,0.3211769759654999,-0.4842954874038696,-0.2777675092220306
2024-12-07 16:24:14.493601300,7.788601318359375,0.1869537681341171,-0.5396891832351685,-0.3736412227153778
2024-12-07 16:24:14.503629000,7.798629150390625,0.0591221302747726,-0.676042914390564,-0.4812328517436981
2024-12-07 16:24:14.513656800,7.80865673828125,-0.0782968774437904,-0.8379629850387573,-0.601607620716095
2024-12-07 16:24:14.523684400,7.818684326171875,-0.2263685166835785,-0.9743167757987976,-0.72304767370224
2024-12-07 16:24:14.533712100,7.828712158203125,-0.3584612011909485,-1.0392978191375732,-0.827443540096283
2024-12-07 16:24:14.543740000,7.838739990234375,-0.4735096991062164,-1.0222536325454712,-0.9020119905471802
2024-12-07 16:24:14.553767400,7.848767333984375,-0.5874928832054138,-0.9317061901092528,-0.953144669532776
2024-12-07 16:24:14.563795200,7.858795166015625,-0.6407560706138611,-0.7271755933761597,-0.9499488472938538
2024-12-07 16:24:14.573823000,7.868822998046875,-0.5118591785430908,-0.4384891390800476,-0.8476835489273071
2024-12-07 16:24:14.583850800,7.878850830078125,-0.2082590460777282,-0.3351585865020752,-0.6346307992935181
2024-12-07 16:24:14.593878300,7.888878173828125,0.0537958145141601,-0.4086617529392242,-0.3118559420108795
2024-12-07 16:24:14.603906000,7.898906005859375,0.1741705983877182,-0.5695165991783142,0.0119842160493135
2024-12-07 16:24:14.613933800,7.908933837890625,0.2263685166835785,-0.7708513736724854,0.2953443527221679
2024-12-07 16:24:14.623961600,7.918961669921875,0.3030675053596496,-0.8305061459541321,0.4838960170745849
2024-12-07 16:24:14.633989000,7.928989013671875,0.3850927948951721,-0.6696513295173645,0.5094623565673828
2024-12-07 16:24:14.644017000,7.939016845703125,0.38935387134552,-0.3969438672065735,0.3986749053001404
2024-12-07 16:24:14.654044700,7.949044677734375,0.2902843356132507,-0.080560564994812,0.2175800949335098
2024-12-07 16:24:14.664072400,7.959072509765625,0.1102547869086265,0.2038648277521133,-0.0029294749256223
2024-12-07 16:24:14.674100000,7.969099853515625,-0.1059937328100204,0.4669849574565887,-0.2692453861236572
2024-12-07 16:24:14.684127700,7.979127685546875,-0.2934801280498504,0.7748461365699768,-0.6431529521942139
2024-12-07 16:24:14.694155500,7.989155517578125,-0.4820317924022674,0.9783114790916444,-1.0383657217025757
2024-12-07 16:24:14.704183300,7.999183349609375,-0.67484450340271,0.9570062160491944,-1.2769848108291626
2024-12-07 16:24:14.714210800,8.0092109375,-0.8623309135437012,0.6555365920066833,-1.3281174898147583
2024-12-07 16:24:14.724238600,8.019238525390625,-0.9859014749526978,0.1729721873998642,-1.2492879629135132
2024-12-07 16:24:14.734266400,8.029266357421875,-0.9912278056144714,-0.3724428117275238,-1.086302638053894
2024-12-07 16:24:14.744294000,8.0392939453125,-0.89641934633255,-0.9061399102211,-0.8870983123779297
2024-12-07 16:24:14.754321700,8.04932177734375,-0.7142592668533325,-1.191630482673645,-0.6815024018287659
2024-12-07 16:24:14.764349400,8.059349365234375,-0.4639223217964172,-1.08510422706604,-0.5430181622505188
2024-12-07 16:24:14.774377200,8.069377197265625,-0.1901495605707168,-0.6238450407981873,-0.4769718050956726
2024-12-07 16:24:14.784404700,8.07940478515625,0.0846884623169899,-0.0230363253504037,-0.4290349185466766
2024-12-07 16:24:14.794432500,8.0894326171875,0.2530001103878021,0.5671197175979614,-0.3693801760673523
2024-12-07 16:24:14.804460300,8.099460205078126,0.3818970024585724,1.026248335838318,-0.3342264592647552
2024-12-07 16:24:14.814488000,8.109488037109376,0.510793924331665,1.2009515762329102,-0.3129211962223053
2024-12-07 16:24:14.824515600,8.119515625,0.5012065172195435,1.2030820846557615,-0.3981422781944275
2024-12-07 16:24:14.834543400,8.12954345703125,0.4138549268245697,0.9889641404151917,-0.504668653011322
2024-12-07 16:24:14.844571100,8.139571044921874,0.3041327595710754,0.407330185174942,-0.4599275887012481
2024-12-07 16:24:14.854599000,8.149598876953124,0.1411474347114563,-0.1743037700653076,-0.3768370151519775
2024-12-07 16:24:14.864626400,8.15962646484375,-0.0442084409296512,-0.5801692008972168,-0.3278348743915558
2024-12-07 16:24:14.874654200,8.169654296875,-0.1922800838947296,-0.8390282988548279,-0.2948117256164551
2024-12-07 16:24:14.884682000,8.179681884765625,-0.2647180259227752,-0.968990445137024,-0.2905506491661072
2024-12-07 16:24:14.894709500,8.18970947265625,-0.2636527419090271,-0.9519461989402772,-0.3043990731239319
2024-12-07 16:24:14.904737300,8.1997373046875,-0.2231727391481399,-0.8486156463623047,-0.3331612050533294
2024-12-07 16:24:14.914765000,8.20976513671875,-0.1400821655988693,-0.6973482370376587,-0.3608580529689789
2024-12-07 16:24:14.924792800,8.219792724609375,-0.0260989591479301,-0.503470242023468,-0.381098061800003
2024-12-07 16:24:14.934820400,8.2298203125,0.1070589944720268,-0.2882869839668274,-0.3981422781944275
2024-12-07 16:24:14.944848100,8.23984814453125,0.2125200927257537,-0.1274321675300598,-0.4087949097156524
2024-12-07 16:24:14.954876000,8.2498759765625,0.2668485343456268,-0.0294279083609581,-0.4162517786026001
2024-12-07 16:24:14.964903700,8.259903564453126,0.297741174697876,0.0195742193609476,-0.3960117697715759
2024-12-07 16:24:14.974931200,8.26993115234375,0.2902843356132507,0.018508955836296,-0.3544664680957794
2024-12-07 16:24:14.984959000,8.279958984375,0.2476737946271896,0.0131826372817158,-0.3033338189125061
2024-12-07 16:24:14.994986800,8.28998681640625,0.1858884990215301,0.0057257921434938,-0.2553969621658325
2024-12-07 16:24:15.005014500,8.3000146484375,0.1390169113874435,-0.0123836901038885,-0.2053295671939849
2024-12-07 16:24:15.015042000,8.3100419921875,0.1070589944720268,-0.04114580899477,-0.1648495495319366
2024-12-07 16:24:15.025069800,8.32006982421875,0.0804274082183837,-0.0773647725582122,-0.1286305785179138
2024-12-07 16:24:15.035097600,8.33009765625,0.0569916032254695,-0.1093226820230484,-0.0956074148416519
2024-12-07 16:24:15.045125400,8.34012548828125,0.0399473868310451,-0.1210405826568603,-0.0732368752360344
2024-12-07 16:24:15.055153000,8.35015283203125,0.0388821214437484,-0.1274321675300598,-0.0668452903628349
2024-12-07 16:24:15.065180700,8.3601806640625,0.0474042333662509,-0.1444763839244842,-0.0732368752360344
2024-12-07 16:24:15.075208400,8.37020849609375,0.0655137151479721,-0.1849564015865326,-0.0913463607430458
2024-12-07 16:24:15.085236000,8.380236083984375,0.0814926698803901,-0.2392848432064056,-0.1350221633911132
2024-12-07 16:24:15.095263700,8.390263671875,0.0932105705142021,-0.2659164369106293,-0.193611666560173
2024-12-07 16:24:15.105291500,8.40029150390625,0.077231615781784,-0.2605901062488556,-0.2607232630252838
2024-12-07 16:24:15.115319300,8.4103193359375,0.0910800397396087,-0.2403501123189926,-0.2958769798278808
2024-12-07 16:24:15.125346800,8.420346923828125,0.1038632020354271,-0.2275669425725937,-0.3065296113491058
2024-12-07 16:24:15.135374600,8.43037451171875,0.0900147780776023,-0.1934785097837448,-0.3043990731239319
2024-12-07 16:24:15.145402400,8.44040234375,0.0719052925705909,-0.1498026996850967,-0.2948117256164551
2024-12-07 16:24:15.155430100,8.45043017578125,0.0601873956620693,-0.1135837361216545,-0.2873548567295074
2024-12-07 16:24:15.165457700,8.460457763671876,0.0410126484930515,-0.0880174115300178,-0.2788327634334564
2024-12-07 16:24:15.175485400,8.4704853515625,0.0122505314648151,-0.0912131965160369,-0.2767022252082824
2024-12-07 16:24:15.185513200,8.48051318359375,-0.0282294861972332,-0.12423637509346,-0.2745717167854309
2024-12-07 16:24:15.195540700,8.490540771484374,-0.0740358233451843,-0.1647163927555084,-0.2681801319122314
2024-12-07 16:24:15.205568500,8.500568603515624,-0.116646371781826,-0.1849564015865326,-0.247940108180046
2024-12-07 16:24:15.215596000,8.510595947265625,-0.1486042737960815,-0.1870869249105453,-0.2138516753911972
2024-12-07 16:24:15.225623800,8.520623779296875,-0.1624527126550674,-0.1796300858259201,-0.1882853507995605
2024-12-07 16:24:15.235651300,8.5306513671875,-0.1624527126550674,-0.1519332230091095,-0.1850895583629608
2024-12-07 16:24:15.245679000,8.54067919921875,-0.1518000662326812,-0.1178447902202606,-0.192546397447586
2024-12-07 16:24:15.255707000,8.550706787109375,-0.1358211189508438,-0.09653951972723,-0.2063948363065719
2024-12-07 16:24:15.265734400,8.560734375,-0.116646371781826,-0.0784300342202186,-0.2202432602643966
2024-12-07 16:24:15.275762200,8.57076220703125,-0.1038632020354271,-0.0443415977060794,-0.2277000993490219
2024-12-07 16:24:15.285789700,8.580789794921875,-0.0985368862748146,0.0067910556681454,-0.2308958917856216
2024-12-07 16:24:15.295817500,8.5908173828125,-0.0974716246128082,0.0653805583715438,-0.2340916842222213
2024-12-07 16:24:15.305845000,8.600844970703125,-0.1006674170494079,0.1218395307660102,-0.2404832690954208
2024-12-07 16:24:15.315872800,8.610872802734375,-0.1081242561340332,0.163384810090065,-0.2522011697292328
2024-12-07 16:24:15.325900300,8.620900390625,-0.1209074258804321,0.1676458716392517,-0.2756369709968567
2024-12-07 16:24:15.335928000,8.630927978515626,-0.1411474347114563,0.1537974327802658,-0.2841590642929077
2024-12-07 16:24:15.345955600,8.64095556640625,-0.1624527126550674,0.141014277935028,-0.2756369709968567
2024-12-07 16:24:15.355983400,8.6509833984375,-0.1731053441762924,0.1484711170196533,-0.2713759243488312
2024-12-07 16:24:15.366011000,8.661010986328124,-0.1677790284156799,0.1676458716392517,-0.2862896025180816
2024-12-07 16:24:15.376038700,8.67103857421875,-0.1581916511058807,0.1868206113576889,-0.3065296113491058
2024-12-07 16:24:15.386066200,8.681066162109374,-0.1358211189508438,0.1985385119915008,-0.316116988658905
2024-12-07 16:24:15.396094000,8.691093994140624,-0.132625326514244,0.2155827283859253,-0.3225085735321045
2024-12-07 16:24:15.406121700,8.701121826171875,-0.1731053441762924,0.2368880063295364,-0.3459443747997284
2024-12-07 16:24:15.416149200,8.711149169921875,-0.1336905807256698,0.2134522050619125,-0.3438138365745544
2024-12-07 16:24:15.426177000,8.721177001953125,-0.1027979403734207,0.1665806025266647,-0.3448790907859802
2024-12-07 16:24:15.436204500,8.73120458984375,-0.1081242561340332,0.1378184854984283,-0.3779022693634033
2024-12-07 16:24:15.446232300,8.741232421875,-0.0985368862748146,0.1612542867660522,-0.4258391261100769
2024-12-07 16:24:15.456259800,8.751259765625,-0.1102547869086265,0.1953427195549011,-0.4865591824054718
2024-12-07 16:24:15.466287600,8.76128759765625,-0.1134505793452262,0.2784332931041717,-0.525973916053772
2024-12-07 16:24:15.476315100,8.771315185546875,-0.0229031685739755,0.4222438633441925,-0.4886896908283233
2024-12-07 16:24:15.486343000,8.781343017578125,0.007989477366209,0.5649892091751099,-0.4599275887012481
2024-12-07 16:24:15.496370400,8.791370361328125,-0.0090547408908605,0.710930347442627,-0.4322307109832763
2024-12-07 16:24:15.506398200,8.801398193359375,-0.0388821214437484,0.7695198059082031,-0.4151864945888519
2024-12-07 16:24:15.516425700,8.81142578125,-0.0452737063169479,0.7087997794151306,-0.3779022693634033
2024-12-07 16:24:15.526453500,8.82145361328125,-0.104928471148014,0.5585976243019104,-0.3502054214477539
2024-12-07 16:24:15.536481000,8.83148095703125,-0.1368863731622696,0.4030691385269165,-0.2948117256164551
2024-12-07 16:24:15.546508800,8.8415087890625,-0.1336905807256698,0.3263701498508453,-0.2085253596305847
2024-12-07 16:24:15.556536600,8.85153662109375,-0.0868189856410026,0.331696480512619,-0.1115863695740699
2024-12-07 16:24:15.566564400,8.861564453125,-0.0069242138415575,0.3391533195972442,-0.0498010739684104
2024-12-07 16:24:15.576592000,8.871591796875,0.0719052925705909,0.3348922431468963,-0.044474758207798
2024-12-07 16:24:15.586619600,8.88161962890625,0.143277958035469,0.329565942287445,-0.0689758211374282
2024-12-07 16:24:15.596647400,8.8916474609375,0.2242379933595657,0.3338269889354706,-0.0913463607430458
2024-12-07 16:24:15.606675200,8.90167529296875,0.3051980435848236,0.3125217258930206,-0.1296958476305008
2024-12-07 16:24:15.616702700,8.91170263671875,0.3201117217540741,0.2581932842731476,-0.2372874766588211
2024-12-07 16:24:15.626730500,8.92173046875,0.3020022511482239,0.2059953510761261,-0.3491401672363281
2024-12-07 16:24:15.636758300,8.93175830078125,0.2498043179512024,0.1655153334140777,-0.3960117697715759
2024-12-07 16:24:15.646786000,8.9417861328125,0.1315600574016571,0.1612542867660522,-0.3693801760673523
2024-12-07 16:24:15.656813600,8.9518134765625,-0.010120004415512,0.2123869359493255,-0.2905506491661072
2024-12-07 16:24:15.666841300,8.96184130859375,-0.1560611277818679,0.3231743574142456,-0.192546397447586
2024-12-07 16:24:15.676869000,8.971869140625,-0.2806969583034515,0.4552670419216156,-0.1094558387994766
2024-12-07 16:24:15.686896600,8.981896728515625,-0.3680485785007477,0.5543365478515625,-0.0561926588416099
2024-12-07 16:24:15.696924400,8.99192431640625,-0.4213117659091949,0.6086649894714355,-0.0178431663662195
2024-12-07 16:24:15.706952200,9.0019521484375,-0.4426170289516449,0.6214481592178345,0.0226368531584739
2024-12-07 16:24:15.716980000,9.01197998046875,-0.4372907280921936,0.5862944722175598,0.0599210783839225
2024-12-07 16:24:15.727007500,9.022007568359374,-0.4170507192611694,0.5063996911048889,0.0886831954121589
2024-12-07 16:24:15.737035300,9.03203515625,-0.387223333120346,0.4222438633441925,0.1131842583417892
2024-12-07 16:24:15.747063000,9.04206298828125,-0.3861580789089203,0.3540669977664947,0.1249021589756012
2024-12-07 16:24:15.757090800,9.0520908203125,-0.3030675053596496,0.296542763710022,0.1739042848348617
2024-12-07 16:24:15.767118300,9.062118408203125,-0.1826927214860916,0.2528669536113739,0.228232741355896
2024-12-07 16:24:15.777146000,9.07214599609375,-0.0910800397396087,0.2347574681043625,0.2601906359195709
2024-12-07 16:24:15.787174000,9.082173828125,-0.0143810594454407,0.2496711611747741,0.2804306447505951
2024-12-07 16:24:15.797201700,9.09220166015625,0.0591221302747726,0.285890132188797,0.3145190775394439
2024-12-07 16:24:15.807229200,9.102229248046877,0.1070589944720268,0.3178480267524719,0.3613906800746918
2024-12-07 16:24:15.817257000,9.112257080078123,0.1411474347114563,0.3604585826396942,0.4178496599197387
2024-12-07 16:24:15.827284700,9.12228466796875,0.1603221744298935,0.4190480709075928,0.4775044322013855
2024-12-07 16:24:15.837312500,9.1323125,0.1667137593030929,0.4904207587242126,0.5414202213287354
2024-12-07 16:24:15.847340000,9.142340087890624,0.1592569202184677,0.5671197175979614,0.6170539855957031
2024-12-07 16:24:15.857367800,9.152367919921875,0.144343227148056,0.6363618969917297,0.7044056057929993
2024-12-07 16:24:15.867395600,9.1623955078125,0.1294295340776443,0.6906903386116028,0.8045403361320496
2024-12-07 16:24:15.877423000,9.172423095703126,0.1187768951058387,0.7269092798233032,0.91958886384964
2024-12-07 16:24:15.887451000,9.182450927734376,0.1070589944720268,0.7641934752464294,1.0431593656539917
2024-12-07 16:24:15.897478700,9.192478759765624,0.0974716246128082,0.803608238697052,1.1795132160186768
2024-12-07 16:24:15.907506400,9.20250634765625,0.0910800397396087,0.8536756634712219,1.3243889808654783
2024-12-07 16:24:15.917534000,9.212533935546874,0.0974716246128082,0.9314398765563964,1.4490249156951904
2024-12-07 16:24:15.927561700,9.222561767578124,0.1294295340776443,1.0614020824432373,1.542768120765686
2024-12-07 16:24:15.937589500,9.232589599609376,0.1848232448101043,1.226517915725708,1.5992270708084106
2024-12-07 16:24:15.947617300,9.2426171875,0.2860232889652252,1.3969601392745972,1.632250189781189
2024-12-07 16:24:15.957644800,9.252644775390625,0.4277033507823944,1.5471622943878174,1.6418375968933103
2024-12-07 16:24:15.967672600,9.262672607421877,0.577905535697937,1.623861312866211,1.5992270708084106
2024-12-07 16:24:15.977700400,9.272700439453123,0.699345588684082,1.590838074684143,1.5150712728500366
2024-12-07 16:24:15.987728100,9.28272802734375,0.8378298282623291,1.4001559019088743,1.3851090669631958
2024-12-07 16:24:15.997755600,9.292755615234377,0.9496825337409972,1.2233221530914309,1.2562121152877808
2024-12-07 16:24:16.007783400,9.302783447265623,0.9954888820648192,1.122122049331665,1.2029489278793335
2024-12-07 16:24:16.017811200,9.312811279296875,0.9411604404449464,1.0113346576690674,1.1795132160186768
2024-12-07 16:24:16.027838700,9.322838623046875,0.8452867269515991,0.7748461365699768,1.1177278757095337
2024-12-07 16:24:16.037866500,9.332866455078126,0.7558045387268066,0.4062649309635162,1.0378330945968628
2024-12-07 16:24:16.047894300,9.342894287109376,0.6705834865570068,0.1047953143715858,0.9515467286109924
2024-12-07 16:24:16.057922000,9.352922119140626,0.5917539596557617,0.0355531722307205,0.8886961936950684
2024-12-07 16:24:16.067949600,9.362949462890626,0.510793924331665,0.1186437383294105,0.8599340915679932
2024-12-07 16:24:16.077977300,9.372977294921874,0.4639223217964172,0.1729721873998642,0.8386288285255432
2024-12-07 16:24:16.088005000,9.383005126953124,0.4703139066696167,0.150601640343666,0.8045403361320496
2024-12-07 16:24:16.098032600,9.39303271484375,0.5342296957969666,0.1197089999914169,0.7629950642585754
2024-12-07 16:24:16.108060400,9.403060302734374,0.623711884021759,0.1218395307660102,0.7384940385818481
2024-12-07 16:24:16.118088000,9.413087890625,0.7004108428955078,0.1165132075548172,0.7278413772583008
2024-12-07 16:24:16.128115700,9.42311572265625,0.7217161059379578,0.0653805583715438,0.7278413772583008
2024-12-07 16:24:16.138143500,9.4331435546875,0.6961497664451599,-0.0198405347764492,0.7203845381736755
2024-12-07 16:24:16.148171000,9.4431708984375,0.6418213248252869,-0.1444763839244842,0.6937529444694519
2024-12-07 16:24:16.158198800,9.45319873046875,0.5683181285858154,-0.2755038142204284,0.6426202654838562
2024-12-07 16:24:16.168226300,9.463226318359377,0.502271831035614,-0.4320975542068481,0.5882918238639832
2024-12-07 16:24:16.178254000,9.473254150390623,0.397875964641571,-0.4779039025306701,0.5105276107788086
2024-12-07 16:24:16.188281600,9.483281494140623,0.3169159293174743,-0.447011262178421,0.4018706977367401
2024-12-07 16:24:16.198309400,9.493309326171875,0.2625874876976013,-0.4075964987277984,0.2761695981025696
2024-12-07 16:24:16.208337000,9.5033369140625,0.209324300289154,-0.3500722646713257,0.1557948142290115
2024-12-07 16:24:16.218364700,9.51336474609375,0.1667137593030929,-0.2818953990936279,0.0503337085247039
2024-12-07 16:24:16.228392200,9.52339208984375,0.144343227148056,-0.2275669425725937,-0.0338221192359924
2024-12-07 16:24:16.238420000,9.533419921875,0.1304948031902313,-0.1966743022203445,-0.0913463607430458
2024-12-07 16:24:16.248447500,9.543447509765626,0.1187768951058387,-0.2073269337415695,-0.1328916400671005
2024-12-07 16:24:16.258475300,9.553475341796876,0.1070589944720268,-0.2307627350091934,-0.1595232337713241
2024-12-07 16:24:16.268502800,9.563502685546876,0.0910800397396087,-0.2478069514036178,-0.1850895583629608
2024-12-07 16:24:16.278530600,9.573530517578124,0.0687095075845718,-0.2573943138122558,-0.2106558829545974
2024-12-07 16:24:16.288558300,9.583558349609374,0.0399473868310451,-0.2510027587413788,-0.2468748539686203
2024-12-07 16:24:16.298585900,9.5935859375,0.0026631590444594,-0.2350237965583801,-0.2916159331798553
2024-12-07 16:24:16.308613600,9.603613525390625,-0.0506000220775604,-0.2094574570655822,-0.3406180441379547
2024-12-07 16:24:16.318641200,9.61364111328125,-0.115581102669239,-0.2051964104175567,-0.3864243924617767
2024-12-07 16:24:16.328669000,9.6236689453125,-0.1869537681341171,-0.2403501123189926,-0.4077296555042267
2024-12-07 16:24:16.338696400,9.633696533203125,-0.2561959028244018,-0.3053312003612518,-0.3949464857578277
2024-12-07 16:24:16.348724200,9.64372412109375,-0.3169159293174743,-0.3788343966007232,-0.3555317521095276
2024-12-07 16:24:16.358751700,9.653751708984377,-0.3669833242893219,-0.4299670457839966,-0.2948117256164551
2024-12-07 16:24:16.368779500,9.663779541015623,-0.3925496637821197,-0.455533355474472,-0.2234390527009964
2024-12-07 16:24:16.378807000,9.67380712890625,-0.3914843797683716,-0.4395544230937958,-0.1520663797855377
2024-12-07 16:24:16.388834800,9.683834716796875,-0.3787012100219726,-0.4033354520797729,-0.0892158299684524
2024-12-07 16:24:16.398862300,9.6938623046875,-0.3563306927680969,-0.3745733201503753,-0.0487358123064041
2024-12-07 16:24:16.408890000,9.70389013671875,-0.3318296372890472,-0.3585943877696991,-0.0380831733345985
2024-12-07 16:24:16.418917600,9.713917724609376,-0.3083938360214233,-0.3564638495445251,-0.0572579205036163
2024-12-07 16:24:16.428945400,9.7239453125,-0.2796317040920257,-0.3681817352771759,-0.0945421457290649
2024-12-07 16:24:16.438973200,9.73397314453125,-0.2359558939933776,-0.3948133289813995,-0.1296958476305008
2024-12-07 16:24:16.449000700,9.744000732421876,-0.1826927214860916,-0.4395544230937958,-0.148870587348938
2024-12-07 16:24:16.459028500,9.754028564453124,-0.1198421567678451,-0.4960133731365204,-0.1414137482643127
2024-12-07 16:24:16.469056000,9.764055908203124,-0.0452737063169479,-0.5364934206008911,-0.1115863695740699
2024-12-07 16:24:16.479083800,9.774083740234374,0.0388821214437484,-0.5450155138969421,-0.0743021368980407
2024-12-07 16:24:16.489111300,9.784111328125,0.1272990107536316,-0.511992335319519,-0.044474758207798
2024-12-07 16:24:16.499139000,9.79413916015625,0.2008021920919418,-0.4629902243614197,-0.0423442311584949
2024-12-07 16:24:16.509166600,9.80416650390625,0.2583264410495758,-0.4139880836009979,-0.0508663393557071
2024-12-07 16:24:16.519194400,9.8141943359375,0.2945453822612762,-0.3862912356853485,-0.0455400198698043
2024-12-07 16:24:16.529222000,9.824221923828125,0.3094590902328491,-0.4065312445163727,-0.0231694839894771
2024-12-07 16:24:16.539249700,9.834249755859377,0.3169159293174743,-0.4779039025306701,0.0173105336725711
2024-12-07 16:24:16.549277200,9.844277099609377,0.3169159293174743,-0.5567334294319153,0.0695084556937217
2024-12-07 16:24:16.559305000,9.854304931640623,0.3137201368808746,-0.6142576336860657,0.1035968884825706
2024-12-07 16:24:16.569332500,9.86433251953125,0.3179811835289001,-0.6270408034324646,0.0972053036093711
2024-12-07 16:24:16.579360300,9.8743603515625,0.3094590902328491,-0.5652555227279663,0.0556600242853164
2024-12-07 16:24:16.589388000,9.884387939453124,0.2743053734302521,-0.4874912798404693,0.0055926339700818
2024-12-07 16:24:16.599415600,9.89441552734375,0.2157158851623535,-0.4491417706012726,-0.046605285257101
2024-12-07 16:24:16.609443300,9.904443359375,0.1368863731622696,-0.4523375630378723,-0.1137168928980827
2024-12-07 16:24:16.619470800,9.914470947265626,0.0527305491268634,-0.4736428558826446,-0.192546397447586
2024-12-07 16:24:16.629498600,9.92449853515625,-0.0410126484930515,-0.5151881575584412,-0.2745717167854309
2024-12-07 16:24:16.639526100,9.934526123046876,-0.1528653353452682,-0.5620597004890442,-0.3587275445461273
2024-12-07 16:24:16.649554000,9.944553955078124,-0.2753706574440002,-0.5929523706436157,-0.448209673166275
2024-12-07 16:24:16.659581400,9.95458154296875,-0.3925496637821197,-0.6099966168403625,-0.5494097471237183
2024-12-07 16:24:16.669609200,9.964609130859374,-0.4894886314868927,-0.608931303024292,-0.6495444774627686
2024-12-07 16:24:16.679636700,9.97463671875,-0.5491434335708618,-0.5865607857704163,-0.7432876825332642
2024-12-07 16:24:16.689664500,9.98466455078125,-0.5566002726554871,-0.5258407592773438,-0.8231824636459351
2024-12-07 16:24:16.699692000,9.994692138671876,-0.510793924331665,-0.4608596861362457,-0.8636624813079834
2024-12-07 16:24:16.709719800,10.0047197265625,-0.4490086138248443,-0.3884217441082001,-0.8263782858848572
2024-12-07 16:24:16.719747300,10.014747314453125,-0.3925496637821197,-0.3245059251785278,-0.7305045127868652
2024-12-07 16:24:16.729775000,10.024775146484377,-0.3190464675426483,-0.3383543491363525,-0.5920202732086182
2024-12-07 16:24:16.739802600,10.034802734375,-0.2039979845285415,-0.3660512268543243,-0.4215780794620514
2024-12-07 16:24:16.749830400,10.044830322265623,-0.0431431792676448,-0.314918577671051,-0.2649843394756317
2024-12-07 16:24:16.759858200,10.054858154296875,0.132625326514244,-0.2328932583332061,-0.1499358564615249
2024-12-07 16:24:16.769885700,10.0648857421875,0.2519348561763763,-0.146606907248497,-0.1115863695740699
2024-12-07 16:24:16.779913500,10.07491357421875,0.2892190814018249,0.0280963294208049,-0.1243695318698883
2024-12-07 16:24:16.789941000,10.08494091796875,0.2604569494724273,0.2368880063295364,-0.1467400640249252
2024-12-07 16:24:16.799968800,10.09496875,0.1731053441762924,0.3466101586818695,-0.1850895583629608
2024-12-07 16:24:16.809996300,10.104996337890626,0.0303600132465362,0.350871205329895,-0.2468748539686203
2024-12-07 16:24:16.820024000,10.115024169921876,-0.143277958035469,0.3412838280200958,-0.3225085735321045
2024-12-07 16:24:16.830051600,10.125051513671876,-0.311589628458023,0.3167827725410461,-0.3683148920536041
2024-12-07 16:24:16.840079400,10.135079345703126,-0.4106591343879699,0.2624543309211731,-0.3693801760673523
2024-12-07 16:24:16.850107100,10.145107177734374,-0.4447475671768188,0.141014277935028,-0.3640538454055786
2024-12-07 16:24:16.860134700,10.155134765625,-0.4490086138248443,-0.0326237007975578,-0.4130559861660003
2024-12-07 16:24:16.870162400,10.165162353515624,-0.4330296814441681,-0.134889006614685,-0.5313002467155457
2024-12-07 16:24:16.880190200,10.175190185546874,-0.3989412188529968,-0.1039963662624359,-0.6729803085327148
2024-12-07 16:24:16.890218000,10.185218017578125,-0.3488738536834717,0.0568584464490413,-0.7731150984764099
2024-12-07 16:24:16.900245500,10.19524560546875,-0.2689790725708008,0.2486059069633484,-0.7869635224342346
2024-12-07 16:24:16.910273300,10.205273193359377,-0.1794969290494918,0.3902859687805176,-0.7209171652793884
2024-12-07 16:24:16.920301000,10.215301025390623,-0.0985368862748146,0.4669849574565887,-0.617586612701416
2024-12-07 16:24:16.930328800,10.225328857421877,-0.0314252786338329,0.5596628785133362,-0.5302349925041199
2024-12-07 16:24:16.940356400,10.2353564453125,0.0229031685739755,0.7418229579925537,-0.4641886353492737
2024-12-07 16:24:16.950384000,10.245384033203123,0.0751010850071907,0.9719198942184448,-0.4087949097156524
2024-12-07 16:24:16.960412000,10.255411865234375,0.116646371781826,1.109338879585266,-0.381098061800003
2024-12-07 16:24:16.970439700,10.265439697265624,0.1230379492044448,1.0688588619232178,-0.3949464857578277
2024-12-07 16:24:16.980467200,10.27546728515625,0.0974716246128082,0.9357009530067444,-0.4258391261100769
2024-12-07 16:24:16.990495000,10.285494873046876,0.0431431792676448,0.7780419588088989,-0.4354265034198761
2024-12-07 16:24:17.000522800,10.295522705078126,-0.0207726415246725,0.5841639637947083,-0.4119907021522522
2024-12-07 16:24:17.010550500,10.305550537109376,-0.0921453014016151,0.3668501675128937,-0.3661843836307525
2024-12-07 16:24:17.020578000,10.315578125,-0.1794969290494918,0.1793637722730636,-0.3118559420108795
2024-12-07 16:24:17.030605800,10.325605712890624,-0.2572611570358276,0.0557931847870349,-0.2607232630252838
2024-12-07 16:24:17.040633600,10.335633544921874,-0.2924148738384247,0.0057257921434938,-0.2170474678277969
2024-12-07 16:24:17.050661000,10.3456611328125,-0.2721748650074005,0.0259658005088567,-0.1978727281093597
2024-12-07 16:24:17.060689000,10.35568896484375,-0.2189116775989532,0.0760331898927688,-0.2000032514333725
2024-12-07 16:24:17.070716700,10.365716552734376,-0.1294295340776443,0.1197089999914169,-0.2074600905179977
2024-12-07 16:24:17.080744400,10.375744384765625,-0.0271642226725816,0.2123869359493255,-0.2426137924194336
2024-12-07 16:24:17.090772000,10.38577197265625,0.0676442384719848,0.2933469712734222,-0.3129211962223053
2024-12-07 16:24:17.100799700,10.3957998046875,0.1603221744298935,0.3125217258930206,-0.393881231546402
2024-12-07 16:24:17.110827500,10.40582763671875,0.2178464084863662,0.296542763710022,-0.4684496819972992
2024-12-07 16:24:17.120855300,10.415855224609375,0.2327601015567779,0.2656501233577728,-0.5078644156455994
2024-12-07 16:24:17.130882800,10.4258828125,0.2242379933595657,0.2496711611747741,-0.5099949836730957
2024-12-07 16:24:17.140910600,10.43591064453125,0.1933453530073166,0.2368880063295364,-0.4897549450397491
2024-12-07 16:24:17.150938000,10.445938232421875,0.1560611277818679,0.2262353599071502,-0.4577970504760742
2024-12-07 16:24:17.160966000,10.4559658203125,0.1283642649650573,0.2283658981323242,-0.4151864945888519
2024-12-07 16:24:17.170993400,10.465993408203126,0.1017326787114143,0.2326269447803497,-0.3672496378421783
2024-12-07 16:24:17.181021200,10.476021240234376,0.0665789768099784,0.2315616905689239,-0.3289001584053039
2024-12-07 16:24:17.191049000,10.486049072265626,0.0335558056831359,0.2368880063295364,-0.2990727722644806
2024-12-07 16:24:17.201076500,10.496076416015624,0.0015978955198079,0.2496711611747741,-0.2724411785602569
2024-12-07 16:24:17.211104300,10.506104248046874,-0.0260989591479301,0.275237500667572,-0.2522011697292328
2024-12-07 16:24:17.221131800,10.5161318359375,-0.0506000220775604,0.2997385561466217,-0.2308958917856216
2024-12-07 16:24:17.231159600,10.52615966796875,-0.0655137151479721,0.2890859246253967,-0.2010685056447982
2024-12-07 16:24:17.241187000,10.53618701171875,-0.0687095075845718,0.2400837987661361,-0.1776327192783355
2024-12-07 16:24:17.251214800,10.54621484375,-0.061252661049366,0.1729721873998642,-0.1573926955461502
2024-12-07 16:24:17.261242400,10.556242431640625,-0.0463389679789543,0.0909468829631805,-0.1414137482643127
2024-12-07 16:24:17.271270100,10.566270263671877,-0.0335558056831359,0.0344879105687141,-0.1392832249403
2024-12-07 16:24:17.281297700,10.576297607421877,-0.010120004415512,0.0131826372817158,-0.1605884879827499
2024-12-07 16:24:17.291325400,10.586325439453123,0.0133157959207892,0.0003994738799519,-0.204264298081398
2024-12-07 16:24:17.301353000,10.59635302734375,0.0314252786338329,-0.0177100077271461,-0.2394179999828338
2024-12-07 16:24:17.311380700,10.606380615234375,0.035686332732439,-0.0443415977060794,-0.2575274705886841
2024-12-07 16:24:17.321408300,10.616408203125,0.023968432098627,-0.0645816102623939,-0.2628538012504577
2024-12-07 16:24:17.331436000,10.62643603515625,0.0069242138415575,-0.068842664361,-0.2671148478984833
2024-12-07 16:24:17.341463800,10.6364638671875,-0.0090547408908605,-0.0603205524384975,-0.2820285558700561
2024-12-07 16:24:17.351491300,10.6464912109375,-0.0122505314648151,-0.0390152819454669,-0.3043990731239319
2024-12-07 16:24:17.361519000,10.65651904296875,-0.0026631590444594,0.002530001103878,-0.3203780353069305
2024-12-07 16:24:17.371546600,10.666546630859376,-0.007989477366209,0.0259658005088567,-0.3427485823631286
2024-12-07 16:24:17.381574400,10.676574462890626,-0.0175768509507179,0.0259658005088567,-0.3629885911941528
2024-12-07 16:24:17.391602000,10.686601806640626,-0.0410126484930515,0.0195742193609476,-0.372575968503952
2024-12-07 16:24:17.401629700,10.696629638671874,-0.077231615781784,0.0003994738799519,-0.3597927987575531
2024-12-07 16:24:17.411657200,10.7066572265625,-0.1177116334438324,-0.0241015907377004,-0.3491401672363281
2024-12-07 16:24:17.421685000,10.71668505859375,-0.1592569202184677,-0.0347542278468608,-0.3534012138843536
2024-12-07 16:24:17.431712500,10.72671240234375,-0.1901495605707168,-0.0454068630933761,-0.3789675533771515
2024-12-07 16:24:17.441740300,10.736740234375,-0.209324300289154,-0.0230363253504037,-0.4087949097156524
2024-12-07 16:24:17.451767800,10.746767822265625,-0.2253032624721527,0.0195742193609476,-0.4205128252506256
2024-12-07 16:24:17.461795600,10.756795654296877,-0.2604569494724273,0.0387489646673202,-0.4130559861660003
2024-12-07 16:24:17.471823000,10.766822998046877,-0.2700443267822265,0.0813595131039619,-0.3736412227153778
2024-12-07 16:24:17.481851000,10.776850830078123,-0.2753706574440002,0.112252153456211,-0.3331612050533294
2024-12-07 16:24:17.491878700,10.786878662109377,-0.2775011658668518,0.0994689911603927,-0.3086601495742798
2024-12-07 16:24:17.501906200,10.79690625,-0.2721748650074005,0.0653805583715438,-0.2948117256164551
2024-12-07 16:24:17.511934000,10.806933837890623,-0.2572611570358276,0.0504668653011322,-0.2894853949546814
2024-12-07 16:24:17.521961500,10.81696142578125,-0.2391516864299774,0.0675110816955566,-0.2926811873912811
2024-12-07 16:24:17.531989200,10.8269892578125,-0.2189116775989532,0.1047953143715858,-0.3033338189125061
2024-12-07 16:24:17.542016800,10.837016845703126,-0.1965411454439163,0.1665806025266647,-0.3097254037857055
2024-12-07 16:24:17.552044500,10.84704443359375,-0.1731053441762924,0.2390185296535492,-0.3086601495742798
2024-12-07 16:24:17.562072000,10.857072021484376,-0.1464737504720688,0.3039996027946472,-0.3097254037857055
2024-12-07 16:24:17.572099800,10.867099853515626,-0.1219726875424385,0.3561975359916687,-0.3257043659687042
2024-12-07 16:24:17.582127400,10.87712744140625,-0.0953410938382148,0.3956122994422912,-0.3544664680957794
2024-12-07 16:24:17.592155100,10.887155029296874,-0.0751010850071907,0.4265049397945404,-0.3896201848983764
2024-12-07 16:24:17.602182700,10.8971826171875,-0.0665789768099784,0.4478102028369903,-0.4290349185466766
2024-12-07 16:24:17.612210400,10.90721044921875,-0.0697747692465782,0.4542017877101898,-0.4620580971240997
2024-12-07 16:24:17.622238000,10.917238037109374,-0.0814926698803901,0.4648544192314148,-0.4854938983917236
2024-12-07 16:24:17.632265700,10.927265625,-0.0985368862748146,0.4808333814144134,-0.5036033987998962
2024-12-07 16:24:17.642293200,10.937293212890625,-0.1113200485706329,0.4957470595836639,-0.5078644156455994
2024-12-07 16:24:17.652321000,10.947321044921877,-0.1528653353452682,0.5010733604431152,-0.517451822757721
2024-12-07 16:24:17.662348800,10.957348876953125,-0.1901495605707168,0.4925512671470642,-0.525973916053772
2024-12-07 16:24:17.672376300,10.967376220703123,-0.2135853618383407,0.4701807498931885,-0.5206475853919983
2024-12-07 16:24:17.682404000,10.977404052734377,-0.2689790725708008,0.4403533637523651,-0.5313002467155457
2024-12-07 16:24:17.692431600,10.987431640625,-0.3094590902328491,0.4190480709075928,-0.5547360181808472
2024-12-07 16:24:17.702459400,10.99745947265625,-0.3233075141906738,0.4211786091327667,-0.5824328660964966
2024-12-07 16:24:17.712487000,11.00748681640625,-0.3318296372890472,0.4382228255271911,-0.6069339513778687
2024-12-07 16:24:17.722514700,11.0175146484375,-0.3254380524158478,0.4605933725833893,-0.6239781975746155
2024-12-07 16:24:17.732542200,11.027542236328124,-0.3041327595710754,0.4936165511608124,-0.6282392144203186
2024-12-07 16:24:17.742570000,11.037570068359376,-0.2732401192188263,0.52237868309021,-0.6165213584899902
2024-12-07 16:24:17.752597500,11.047597412109376,-0.2423474788665771,0.5468797087669373,-0.5781718492507935
2024-12-07 16:24:17.762625300,11.057625244140626,-0.2199769467115402,0.5181176066398621,-0.5089297294616699
2024-12-07 16:24:17.772652800,11.06765283203125,-0.2146506309509277,0.396677553653717,-0.4130559861660003
2024-12-07 16:24:17.782680600,11.0776806640625,-0.2071937769651413,0.2507364153861999,-0.2660495936870575
2024-12-07 16:24:17.792708000,11.0877080078125,-0.1464737504720688,0.1154479458928108,-0.0753674060106277
2024-12-07 16:24:17.802735900,11.09773583984375,-0.0314252786338329,-0.027297381311655,0.0748347714543342
2024-12-07 16:24:17.812763600,11.107763671875,0.1070589944720268,-0.190282717347145,0.0727042406797409
2024-12-07 16:24:17.822791200,11.117791259765625,0.2348906397819519,-0.3117227852344513,-0.0593884475529193
2024-12-07 16:24:17.832819000,11.12781884765625,0.3360906839370727,-0.3266364634037018,-0.1680453419685363
2024-12-07 16:24:17.842846500,11.137846435546876,0.4202465116977691,-0.2946785688400268,-0.1723063886165619
2024-12-07 16:24:17.852874200,11.147874267578125,0.4937497079372406,-0.3319627940654754,-0.1446095407009124
2024-12-07 16:24:17.862901800,11.15790185546875,0.4681833684444427,-0.4459459781646728,-0.1595232337713241
2024-12-07 16:24:17.872929500,11.167929443359377,0.3680485785007477,-0.54927659034729,-0.1478053331375122
2024-12-07 16:24:17.882957000,11.17795703125,0.2348906397819519,-0.5524723529815674,-0.0636495053768158
2024-12-07 16:24:17.892984800,11.18798486328125,0.0719052925705909,-0.4565986394882202,0.0503337085247039
2024-12-07 16:24:17.903012400,11.198012451171875,-0.0846884623169899,-0.3735080659389496,0.1536642760038375
2024-12-07 16:24:17.913040100,11.2080400390625,-0.2082590460777282,-0.3127880394458771,0.2506032586097717
2024-12-07 16:24:17.923067600,11.218067626953124,-0.2913496196269989,-0.1519332230091095,0.3358243703842163
2024-12-07 16:24:17.933095400,11.228095458984376,-0.3403517305850982,0.057923711836338,0.414653867483139
2024-12-07 16:24:17.943123000,11.238123046875,-0.3616569936275482,0.219843789935112,0.5052012801170349
2024-12-07 16:24:17.953150700,11.248150634765626,-0.3520696461200714,0.2997385561466217,0.6159886717796326
2024-12-07 16:24:17.963178500,11.258178466796876,-0.3190464675426483,0.3306311964988708,0.7448856234550476
2024-12-07 16:24:17.973206000,11.2682060546875,-0.2615222334861755,0.342349112033844,0.8833698630332947
2024-12-07 16:24:17.983233800,11.27823388671875,-0.1880190372467041,0.350871205329895,1.0229194164276123
2024-12-07 16:24:17.993261300,11.28826123046875,-0.1027979403734207,0.350871205329895,1.165664792060852
2024-12-07 16:24:18.003289000,11.2982890625,-0.0058589498512446,0.3455449044704437,1.306279540061951
2024-12-07 16:24:18.013316600,11.308316650390625,0.0921453014016151,0.3636543750762939,1.4351764917373655
2024-12-07 16:24:18.023344400,11.318344482421876,0.1912148296833038,0.3956122994422912,1.5502249002456665
2024-12-07 16:24:18.033372000,11.328371826171876,0.2828274965286255,0.4563323259353637,1.652490258216858
2024-12-07 16:24:18.043399700,11.338399658203125,0.3552654385566711,0.547944962978363,1.744102954864502
2024-12-07 16:24:18.053427200,11.34842724609375,0.4032022953033447,0.6747113466262817,1.8101491928100584
2024-12-07 16:24:18.063455000,11.358455078125,0.4639223217964172,0.8089345693588257,1.845302939414978
2024-12-07 16:24:18.073482500,11.368482421875,0.4862928390502929,0.95807147026062,1.8335850238800049
2024-12-07 16:24:18.083510300,11.37851025390625,0.4724444150924682,1.1807116270065308,1.7686039209365845
2024-12-07 16:24:18.093537800,11.388537841796875,0.4745749533176422,1.3660674095153809,1.6897743940353394
2024-12-07 16:24:18.103565600,11.398565673828124,0.4745749533176422,1.4310485124588013,1.6162712574005127
2024-12-07 16:24:18.113593300,11.40859326171875,0.5075981020927429,1.3191958665847778,1.5875091552734375
2024-12-07 16:24:18.123620900,11.418620849609376,0.4468781054019928,1.1562105417251587,1.5789870023727417
2024-12-07 16:24:18.133648600,11.428648681640626,0.3179811835289001,1.0294440984725952,1.5757912397384644
2024-12-07 16:24:18.143676200,11.43867626953125,0.221042200922966,0.8813725113868713,1.5534206628799438
2024-12-07 16:24:18.153704000,11.448703857421876,0.1688442826271057,0.6842987537384033,1.5065491199493408
2024-12-07 16:24:18.163731500,11.4587314453125,0.1262337416410446,0.4659196734428406,1.4500901699066162
2024-12-07 16:24:18.173759200,11.46875927734375,0.1070589944720268,0.2400837987661361,1.4042837619781494
2024-12-07 16:24:18.183786800,11.478786865234374,0.1464737504720688,0.030226856470108,1.3680648803710938
2024-12-07 16:24:18.193814500,11.488814453125,0.2444780021905899,-0.0762995108962059,1.3403680324554443
2024-12-07 16:24:18.203842000,11.498842041015624,0.3818970024585724,-0.1487374305725097,1.3116058111190796
2024-12-07 16:24:18.213869800,11.508869873046876,0.5278381109237671,-0.2307627350091934,1.2807132005691528
2024-12-07 16:24:18.223897300,11.5188974609375,0.6578003168106079,-0.27763432264328,1.2412984371185305
2024-12-07 16:24:18.233925000,11.528925048828125,0.8058719635009766,-0.2115879952907562,1.1848394870758057
2024-12-07 16:24:18.243952600,11.53895263671875,0.9496825337409972,-0.0848216190934181,1.069790959358215
