time,seconds_elapsed,z,y,x
2024-12-07 16:29:19.162731800,0.132731689453125,-0.0187752712517976,0.0022636852227151,-0.0161121133714914
2024-12-07 16:29:19.172768300,0.142768310546875,-0.0166447442024946,0.0107857948169112,-0.0246342215687036
2024-12-07 16:29:19.182809000,0.15280908203125,-0.01344895362854,0.0246342215687036,-0.0267647486180067
2024-12-07 16:29:19.192853000,0.16285302734375,-0.0145142171531915,0.0427437052130699,-0.0267647486180067
2024-12-07 16:29:19.202899700,0.172899658203125,-0.0187752712517976,0.0565921291708946,-0.0246342215687036
2024-12-07 16:29:19.212948000,0.182947998046875,-0.0219710618257522,0.0693752914667129,-0.021438430994749
2024-12-07 16:29:19.222997200,0.192997314453125,-0.0251668542623519,0.0874847769737243,-0.0225036945194005
2024-12-07 16:29:19.233046300,0.20304638671875,-0.0262321177870035,0.0906805694103241,-0.0129163218662142
2024-12-07 16:29:19.243074800,0.21307470703125,-0.027297381311655,0.0885500386357307,-0.0022636852227151
2024-12-07 16:29:19.253102800,0.223102783203125,-0.0219710618257522,0.0896153002977371,0.0041278963908553
2024-12-07 16:29:19.263131000,0.233130859375,-0.0177100077271461,0.085354246199131,0.0147805325686931
2024-12-07 16:29:19.273159000,0.243158935546875,-0.01344895362854,0.0661795064806938,0.0147805325686931
2024-12-07 16:29:19.283187000,0.25318701171875,-0.0102531621232628,0.0438089668750762,0.0094542149454355
2024-12-07 16:29:19.293215000,0.263215087890625,-0.0123836901038885,0.0150468489155173,0.0009321057004854
2024-12-07 16:29:19.303243300,0.2732431640625,-0.0219710618257522,-0.0062584239058196,-0.0150468489155173
2024-12-07 16:29:19.313271300,0.283271240234375,-0.0283626448363065,0.0011984215816482,-0.0118510583415627
2024-12-07 16:29:19.323299300,0.29329931640625,-0.0304931718856096,0.0161121133714914,-0.0171773768961429
2024-12-07 16:29:19.333327400,0.303327392578125,-0.0358194895088672,0.0267647486180067,-0.0129163218662142
2024-12-07 16:29:19.343355400,0.31335546875,-0.0454068630933761,0.0384826473891735,0.0115847419947385
2024-12-07 16:29:19.353383400,0.323383544921875,-0.0517984442412853,0.035286858677864,0.0137152690440416
2024-12-07 16:29:19.363411500,0.333411376953125,-0.0624510794878006,0.019307903945446,0.0137152690440416
2024-12-07 16:29:19.373439700,0.343439697265625,-0.0731037184596061,0.0406131781637668,0.0318247526884079
2024-12-07 16:29:19.383467800,0.3534677734375,-0.0762995108962059,0.0821584612131118,0.038216333836317
2024-12-07 16:29:19.393495800,0.363495849609375,-0.079495295882225,0.1034637317061424,0.038216333836317
2024-12-07 16:29:19.403523800,0.37352392578125,-0.0752342417836189,0.113051101565361,0.036085806787014
2024-12-07 16:29:19.413551900,0.3835517578125,-0.068842664361,0.1194426864385604,0.0296942237764596
2024-12-07 16:29:19.423580000,0.393579833984375,-0.0517984442412853,0.114116370677948,0.0094542149454355
2024-12-07 16:29:19.433608200,0.403608154296875,-0.0358194895088672,0.0842889845371246,-0.0150468489155173
2024-12-07 16:29:19.443636200,0.41363623046875,-0.0262321177870035,0.0427437052130699,-0.0320910662412643
2024-12-07 16:29:19.453664300,0.423664306640625,-0.0283626448363065,-0.024367906153202,-0.0363521203398704
2024-12-07 16:29:19.463692300,0.4336923828125,-0.0347542278468608,-0.119176372885704,-0.0235689580440521
2024-12-07 16:29:19.473720300,0.44372021484375,-0.0443415977060794,-0.1596563905477523,-0.0225036945194005
2024-12-07 16:29:19.483748400,0.453748291015625,-0.0443415977060794,-0.1426121741533279,-0.0278300121426582
2024-12-07 16:29:19.493776600,0.463776611328125,-0.0336889624595642,-0.1266332119703292,-0.0342215932905674
2024-12-07 16:29:19.503804700,0.4738046875,-0.0315584354102611,-0.1223721578717231,-0.0512658134102821
2024-12-07 16:29:19.513832700,0.483832763671875,-0.04114580899477,-0.1340900659561157,-0.0533963404595851
2024-12-07 16:29:19.523860700,0.49386083984375,-0.0624510794878006,-0.1479384899139404,-0.0448742322623729
2024-12-07 16:29:19.533888800,0.503888671875,-0.0762995108962059,-0.1372858583927154,-0.0267647486180067
2024-12-07 16:29:19.543916800,0.513916748046875,-0.0773647725582122,-0.1372858583927154,-0.0203731674700975
2024-12-07 16:29:19.553945000,0.523945068359375,-0.0858868807554245,-0.1681784987449646,0.0137152690440416
2024-12-07 16:29:19.563973000,0.53397314453125,-0.0976047813892364,-0.2033322006464004,0.038216333836317
2024-12-07 16:29:19.574001200,0.544001220703125,-0.1050616279244422,-0.2267680019140243,0.0211721155792474
2024-12-07 16:29:19.584029200,0.554029296875,-0.1103879436850547,-0.2182458937168121,0.0062584239058196
2024-12-07 16:29:19.594057200,0.56405712890625,-0.09653951972723,-0.2150501012802124,0.0062584239058196
2024-12-07 16:29:19.604085200,0.574085205078125,-0.0677774026989936,-0.2384859025478363,-0.0043942127376794
2024-12-07 16:29:19.614113300,0.58411328125,-0.0230363253504037,-0.2810964286327362,-0.0342215932905674
2024-12-07 16:29:19.624141600,0.5941416015625,0.0366184376180172,-0.3162501454353332,-0.0906805694103241
2024-12-07 16:29:19.634169600,0.604169677734375,0.1069258376955986,-0.3258375227451324,-0.1705753356218338
2024-12-07 16:29:19.644197600,0.61419775390625,0.1772332340478897,-0.3364901542663574,-0.2483395934104919
2024-12-07 16:29:19.654225700,0.6242255859375,0.2358227372169494,-0.3514038324356079,-0.2994722425937652
2024-12-07 16:29:19.664253700,0.634253662109375,0.273106962442398,-0.3854922652244568,-0.3207775056362152
2024-12-07 16:29:19.674281700,0.64428173828125,0.2976080179214477,-0.440885990858078,-0.3303648829460144
2024-12-07 16:29:19.684310000,0.65431005859375,0.3125217258930206,-0.4909533858299255,-0.346343845129013
2024-12-07 16:29:19.694338000,0.664338134765625,0.3210438191890716,-0.5261070728302002,-0.3516701459884643
2024-12-07 16:29:19.704366000,0.674365966796875,0.3253048956394195,-0.5367597341537476,-0.3442133069038391
2024-12-07 16:29:19.714394000,0.68439404296875,0.3231743574142456,-0.5665870904922485,-0.3367564678192138
2024-12-07 16:29:19.724422100,0.694422119140625,0.3061301410198211,-0.6305029392242432,-0.3346259295940399
2024-12-07 16:29:19.734450200,0.7044501953125,0.2656501233577728,-0.7210503220558167,-0.3378217220306396
2024-12-07 16:29:19.744478500,0.714478515625,0.2209090441465377,-0.7902924418449402,-0.3442133069038391
2024-12-07 16:29:19.754506500,0.724506591796875,0.1761679798364639,-0.8456861972808838,-0.3314301371574402
2024-12-07 16:29:19.764534500,0.734534423828125,0.1282311081886291,-0.9159935712814332,-0.3079943358898163
2024-12-07 16:29:19.774562600,0.7445625,0.1005342528223991,-0.9852356910705566,-0.2888196110725403
2024-12-07 16:29:19.784590600,0.754590576171875,0.096273198723793,-1.0246504545211792,-0.3016027808189392
2024-12-07 16:29:19.794618600,0.76461865234375,0.1079910993576049,-1.044890522956848,-0.3058638274669647
2024-12-07 16:29:19.804647000,0.77464697265625,0.1314269006252288,-1.0544778108596802,-0.2845585644245147
2024-12-07 16:29:19.814675000,0.784675048828125,0.1388837546110153,-1.066195726394653,-0.2696448564529419
2024-12-07 16:29:19.824703000,0.794702880859375,0.150601640343666,-1.0491515398025513,-0.2696448564529419
2024-12-07 16:29:19.834731000,0.80473095703125,0.1548627018928527,-0.9969536066055298,-0.300537496805191
2024-12-07 16:29:19.844759000,0.814759033203125,0.1463405936956405,-0.9309072494506836,-0.346343845129013
2024-12-07 16:29:19.854787000,0.824787109375,0.1154479458928108,-0.8701872229576111,-0.3623228073120117
2024-12-07 16:29:19.864815000,0.834815185546875,0.0834900364279747,-0.815858781337738,-0.3399522602558136
2024-12-07 16:29:19.874843400,0.844843505859375,0.030226856470108,-0.7657914161682129,-0.2834932804107666
2024-12-07 16:29:19.884871400,0.854871337890625,-0.0603205524384975,-0.7253113985061646,-0.2099900990724563
2024-12-07 16:29:19.894899500,0.8648994140625,-0.1476721763610839,-0.6752439737319946,-0.1343563795089721
2024-12-07 16:29:19.904927500,0.874927490234375,-0.2243711501359939,-0.5868270993232727,-0.0704405605792999
2024-12-07 16:29:19.914955500,0.88495556640625,-0.2840259075164795,-0.4792354702949524,-0.0278300121426582
2024-12-07 16:29:19.924983600,0.894983642578125,-0.3085269927978515,-0.3684480488300323,-0.0139815853908658
2024-12-07 16:29:19.935011800,0.90501171875,-0.323440670967102,-0.2661827504634857,-0.0129163218662142
2024-12-07 16:29:19.945040000,0.915039794921875,-0.3287670016288757,-0.186287984251976,-0.0225036945194005
2024-12-07 16:29:19.955068000,0.92506787109375,-0.3053312003612518,-0.1511342823505401,-0.0438089668750762
2024-12-07 16:29:19.965096000,0.935095947265625,-0.2818953990936279,-0.1617869138717651,-0.062983714044094
2024-12-07 16:29:19.975124000,0.9451240234375,-0.2541985511779785,-0.2107890397310257,-0.0778974071145057
2024-12-07 16:29:19.985152300,0.95515234375,-0.2286322116851806,-0.2661827504634857,-0.0949416235089302
2024-12-07 16:29:19.995180300,0.96518017578125,-0.2051964104175567,-0.3237069845199585,-0.1045289933681488
2024-12-07 16:29:20.005208600,0.97520849609375,-0.1966743022203445,-0.3524691164493561,-0.1077247858047485
2024-12-07 16:29:20.015236600,0.985236572265625,-0.1892174482345581,-0.3460775315761566,-0.1087900474667549
2024-12-07 16:29:20.025264600,0.9952646484375,-0.1924132406711578,-0.308793306350708,-0.1087900474667549
2024-12-07 16:29:20.035293000,1.00529296875,-0.1956090331077575,-0.2459427416324615,-0.1034637317061424
2024-12-07 16:29:20.045321000,1.015321044921875,-0.1924132406711578,-0.185222715139389,-0.1087900474667549
2024-12-07 16:29:20.055349000,1.025348876953125,-0.1934785097837448,-0.1234374269843101,-0.1215732097625732
2024-12-07 16:29:20.065377300,1.035377197265625,-0.2051964104175567,-0.0691089779138565,-0.1300953179597854
2024-12-07 16:29:20.075405300,1.0454052734375,-0.2179795652627945,-0.0456731803715229,-0.1183774247765541
2024-12-07 16:29:20.085433300,1.055433349609375,-0.2318280041217804,-0.0541952885687351,-0.0949416235089302
2024-12-07 16:29:20.095461600,1.065461669921875,-0.2435459047555923,-0.1063932031393051,-0.0715058222413063
2024-12-07 16:29:20.105489700,1.07548974609375,-0.2307627350091934,-0.1639174371957779,-0.0544616021215915
2024-12-07 16:29:20.115518000,1.08551806640625,-0.2137185186147689,-0.1820269227027893,-0.0768321380019187
2024-12-07 16:29:20.125546000,1.0955458984375,-0.20093534886837,-0.1394163817167282,-0.1098553165793418
2024-12-07 16:29:20.135574000,1.105573974609375,-0.1956090331077575,0.0011984215816482,-0.1300953179597854
2024-12-07 16:29:20.145602300,1.115602294921875,-0.2062616795301437,0.1929458826780319,-0.1471395343542099
2024-12-07 16:29:20.155630300,1.12563037109375,-0.2211753576993942,0.3761712312698364,-0.1524658650159835
2024-12-07 16:29:20.165658400,1.135658447265625,-0.3330280482769012,0.575375497341156,-0.1343563795089721
2024-12-07 16:29:20.175686700,1.145686767578125,-0.4044007062911987,0.725577712059021,-0.049135286360979
2024-12-07 16:29:20.185714700,1.155714599609375,-0.4182491302490234,0.7596661448478699,0.0882837250828743
2024-12-07 16:29:20.195742700,1.16574267578125,-0.457663893699646,0.6510092616081238,0.195875346660614
2024-12-07 16:29:20.205771000,1.17577099609375,-0.4597944319248199,0.5700492262840271,0.2352901101112365
2024-12-07 16:29:20.215799000,1.185799072265625,-0.3468764722347259,0.582832396030426,0.1905490309000015
2024-12-07 16:29:20.225827300,1.195827392578125,-0.1412805914878845,0.5892239809036255,0.0808268785476684
2024-12-07 16:29:20.235855400,1.20585546875,0.0430100187659263,0.5018723607063293,-0.0459394939243793
2024-12-07 16:29:20.245883400,1.21588330078125,0.0781637206673622,0.3665838539600372,-0.1386174261569976
2024-12-07 16:29:20.255911700,1.22591162109375,0.0291615929454565,0.2398174703121185,-0.1961416751146316
2024-12-07 16:29:20.265939700,1.235939697265625,0.0525973923504352,0.1066595241427421,-0.2259690463542938
2024-12-07 16:29:20.275967700,1.2459677734375,0.1399490088224411,-0.036085806787014,-0.2504701018333435
2024-12-07 16:29:20.285996000,1.25599609375,0.2432795912027359,-0.1245026886463165,-0.300537496805191
2024-12-07 16:29:20.296024000,1.266024169921875,0.3434143662452698,-0.1127847880125045,-0.3506048917770386
2024-12-07 16:29:20.306052000,1.276052001953125,0.4126565158367157,-0.0201068520545959,-0.3878891170024872
2024-12-07 16:29:20.316080000,1.286080078125,0.4318312406539917,0.1844237744808197,-0.3878891170024872
2024-12-07 16:29:20.326108200,1.296108154296875,0.4467449486255646,0.2845585644245147,-0.3548659384250641
2024-12-07 16:29:20.336136400,1.306136474609375,0.4243744015693664,0.2131858915090561,-0.2973417043685913
2024-12-07 16:29:20.346164500,1.31616455078125,0.2518016993999481,0.1759016513824463,-0.2142511457204818
2024-12-07 16:29:20.356192500,1.326192626953125,0.0057257921434938,0.1428784877061844,-0.0896153002977371
2024-12-07 16:29:20.366220500,1.336220458984375,-0.2616553902626037,0.1780321896076202,0.0456731803715229
2024-12-07 16:29:20.376248600,1.34624853515625,-0.4693817794322967,0.224903792142868,0.1884185075759887
2024-12-07 16:29:20.386276600,1.356276611328125,-0.5801692008972168,0.2099900990724563,0.3247722387313843
2024-12-07 16:29:20.396304600,1.3663046875,-0.6174534559249878,0.1386174261569976,0.4483428299427032
2024-12-07 16:29:20.406333000,1.3763330078125,-0.5822997093200684,0.0555268675088882,0.5580649971961975
2024-12-07 16:29:20.416361000,1.38636083984375,-0.4842954874038696,-0.036085806787014,0.6550039649009705
2024-12-07 16:29:20.426389000,1.396388916015625,-0.3585943877696991,-0.0414121225476264,0.7817703485488892
2024-12-07 16:29:20.436417000,1.4064169921875,-0.2488722205162048,0.1727058738470077,0.9341030716896056
2024-12-07 16:29:20.446445000,1.416445068359375,-0.1284974217414856,0.4635228514671325,1.0278462171554563
2024-12-07 16:29:20.456473000,1.42647314453125,-0.0145142171531915,0.6744450330734253,1.0534125566482544
2024-12-07 16:29:20.466501400,1.43650146484375,0.084555298089981,0.6179860830307007,0.9681915044784546
2024-12-07 16:29:20.476529400,1.446529296875,0.1846900880336761,0.3399522602558136,0.8595346212387085
2024-12-07 16:29:20.486557400,1.456557373046875,0.2528669536113739,-0.0573910772800445,0.7743135094642639
2024-12-07 16:29:20.496585500,1.46658544921875,0.2784332931041717,-0.4249070286750793,0.6922882199287415
2024-12-07 16:29:20.506613500,1.476613525390625,0.3348922431468963,-0.5474123358726501,0.6784397959709167
2024-12-07 16:29:20.516641500,1.4866416015625,0.4147870242595672,-0.5079975724220276,0.6805703043937683
2024-12-07 16:29:20.526669800,1.496669921875,0.4765723347663879,-0.3780354261398315,0.6283723711967468
2024-12-07 16:29:20.536697900,1.50669775390625,0.5127912759780884,-0.1511342823505401,0.551673412322998
2024-12-07 16:29:20.546726000,1.516725830078125,0.5649892091751099,0.1450090110301971,0.5026713013648987
2024-12-07 16:29:20.556754000,1.52675390625,0.7631282210350037,0.4731102287769317,0.4792354702949524
2024-12-07 16:29:20.566782000,1.536781982421875,1.0986863374710083,0.5221123695373535,0.4153196513652801
2024-12-07 16:29:20.576810000,1.54681005859375,1.269128441810608,0.3612575232982635,0.3077280223369598
2024-12-07 16:29:20.586838000,1.556838134765625,1.280846357345581,0.1183774247765541,0.2331595867872238
2024-12-07 16:29:20.596866300,1.5668662109375,1.1817768812179563,-0.1447426974773407,0.250203788280487
2024-12-07 16:29:20.606894300,1.576894287109375,1.0305094718933103,-0.4249070286750793,0.3269027769565582
2024-12-07 16:29:20.616922400,1.58692236328125,0.8355661630630493,-0.64009028673172,0.384427011013031
2024-12-07 16:29:20.626950400,1.596950439453125,0.6129260659217834,-0.7839008569717407,0.3716438412666321
2024-12-07 16:29:20.636978400,1.606978515625,0.3806985914707184,-0.8456861972808838,0.2842922210693359
2024-12-07 16:29:20.647006500,1.61700634765625,0.0802942439913749,-0.7508777379989624,0.1830921918153762
2024-12-07 16:29:20.657034800,1.62703466796875,-0.0251668542623519,-0.5346291661262512,0.1447426974773407
2024-12-07 16:29:20.667062800,1.637062744140625,0.0270310640335083,-0.3961449265480041,0.1255679577589035
2024-12-07 16:29:20.677090800,1.6470908203125,0.0387489646673202,-0.306662768125534,0.0605868697166442
2024-12-07 16:29:20.687118800,1.657118896484375,0.0781637206673622,-0.1809616535902023,-0.0576573945581913
2024-12-07 16:29:20.697147000,1.66714697265625,0.1463405936956405,-0.0872184634208679,-0.2046637833118438
2024-12-07 16:29:20.707175000,1.6771748046875,0.264584869146347,-0.0201068520545959,-0.3239732980728149
2024-12-07 16:29:20.717203200,1.687203125,0.3828291296958923,-0.0233026426285505,-0.3964112401008606
2024-12-07 16:29:20.727231200,1.697231201171875,0.4563323259353637,-0.0509994961321353,-0.4358259737491607
2024-12-07 16:29:20.737259300,1.70725927734375,0.47231125831604,-0.118111103773117,-0.4869586527347564
2024-12-07 16:29:20.747287300,1.717287353515625,0.4403533637523651,-0.1585911214351654,-0.5338302254676819
2024-12-07 16:29:20.757315300,1.7273154296875,0.3668501675128937,-0.1585911214351654,-0.5487439036369324
2024-12-07 16:29:20.767343400,1.73734326171875,0.2486059069633484,-0.1127847880125045,-0.5348954796791077
2024-12-07 16:29:20.777371600,1.74737158203125,0.1974732428789138,-0.0211721155792474,-0.5316997170448303
2024-12-07 16:29:20.787399700,1.757399658203125,-0.4267712533473968,0.558331310749054,-0.300537496805191
2024-12-07 16:29:20.797427700,1.767427734375,-0.8113313913345337,0.9205209612846376,-0.3548659384250641
2024-12-07 16:29:20.807455700,1.777455810546875,-0.6962829232215881,0.5253081321716309,-0.7703187465667725
2024-12-07 16:29:20.817483800,1.78748388671875,-0.804939866065979,0.4976112842559814,-0.7436871528625488
2024-12-07 16:29:20.827511800,1.79751171875,-0.9743167757987976,0.2952111959457397,-0.7138597965240479
2024-12-07 16:29:20.837539800,1.807539794921875,-1.1543463468551636,0.0459394939243793,-0.671249270439148
2024-12-07 16:29:20.847568100,1.817568115234375,-1.3066790103912354,-0.0882837250828743,-0.5402218103408813
2024-12-07 16:29:20.857596200,1.82759619140625,-1.3599421977996826,-0.373774379491806,-0.4336954653263092
2024-12-07 16:29:20.867624200,1.837624267578125,-1.3428980112075806,-0.7210503220558167,-0.3442133069038391
2024-12-07 16:29:20.877652200,1.84765234375,-1.3077442646026611,-0.907471477985382,-0.2163816839456558
2024-12-07 16:29:20.887680300,1.85768017578125,-1.2203927040100098,-0.9511472582817078,-0.1268995255231857
2024-12-07 16:29:20.897708300,1.867708251953125,-1.0467547178268433,-0.8169240355491638,-0.0917458310723304
2024-12-07 16:29:20.907736600,1.877736572265625,-0.934902012348175,-0.5878923535346985,-0.0693752914667129
2024-12-07 16:29:20.917764600,1.8877646484375,-0.8283756375312805,-0.5005407333374023,-0.0597879216074943
2024-12-07 16:29:20.927792600,1.897792724609375,-0.7708513736724854,-0.594283938407898,-0.060853186994791
2024-12-07 16:29:20.937820700,1.907820556640625,-0.654737651348114,-0.8041408658027649,0.0478037074208259
2024-12-07 16:29:20.947848700,1.9178486328125,-0.5535376071929932,-0.8861662149429321,0.0531300231814384
2024-12-07 16:29:20.957876700,1.927876708984375,-0.4768386483192444,-0.7274419069290161,0.0296942237764596
2024-12-07 16:29:20.967905000,1.937905029296875,-0.4161186218261719,-0.4739091694355011,0.0371510684490203
2024-12-07 16:29:20.977933000,1.94793310546875,-0.4352933466434479,-0.1159805804491043,0.1660479754209518
2024-12-07 16:29:20.987961000,1.957961181640625,-0.4214449226856231,0.2483395934104919,0.239551156759262
2024-12-07 16:29:20.997989000,1.967989013671875,-0.2904174923896789,0.4954807460308075,0.0573910772800445
2024-12-07 16:29:21.008017200,1.97801708984375,-0.080560564994812,0.7586008906364441,-0.2483395934104919
2024-12-07 16:29:21.018045200,1.988045166015625,0.0227700099349021,0.7522093057632446,-0.4688491523265838
2024-12-07 16:29:21.028073500,1.998073486328125,0.0824247747659683,0.5295692086219788,-0.5061333775520325
2024-12-07 16:29:21.038101500,2.0081015625,0.1484711170196533,0.3474090993404388,-0.4550007283687591
2024-12-07 16:29:21.048129500,2.018129638671875,0.2091911435127258,0.2163816839456558,-0.359127014875412
2024-12-07 16:29:21.058157600,2.028157470703125,0.207060620188713,0.0427437052130699,-0.2984069883823395
2024-12-07 16:29:21.068185600,2.038185546875,0.1655153334140777,-0.0115847419947385,-0.29201540350914
2024-12-07 16:29:21.078213600,2.048213623046875,0.112252153456211,0.0544616021215915,-0.3388870060443878
2024-12-07 16:29:21.088241700,2.05824169921875,0.0398142300546169,0.1812279820442199,-0.4038680791854858
2024-12-07 16:29:21.098270000,2.06827001953125,-0.0400805436074733,0.3079943358898163,-0.4230428338050842
2024-12-07 16:29:21.108298000,2.078298095703125,-0.0773647725582122,0.3335606753826141,-0.3868238627910614
2024-12-07 16:29:21.118326000,2.088325927734375,-0.0379500165581703,0.2280995845794677,-0.3388870060443878
2024-12-07 16:29:21.128354000,2.09835400390625,0.0195742193609476,0.0299605391919612,-0.302668035030365
2024-12-07 16:29:21.138382000,2.108382080078125,-0.0571247637271881,-0.1095889955759048,-0.2866890728473663
2024-12-07 16:29:21.148410000,2.11841015625,-0.135954275727272,-0.1234374269843101,-0.2430132627487182
2024-12-07 16:29:21.158438400,2.1284384765625,-0.1444763839244842,-0.0872184634208679,-0.1769669204950332
2024-12-07 16:29:21.168466400,2.138466552734375,-0.1711079776287078,-0.0158457960933446,-0.1322258561849594
2024-12-07 16:29:21.178494500,2.148494384765625,-0.2680469751358032,0.0842889845371246,-0.1119858399033546
2024-12-07 16:29:21.188522500,2.1585224609375,-0.3617901504039764,0.1524658650159835,-0.0949416235089302
2024-12-07 16:29:21.198550500,2.168550537109375,-0.3820301592350006,0.0693752914667129,-0.1002679392695427
2024-12-07 16:29:21.208578600,2.17857861328125,-0.3756386041641235,-0.0808268785476684,-0.1322258561849594
2024-12-07 16:29:21.218606800,2.18860693359375,-0.3649859428405761,-0.1628521829843521,-0.1908153444528579
2024-12-07 16:29:21.228635000,2.198634765625,-0.323440670967102,-0.1937448233366012,-0.2739059031009674
2024-12-07 16:29:21.238663000,2.208662841796875,-0.2786996066570282,-0.2214416861534118,-0.356996476650238
2024-12-07 16:29:21.248691000,2.21869091796875,-0.2499374747276306,-0.2821617126464844,-0.4294344186782837
2024-12-07 16:29:21.258719000,2.228718994140625,-0.2403501123189926,-0.3705785870552063,-0.4922849535942077
2024-12-07 16:29:21.268747000,2.2387470703125,-0.2328932583332061,-0.4643217921257019,-0.5221123695373535
2024-12-07 16:29:21.278775300,2.248775390625,-0.2041311413049698,-0.4696480929851532,-0.5029376149177551
2024-12-07 16:29:21.288803300,2.25880322265625,-0.1327584832906723,-0.3695133328437805,-0.4315649271011352
2024-12-07 16:29:21.298831400,2.268831298828125,-0.0187752712517976,-0.2086585164070129,-0.3431480526924133
2024-12-07 16:29:21.308859400,2.278859375,0.113317422568798,-0.0296942237764596,-0.2962764501571655
2024-12-07 16:29:21.318887400,2.288887451171875,0.217713251709938,0.1407479643821716,-0.3207775056362152
2024-12-07 16:29:21.328915500,2.29891552734375,0.2805638015270233,0.2973417043685913,-0.3804322779178619
2024-12-07 16:29:21.338943500,2.308943603515625,0.3146522343158722,0.3793670237064361,-0.4273038804531097
2024-12-07 16:29:21.348971800,2.3189716796875,0.3061301410198211,0.3548659384250641,-0.4560659825801849
2024-12-07 16:29:21.358999800,2.328999755859375,0.2571280002593994,0.2526006400585174,-0.4826975762844085
2024-12-07 16:29:21.369027800,2.33902783203125,0.1932121962308883,0.0917458310723304,-0.5125249624252319
2024-12-07 16:29:21.379055900,2.349055908203125,0.1388837546110153,-0.1010668873786926,-0.5189165472984314
2024-12-07 16:29:21.389084000,2.359083984375,0.0824247747659683,-0.2864227592945099,-0.515720784664154
2024-12-07 16:29:21.399112000,2.36911181640625,0.0355531722307205,-0.4526038765907287,-0.5167860388755798
2024-12-07 16:29:21.409140200,2.37914013671875,0.0067910556681454,-0.5878923535346985,-0.5167860388755798
2024-12-07 16:29:21.419168300,2.389168212890625,-0.0081226350739598,-0.6411555409431458,-0.5029376149177551
2024-12-07 16:29:21.429196300,2.3991962890625,-0.0070573715493083,-0.6028060913085938,-0.4731102287769317
2024-12-07 16:29:21.439224300,2.409224365234375,0.0280963294208049,-0.4771049618721008,-0.4251733422279358
2024-12-07 16:29:21.449252400,2.41925244140625,0.0824247747659683,-0.2693785429000854,-0.3729754388332367
2024-12-07 16:29:21.459280400,2.4292802734375,0.1388837546110153,0.0011984215816482,-0.3314301371574402
2024-12-07 16:29:21.469308700,2.43930859375,0.1825595498085022,0.2664490640163421,-0.2994722425937652
2024-12-07 16:29:21.479336700,2.449336669921875,0.2145174592733383,0.5040028691291809,-0.2621880173683166
2024-12-07 16:29:21.489364700,2.45936474609375,0.2283658981323242,0.7032071352005005,-0.2280995845794677
2024-12-07 16:29:21.499392800,2.469392822265625,0.2230395674705505,0.8395609259605408,-0.2014679908752441
2024-12-07 16:29:21.509420800,2.4794208984375,0.2091911435127258,0.885367214679718,-0.1940111368894577
2024-12-07 16:29:21.519448800,2.48944873046875,0.1708416491746902,0.838495671749115,-0.2185122072696685
2024-12-07 16:29:21.529477000,2.49947705078125,0.1271658539772033,0.7149250507354736,-0.2472743242979049
2024-12-07 16:29:21.539505200,2.509505126953125,0.0781637206673622,0.5061333775520325,-0.2611227631568908
2024-12-07 16:29:21.549533200,2.519533203125,0.0195742193609476,0.2824280261993408,-0.2611227631568908
2024-12-07 16:29:21.559561200,2.529561279296875,-0.0347542278468608,0.1460742801427841,-0.2526006400585174
2024-12-07 16:29:21.569589200,2.53958935546875,-0.054994236677885,0.0778974071145057,-0.2472743242979049
2024-12-07 16:29:21.579617300,2.5496171875,-0.0507331825792789,0.0725710839033126,-0.2515353858470917
2024-12-07 16:29:21.589645300,2.559645263671875,-0.0113184265792369,0.1173121556639671,-0.2483395934104919
2024-12-07 16:29:21.599673600,2.569673583984375,0.0408794917166233,0.1737711280584335,-0.246209055185318
2024-12-07 16:29:21.609701600,2.57970166015625,0.09733846783638,0.2270343154668808,-0.2440785318613052
2024-12-07 16:29:21.619729700,2.589729736328125,0.1250353157520294,0.2781669795513153,-0.2515353858470917
2024-12-07 16:29:21.629757700,2.5997578125,0.1250353157520294,0.300537496805191,-0.2643185555934906
2024-12-07 16:29:21.639785700,2.60978564453125,0.1356879621744156,0.2952111959457397,-0.2696448564529419
2024-12-07 16:29:21.649813800,2.619813720703125,0.1271658539772033,0.2707101106643677,-0.2739059031009674
2024-12-07 16:29:21.659841800,2.629841796875,0.1047953143715858,0.2419480085372924,-0.2707101106643677
2024-12-07 16:29:21.669869800,2.639869873046875,0.0781637206673622,0.2195774614810943,-0.2728406488895416
2024-12-07 16:29:21.679897900,2.64989794921875,0.0494015999138355,0.2099900990724563,-0.2781669795513153
2024-12-07 16:29:21.689926000,2.65992578125,0.0121173737570643,0.2014679908752441,-0.2707101106643677
2024-12-07 16:29:21.699954000,2.669953857421875,-0.0294279083609581,0.1908153444528579,-0.2536658942699432
2024-12-07 16:29:21.709982000,2.67998193359375,-0.0624510794878006,0.179097443819046,-0.234491154551506
2024-12-07 16:29:21.720010000,2.690010009765625,-0.0880174115300178,0.179097443819046,-0.2185122072696685
2024-12-07 16:29:21.730038000,2.7000380859375,-0.1061268895864486,0.1716406047344207,-0.2185122072696685
2024-12-07 16:29:21.740066000,2.710066162109375,-0.1125184744596481,0.169510081410408,-0.2323606312274933
2024-12-07 16:29:21.750094000,2.720093994140625,-0.1167795285582542,0.157792180776596,-0.2494048476219177
2024-12-07 16:29:21.760122000,2.7301220703125,-0.1167795285582542,0.1290300637483596,-0.2600574791431427
2024-12-07 16:29:21.770150100,2.740150146484375,-0.1050616279244422,0.1332911103963852,-0.2451438009738922
2024-12-07 16:29:21.780178200,2.75017822265625,-0.0986700430512428,0.1631184965372085,-0.2312953621149063
2024-12-07 16:29:21.790206200,2.760206298828125,-0.0848216190934181,0.2035985141992569,-0.2259690463542938
2024-12-07 16:29:21.800234200,2.770234130859375,-0.0677774026989936,0.223838523030281,-0.2280995845794677
2024-12-07 16:29:21.810262300,2.78026220703125,-0.0475373901426792,0.2174469381570816,-0.2451438009738922
2024-12-07 16:29:21.820290300,2.790290283203125,-0.0294279083609581,0.1982721984386444,-0.2771016955375671
2024-12-07 16:29:21.830318300,2.800318359375,-0.0177100077271461,0.1940111368894577,-0.3079943358898163
2024-12-07 16:29:21.840346400,2.810346435546875,-0.015579480677843,0.2323606312274933,-0.3197122514247894
2024-12-07 16:29:21.850374400,2.82037451171875,-0.027297381311655,0.3047985732555389,-0.3133206665515899
2024-12-07 16:29:21.860402400,2.83040234375,-0.0539289712905883,0.3633880615234375,-0.3047985732555389
2024-12-07 16:29:21.870430200,2.84043017578125,-0.0933437272906303,0.4177165031433105,-0.2941459119319916
2024-12-07 16:29:21.880458200,2.850458251953125,-0.1519332230091095,0.4677838981151581,-0.2728406488895416
2024-12-07 16:29:21.890486300,2.860486328125,-0.2201101034879684,0.4741754829883575,-0.2557964324951172
2024-12-07 16:29:21.900514300,2.870514404296875,-0.2541985511779785,0.5093291997909546,-0.2259690463542938
2024-12-07 16:29:21.910542300,2.880542236328125,-0.2914827764034271,0.5466133952140808,-0.2227732539176941
2024-12-07 16:29:21.920570400,2.8905703125,-0.3202448785305023,0.5604618191719055,-0.2611227631568908
2024-12-07 16:29:21.930598400,2.900598388671875,-0.3436806797981262,0.5977460741996765,-0.3292996287345886
2024-12-07 16:29:21.940626400,2.91062646484375,-0.3213101327419281,0.6648576855659485,-0.3665838539600372
2024-12-07 16:29:21.950654500,2.920654541015625,-0.3138532936573028,0.7213166356086731,-0.3953459560871124
2024-12-07 16:29:21.960682500,2.9306826171875,-0.314918577671051,0.7671229839324951,-0.4145207107067108
2024-12-07 16:29:21.970710500,2.94071044921875,-0.3138532936573028,0.7767103314399719,-0.4283691346645355
2024-12-07 16:29:21.980738600,2.950738525390625,-0.3191796243190765,0.7404913902282715,-0.4507396817207336
2024-12-07 16:29:21.990766800,2.960766845703125,-0.3756386041641235,0.7234471440315247,-0.4624575674533844
2024-12-07 16:29:22.000795000,2.970794921875,-0.455533355474472,0.6819018721580505,-0.4677838981151581
2024-12-07 16:29:22.010823000,2.980822998046875,-0.5205144286155701,0.6169208288192749,-0.4667186439037323
2024-12-07 16:29:22.020851000,2.990850830078125,-0.5822997093200684,0.5274386405944824,-0.4667186439037323
2024-12-07 16:29:22.030879000,3.00087890625,-0.6227797269821167,0.4965460002422333,-0.4422175586223602
2024-12-07 16:29:22.040907000,3.010906982421875,-0.6238450407981873,0.5274386405944824,-0.3889544010162353
2024-12-07 16:29:22.050935300,3.020935302734375,-0.5908218622207642,0.5338302254676819,-0.3197122514247894
2024-12-07 16:29:22.060963300,3.03096337890625,-0.5205144286155701,0.4656533598899841,-0.2387522161006927
2024-12-07 16:29:22.070991400,3.040991455078125,-0.4416849315166473,0.3825628161430359,-0.1450090110301971
2024-12-07 16:29:22.081019400,3.051019287109375,-0.3351585865020752,0.3239732980728149,-0.0693752914667129
2024-12-07 16:29:22.091047400,3.06104736328125,-0.212653249502182,0.2877543270587921,-0.0661795064806938
2024-12-07 16:29:22.101075500,3.071075439453125,-0.1050616279244422,0.2408827394247055,-0.1396826952695846
2024-12-07 16:29:22.111103500,3.081103515625,-0.0571247637271881,0.1471395343542099,-0.2035985141992569
2024-12-07 16:29:22.121131800,3.0911318359375,-0.0826910883188247,0.0256994850933551,-0.2004027217626571
2024-12-07 16:29:22.131159800,3.101159912109375,-0.133823737502098,-0.1085237339138984,-0.1258342713117599
2024-12-07 16:29:22.141187800,3.111187744140625,-0.2062616795301437,-0.195875346660614,-0.0288952756673097
2024-12-07 16:29:22.151215900,3.1212158203125,-0.2723080217838287,-0.2512690722942352,0.0627174004912376
2024-12-07 16:29:22.161244000,3.131243896484375,-0.3277017176151275,-0.2565953731536865,0.1255679577589035
2024-12-07 16:29:22.171272000,3.14127197265625,-0.3223754167556762,-0.2438122183084488,0.1649827063083648
2024-12-07 16:29:22.181300200,3.15130029296875,-0.2765690684318542,-0.1894837766885757,0.1756353378295898
2024-12-07 16:29:22.191328300,3.161328369140625,-0.2147837877273559,-0.0669784545898437,0.1617869138717651
2024-12-07 16:29:22.201356300,3.171356201171875,-0.1519332230091095,0.0789626687765121,0.1372858583927154
2024-12-07 16:29:22.211384300,3.18138427734375,-0.0986700430512428,0.1929458826780319,0.1351553201675415
2024-12-07 16:29:22.221412400,3.191412353515625,-0.0592552907764911,0.2834932804107666,0.1735048145055771
2024-12-07 16:29:22.231440400,3.2014404296875,-0.0336889624595642,0.3623228073120117,0.2459427416324615
2024-12-07 16:29:22.241468700,3.21146875,-0.0027963169850409,0.4155859649181366,0.3343596160411834
2024-12-07 16:29:22.251496700,3.22149658203125,0.0387489646673202,0.4368912577629089,0.4312986135482788
2024-12-07 16:29:22.261524700,3.231524658203125,0.0813595131039619,0.434760719537735,0.5378249883651733
2024-12-07 16:29:22.271552800,3.241552734375,0.1261005848646164,0.4123901724815368,0.6518082022666931
2024-12-07 16:29:22.281580800,3.251580810546875,0.1740374416112899,0.3729754388332367,0.7679219245910645
2024-12-07 16:29:22.291608800,3.26160888671875,0.2368880063295364,0.3261038362979889,0.8840356469154358
2024-12-07 16:29:22.301637000,3.27163720703125,0.3093259334564209,0.2834932804107666,0.9937578439712524
2024-12-07 16:29:22.311665200,3.2816650390625,0.3721764981746673,0.2291648387908935,1.1034799814224243
2024-12-07 16:29:22.321693200,3.291693115234375,0.4297007322311401,0.1716406047344207,1.227050542831421
2024-12-07 16:29:22.331721200,3.30172119140625,0.4840291738510132,0.1322258561849594,1.3697959184646606
2024-12-07 16:29:22.341749200,3.311749267578125,0.5383576154708862,0.1439437568187713,1.524259090423584
2024-12-07 16:29:22.351777300,3.32177734375,0.5809681415557861,0.2323606312274933,1.6829833984375
2024-12-07 16:29:22.361805300,3.331805419921875,0.5905555486679077,0.40280282497406,1.8459687232971191
2024-12-07 16:29:22.371833600,3.34183349609375,0.5724460482597351,0.6552702784538269,2.002562522888184
2024-12-07 16:29:22.381861600,3.351861572265625,0.5490102767944336,0.9215862154960632,2.088848829269409
2024-12-07 16:29:22.391889700,3.3618896484375,0.5447492003440857,1.0909631252288818,2.045172929763794
2024-12-07 16:29:22.401917700,3.371917724609375,0.5756418108940125,1.1261168718338013,1.888579249382019
2024-12-07 16:29:22.411945700,3.38194580078125,0.615056574344635,1.0717884302139282,1.6680697202682495
2024-12-07 16:29:22.421973800,3.391973876953125,0.6278397440910339,1.0036115646362305,1.3964275121688845
2024-12-07 16:29:22.432002000,3.402001953125,0.6139913201332092,0.8352998495101929,1.1013494729995728
2024-12-07 16:29:22.442030000,3.412030029296875,0.6299703121185303,0.5412870645523071,0.8318377733230591
2024-12-07 16:29:22.452058000,3.42205810546875,0.7098650336265564,0.2579269707202911,0.6965492367744446
2024-12-07 16:29:22.462086100,3.432086181640625,0.773780882358551,-0.0616521313786506,0.5953491926193237
2024-12-07 16:29:22.472114200,3.4421142578125,0.8004124760627747,-0.4366249442100525,0.4771049618721008
2024-12-07 16:29:22.482142200,3.45214208984375,0.8121303915977478,-0.7828356027603149,0.3599259555339813
2024-12-07 16:29:22.492170500,3.46217041015625,0.8291745781898499,-1.0896315574645996,0.3077280223369598
2024-12-07 16:29:22.502198500,3.472198486328125,0.7514103651046753,-1.3271853923797607,0.3482080399990082
2024-12-07 16:29:22.512226600,3.4822265625,0.6001428961753845,-1.4795180559158323,0.4451470375061035
2024-12-07 16:29:22.522254600,3.492254638671875,0.4573975801467895,-1.5381075143814087,0.5793702602386475
2024-12-07 16:29:22.532282600,3.50228271484375,0.3498059511184692,-1.5231938362121582,0.7061366438865662
2024-12-07 16:29:22.542310700,3.512310546875,0.2603237926959991,-1.4337116479873655,0.7743135094642639
2024-12-07 16:29:22.552339000,3.5223388671875,0.1601890176534652,-1.1929621696472168,0.770052433013916
2024-12-07 16:29:22.562367000,3.532366943359375,0.0984037294983863,-0.8307724595069885,0.7380945682525635
2024-12-07 16:29:22.572395000,3.54239501953125,0.112252153456211,-0.4653870463371277,0.685896635055542
2024-12-07 16:29:22.582423000,3.552423095703125,0.2134522050619125,-0.1660479754209518,0.61878502368927
2024-12-07 16:29:22.592451000,3.562451171875,0.3604585826396942,-0.0094542149454355,0.5484775900840759
2024-12-07 16:29:22.602479000,3.57247900390625,0.4787028431892395,-0.0339552797377109,0.4803007543087005
2024-12-07 16:29:22.612507100,3.582507080078125,0.5063996911048889,-0.2182458937168121,0.4568649530410766
2024-12-07 16:29:22.622535400,3.592535400390625,0.4542017877101898,-0.4153196513652801,0.4696480929851532
2024-12-07 16:29:22.632563500,3.6025634765625,0.3657849133014679,-0.395079642534256,0.449408084154129
2024-12-07 16:29:22.642591500,3.612591552734375,0.2816290855407715,-0.308793306350708,0.4099933505058288
2024-12-07 16:29:22.652619500,3.62261962890625,0.2209090441465377,-0.2012016773223877,0.3652522563934326
2024-12-07 16:29:22.662647600,3.6326474609375,0.1644500792026519,-0.0254331696778535,0.3119890987873077
2024-12-07 16:29:22.672675600,3.642675537109375,0.0952079370617866,0.1194426864385604,0.2821617126464844
2024-12-07 16:29:22.682704000,3.652703857421875,-0.0017310534603893,0.1748363971710205,0.2842922210693359
2024-12-07 16:29:22.692732000,3.66273193359375,-0.1029310971498489,0.1876195520162582,0.2885532975196838
2024-12-07 16:29:22.702760000,3.672760009765625,-0.1849564015865326,0.168444812297821,0.260856419801712
2024-12-07 16:29:22.712788000,3.6827880859375,-0.2648511826992035,0.1588574349880218,0.2097237855195999
2024-12-07 16:29:22.722816000,3.69281591796875,-0.334093302488327,0.1737711280584335,0.1596563905477523
2024-12-07 16:29:22.732844000,3.702843994140625,-0.3564638495445251,0.1993374526500702,0.129829004406929
2024-12-07 16:29:22.742872000,3.7128720703125,-0.3585943877696991,0.2174469381570816,0.0850879326462745
2024-12-07 16:29:22.752900000,3.722900146484375,-0.3724428117275238,0.2600574791431427,0.0126500055193901
2024-12-07 16:29:22.762928000,3.73292822265625,-0.3916175365447998,0.3101248741149902,-0.0757668763399124
2024-12-07 16:29:22.772956200,3.7429560546875,-0.4033354520797729,0.3633880615234375,-0.1524658650159835
2024-12-07 16:29:22.782984200,3.752984130859375,-0.4129228293895721,0.3814975321292877,-0.2121206223964691
2024-12-07 16:29:22.793012200,3.76301220703125,-0.4320975542068481,0.348474383354187,-0.2536658942699432
2024-12-07 16:29:22.803040000,3.7730400390625,-0.4267712533473968,0.2472743242979049,-0.2856238186359405
2024-12-07 16:29:22.813068000,3.783068115234375,-0.4001396596431732,0.0981374159455299,-0.300537496805191
2024-12-07 16:29:22.823096000,3.793095947265625,-0.3735080659389496,-0.0595216043293476,-0.2877543270587921
2024-12-07 16:29:22.833124000,3.8031240234375,-0.323440670967102,-0.2054627239704132,-0.2557964324951172
2024-12-07 16:29:22.843152100,3.813152099609375,-0.2520680129528045,-0.3396859467029571,-0.2270343154668808
2024-12-07 16:29:22.853180200,3.82318017578125,-0.1849564015865326,-0.4771049618721008,-0.2067943066358566
2024-12-07 16:29:22.863208200,3.833208251953125,-0.1157142594456672,-0.6422207951545715,-0.2067943066358566
2024-12-07 16:29:22.873236200,3.843236328125,-0.0379500165581703,-0.7050713896751404,-0.2334259003400802
2024-12-07 16:29:22.883264300,3.85326416015625,0.0387489646673202,-0.6805703043937683,-0.29201540350914
2024-12-07 16:29:22.893292300,3.863292236328125,0.1101216301321983,-0.5751091837882996,-0.3474090993404388
2024-12-07 16:29:22.903320300,3.8733203125,0.1974732428789138,-0.4067975580692291,-0.348474383354187
2024-12-07 16:29:22.913348400,3.883348388671875,0.294412225484848,-0.240616425871849,-0.2888196110725403
2024-12-07 16:29:22.923376400,3.89337646484375,0.3625891208648681,-0.1479384899139404,-0.1940111368894577
2024-12-07 16:29:22.933404400,3.903404296875,0.4041343927383423,-0.1372858583927154,-0.0938763618469238
2024-12-07 16:29:22.943432400,3.913432373046875,0.4030691385269165,-0.2448774725198745,-0.0182426404207944
2024-12-07 16:29:22.953460500,3.92346044921875,0.3785680532455444,-0.4568649530410766,0.0541952885687351
2024-12-07 16:29:22.963488500,3.933488525390625,0.3210438191890716,-0.6752439737319946,0.1234374269843101
2024-12-07 16:29:22.973516500,3.9435166015625,0.2027995586395263,-0.7604650855064392,0.1735048145055771
2024-12-07 16:29:22.983544600,3.953544677734375,0.0430100187659263,-0.6997450590133667,0.1596563905477523
2024-12-07 16:29:22.993572600,3.963572509765625,-0.1263668984174728,-0.5484775900840759,0.0669784545898437
2024-12-07 16:29:23.003600600,3.9736005859375,-0.2786996066570282,-0.384427011013031,-0.0693752914667129
2024-12-07 16:29:23.013628700,3.983628662109375,-0.4246407151222229,-0.2310290485620498,-0.2163816839456558
2024-12-07 16:29:23.023656700,3.99365673828125,-0.5759081840515137,-0.1063932031393051,-0.3708449006080627
2024-12-07 16:29:23.033684500,4.0036845703125,-0.7314366698265076,0.0097205303609371,-0.5391565561294556
2024-12-07 16:29:23.043712500,4.01371240234375,-0.9082704186439514,0.047004759311676,-0.7245124578475952
2024-12-07 16:29:23.053740500,4.023740478515625,-1.0435588359832764,-0.038216333836317,-0.8629966974258423
2024-12-07 16:29:23.063768600,4.0337685546875,-1.0627336502075195,-0.1447426974773407,-0.9034767150878906
2024-12-07 16:29:23.073796600,4.043796630859375,-1.0020135641098022,-0.3237069845199585,-0.8278430104255676
2024-12-07 16:29:23.083824600,4.05382470703125,-0.8912261724472046,-0.8169240355491638,-0.6052029132843018
2024-12-07 16:29:23.093852700,4.063852783203125,-0.5567334294319153,-1.3825790882110596,-0.2632532715797424
2024-12-07 16:29:23.103880700,4.073880615234375,-0.0773647725582122,-1.4954969882965088,0.024367906153202
2024-12-07 16:29:23.113908700,4.08390869140625,0.2922817170619964,-1.1141326427459717,0.1042626798152923
2024-12-07 16:29:23.123936800,4.093936767578125,0.4414186179637909,-0.5751091837882996,0.0275636967271566
2024-12-07 16:29:23.133964800,4.10396484375,0.4083954393863678,0.0406131781637668,-0.062983714044094
2024-12-07 16:29:23.143992800,4.113992919921875,0.2976080179214477,0.6265081763267517,-0.1119858399033546
2024-12-07 16:29:23.154020900,4.124020751953125,0.2166479974985122,0.9546093940734864,-0.1748363971710205
2024-12-07 16:29:23.164049000,4.134048828125,0.1399490088224411,1.0259820222854614,-0.300537496805191
2024-12-07 16:29:23.174077000,4.144076904296875,0.0227700099349021,0.9343693852424622,-0.4368912577629089
2024-12-07 16:29:23.184105200,4.154105224609375,-0.0922784656286239,0.7032071352005005,-0.5274386405944824
2024-12-07 16:29:23.194133200,4.16413330078125,-0.1529984921216964,0.3964112401008606,-0.5604618191719055
2024-12-07 16:29:23.204161300,4.174161376953125,-0.1774995476007461,0.1407479643821716,-0.5508744716644287
2024-12-07 16:29:23.214189300,4.184189208984375,-0.2531332671642303,-0.196940615773201,-0.6020070910453796
2024-12-07 16:29:23.224217300,4.19421728515625,-0.344745934009552,-0.5932186841964722,-0.7117292881011963
2024-12-07 16:29:23.234245400,4.204245361328125,-0.4310322999954223,-0.9383640885353088,-0.7980156540870667
2024-12-07 16:29:23.244273700,4.214273681640625,-0.4619249403476715,-1.1034799814224243,-0.8044071793556213
2024-12-07 16:29:23.254301700,4.2243017578125,-0.4075964987277984,-1.001214623451233,-0.7319692969322205
2024-12-07 16:29:23.264329700,4.234329833984375,-0.3032006621360779,-0.6368945240974426,-0.6201165914535522
2024-12-07 16:29:23.274357800,4.244357666015625,-0.2233058959245681,-0.1138500496745109,-0.4858933687210083
2024-12-07 16:29:23.284385800,4.2543857421875,-0.190282717347145,0.3271690905094147,-0.3399522602558136
2024-12-07 16:29:23.294413800,4.264413818359375,-0.1540637612342834,0.604137659072876,-0.2163816839456558
2024-12-07 16:29:23.304442000,4.274442138671875,-0.0901479348540306,0.7223818898200989,-0.1450090110301971
2024-12-07 16:29:23.314470100,4.28447021484375,-0.0209057983011007,0.7074682116508484,-0.113051101565361
2024-12-07 16:29:23.324498200,4.294498291015625,0.030226856470108,0.6105292439460754,-0.1087900474667549
2024-12-07 16:29:23.334526200,4.304526123046875,0.0536626577377319,0.4358259737491607,-0.1279647946357727
2024-12-07 16:29:23.344554200,4.31455419921875,0.0600542388856411,0.1897500902414322,-0.168444812297821
2024-12-07 16:29:23.354582300,4.324582275390625,0.0419447571039199,-0.0989363640546798,-0.2089248299598693
2024-12-07 16:29:23.364610600,4.334610595703125,-0.003861580742523,-0.3311638236045837,-0.2270343154668808
2024-12-07 16:29:23.374638600,4.344638671875,-0.0219710618257522,-0.4131891429424286,-0.2419480085372924
2024-12-07 16:29:23.384666600,4.35466650390625,0.0035952648613601,-0.4249070286750793,-0.289884865283966
2024-12-07 16:29:23.394694700,4.364694580078125,0.0675110816955566,-0.4057323038578033,-0.3655185997486114
2024-12-07 16:29:23.404722700,4.37472265625,0.1420795321464538,-0.3652522563934326,-0.4422175586223602
2024-12-07 16:29:23.414750700,4.384750732421875,0.207060620188713,-0.3045322299003601,-0.4976112842559814
2024-12-07 16:29:23.424778800,4.39477880859375,0.2539322078227997,-0.2427469491958618,-0.5125249624252319
2024-12-07 16:29:23.434807000,4.40480712890625,0.275237500667572,-0.1713742911815643,-0.4837628602981567
2024-12-07 16:29:23.444835000,4.4148349609375,0.285890132188797,-0.0829574093222618,-0.4336954653263092
2024-12-07 16:29:23.454863000,4.424863037109375,0.2986733019351959,-0.0712395086884498,-0.3953459560871124
2024-12-07 16:29:23.464891100,4.43489111328125,0.2954775094985962,-0.1884185075759887,-0.3910849094390869
2024-12-07 16:29:23.474919200,4.444919189453125,0.2763027548789978,-0.4121238589286804,-0.4155859649181366
2024-12-07 16:29:23.484947200,4.454947265625,0.2486059069633484,-0.6667218804359436,-0.4411523044109344
2024-12-07 16:29:23.494975500,4.4649755859375,0.2113216817378997,-0.8755135536193848,-0.4464786350727081
2024-12-07 16:29:23.505003500,4.47500341796875,0.1548627018928527,-1.0076062679290771,-0.4283691346645355
2024-12-07 16:29:23.515031600,4.485031494140625,0.1165132075548172,-1.055543065071106,-0.3868238627910614
2024-12-07 16:29:23.525059600,4.4950595703125,0.112252153456211,-1.012932538986206,-0.3314301371574402
2024-12-07 16:29:23.535087600,4.505087646484375,0.1346226930618286,-0.8616651296615601,-0.2717753946781158
2024-12-07 16:29:23.545115600,4.51511572265625,0.1825595498085022,-0.6464818716049194,-0.2067943066358566
2024-12-07 16:29:23.555144000,4.52514404296875,0.2528669536113739,-0.4004059731960296,-0.1471395343542099
2024-12-07 16:29:23.565172000,4.535171875,0.2613890767097473,-0.1873532384634018,-0.1396826952695846
2024-12-07 16:29:23.575200000,4.545199951171875,0.2368880063295364,-0.0893489867448806,-0.1620532274246215
2024-12-07 16:29:23.585228000,4.55522802734375,0.2006690353155136,-0.1031974181532859,-0.1897500902414322
2024-12-07 16:29:23.595256000,4.565256103515625,0.1484711170196533,-0.1926795542240142,-0.2195774614810943
2024-12-07 16:29:23.605284000,4.5752841796875,0.0941426753997802,-0.308793306350708,-0.2547311782836914
2024-12-07 16:29:23.615312100,4.58531201171875,0.0334226451814174,-0.3972101807594299,-0.2856238186359405
2024-12-07 16:29:23.625340200,4.595340087890625,-0.027297381311655,-0.4121238589286804,-0.2973417043685913
2024-12-07 16:29:23.635368200,4.6053681640625,-0.080560564994812,-0.3428817391395569,-0.2962764501571655
2024-12-07 16:29:23.645396200,4.615396240234375,-0.0912131965160369,-0.240616425871849,-0.2962764501571655
2024-12-07 16:29:23.655424300,4.62542431640625,-0.0986700430512428,-0.1458079665899276,-0.3197122514247894
2024-12-07 16:29:23.665452300,4.635452392578125,-0.1135837361216545,-0.0872184634208679,-0.3623228073120117
2024-12-07 16:29:23.675480300,4.645480224609375,-0.12423637509346,-0.0861531943082809,-0.4081291258335113
2024-12-07 16:29:23.685508400,4.65550830078125,-0.1370195299386978,-0.1031974181532859,-0.4400870501995086
2024-12-07 16:29:23.695536400,4.665536376953125,-0.1551290154457092,-0.0989363640546798,-0.4432828426361084
2024-12-07 16:29:23.705564400,4.675564453125,-0.1743037700653076,-0.0776310861110687,-0.4230428338050842
2024-12-07 16:29:23.715592400,4.685592529296875,-0.1849564015865326,-0.0286289602518081,-0.3868238627910614
2024-12-07 16:29:23.725620500,4.695620361328125,-0.1828258782625198,0.0800279304385185,-0.3559312224388122
2024-12-07 16:29:23.735648500,4.7056484375,-0.1615206003189087,0.1854890286922454,-0.3410175144672394
2024-12-07 16:29:23.745676500,4.715676513671875,-0.1274321675300598,0.2195774614810943,-0.348474383354187
2024-12-07 16:29:23.755704600,4.72570458984375,-0.0933437272906303,0.1876195520162582,-0.3697796463966369
2024-12-07 16:29:23.765732600,4.735732666015625,-0.0645816102623939,0.1482048034667968,-0.3964112401008606
2024-12-07 16:29:23.775760600,4.7457607421875,-0.0443415977060794,0.1780321896076202,-0.4102596640586853
2024-12-07 16:29:23.785788700,4.75578857421875,-0.0304931718856096,0.2451438009738922,-0.4006722867488861
2024-12-07 16:29:23.795816700,4.765816650390625,-0.0059921080246567,0.3122554123401642,-0.3793670237064361
2024-12-07 16:29:23.805844500,4.775844482421875,-0.0017310534603893,0.4123901724815368,-0.3697796463966369
2024-12-07 16:29:23.815872500,4.78587255859375,-0.003861580742523,0.5487439036369324,-0.3697796463966369
2024-12-07 16:29:23.825900500,4.795900634765625,-0.0017310534603893,0.6574008464813232,-0.3719101548194885
2024-12-07 16:29:23.835928600,4.805928466796875,-0.0102531621232628,0.7596661448478699,-0.3665838539600372
2024-12-07 16:29:23.845956600,4.81595654296875,-0.052863709628582,0.8299735188484192,-0.3474090993404388
2024-12-07 16:29:23.855984600,4.825984619140625,-0.1306279599666595,0.8193209171295166,-0.3175817131996155
2024-12-07 16:29:23.866012700,4.8360126953125,-0.2446111589670181,0.7319692969322205,-0.2952111959457397
2024-12-07 16:29:23.876040700,4.846040771484375,-0.314918577671051,0.6360955238342285,-0.2760364413261413
2024-12-07 16:29:23.886068700,4.85606884765625,-0.3745733201503753,0.5625923871994019,-0.2675143182277679
2024-12-07 16:29:23.896096800,4.8660966796875,-0.447011262178421,0.5093291997909546,-0.2877543270587921
2024-12-07 16:29:23.906124800,4.876124755859375,-0.4832302331924438,0.4752407371997833,-0.3292996287345886
2024-12-07 16:29:23.916152800,4.88615283203125,-0.4842954874038696,0.4603270590305328,-0.3846933245658874
2024-12-07 16:29:23.926180900,4.896180908203125,-0.4651207327842712,0.4773712754249573,-0.4496744275093078
2024-12-07 16:29:23.936209000,4.906208984375,-0.4246407151222229,0.5050681233406067,-0.5071986317634583
2024-12-07 16:29:23.946237000,4.91623681640625,-0.3703122735023498,0.5316997170448303,-0.5434176325798035
2024-12-07 16:29:23.956265000,4.926264892578125,-0.3330280482769012,0.5327649712562561,-0.5498092174530029
2024-12-07 16:29:23.966293000,4.93629296875,-0.3426154255867004,0.4677838981151581,-0.508263885974884
2024-12-07 16:29:23.976321000,4.946321044921875,-0.3713775277137756,0.3229080438613891,-0.4006722867488861
2024-12-07 16:29:23.986349000,4.95634912109375,-0.3394196331501007,0.1407479643821716,-0.2483395934104919
2024-12-07 16:29:23.996377000,4.966377197265625,-0.2339585274457931,-0.0051931603811681,-0.1556616425514221
2024-12-07 16:29:24.006405000,4.976405029296875,-0.12423637509346,-0.0659131854772567,-0.1737711280584335
2024-12-07 16:29:24.016433200,4.98643310546875,-0.0443415977060794,0.0288952756673097,-0.2025332450866699
2024-12-07 16:29:24.026461200,4.996461181640625,0.0067910556681454,0.2483395934104919,-0.1663142889738083
2024-12-07 16:29:24.036489000,5.006489013671875,0.1005342528223991,0.434760719537735,-0.0789626687765121
2024-12-07 16:29:24.046517000,5.01651708984375,0.2496711611747741,0.5285038948059082,-0.0320910662412643
2024-12-07 16:29:24.056545000,5.026544921875,0.3306311964988708,0.5902892351150513,-0.0459394939243793
2024-12-07 16:29:24.066573000,5.036572998046875,0.3253048956394195,0.6978808641433716,-0.0342215932905674
2024-12-07 16:29:24.076601000,5.04660107421875,0.2528669536113739,0.8257125020027161,0.0414121225476264
2024-12-07 16:29:24.086629000,5.056629150390625,0.1101216301321983,0.8736493587493896,0.1596563905477523
2024-12-07 16:29:24.096657200,5.0666572265625,-0.0635163411498069,0.801211416721344,0.2821617126464844
2024-12-07 16:29:24.106685200,5.076685302734375,-0.2147837877273559,0.6989461183547974,0.3982754349708557
2024-12-07 16:29:24.116713200,5.086713134765625,-0.3287670016288757,0.6861629486083984,0.4834965467453003
2024-12-07 16:29:24.126741200,5.0967412109375,-0.3948133289813995,0.6744450330734253,0.543151319026947
2024-12-07 16:29:24.136769300,5.106769287109375,-0.4214449226856231,0.5924197435379028,0.5985450148582458
2024-12-07 16:29:24.146797300,5.11679736328125,-0.4139880836009979,0.4390217661857605,0.6518082022666931
2024-12-07 16:29:24.156825300,5.126825439453125,-0.3692470192909241,0.2568616867065429,0.6986798048019409
2024-12-07 16:29:24.166853400,5.136853271484375,-0.2946785688400268,0.0821584612131118,0.7412903308868408
2024-12-07 16:29:24.176881400,5.14688134765625,-0.1945437788963318,-0.0488689690828323,0.7807050943374634
2024-12-07 16:29:24.186909400,5.156909423828125,-0.0880174115300178,-0.1490037590265274,0.8179892897605896
2024-12-07 16:29:24.196937500,5.1669375,0.0195742193609476,-0.2182458937168121,0.8680567145347595
2024-12-07 16:29:24.206965500,5.176965576171875,0.1367532163858413,-0.2470080107450485,0.9298419952392578
2024-12-07 16:29:24.216993500,5.18699365234375,0.2390185296535492,-0.2352901101112365,1.008671522140503
2024-12-07 16:29:24.227021600,5.197021484375,0.3167827725410461,-0.1703090220689773,1.11200213432312
2024-12-07 16:29:24.237049600,5.207049560546875,0.3828291296958923,-0.0552605502307415,1.2291810512542725
2024-12-07 16:29:24.247077600,5.21707763671875,0.4424838721752167,0.101333200931549,1.3506211042404177
2024-12-07 16:29:24.257105700,5.227105712890625,0.5010733604431152,0.3207775056362152,1.457147479057312
2024-12-07 16:29:24.267133700,5.2371337890625,0.547944962978363,0.6073334217071533,1.5466296672821045
2024-12-07 16:29:24.277162000,5.247161865234375,0.5894902944564819,0.914129376411438,1.6297202110290527
2024-12-07 16:29:24.287190000,5.25718994140625,0.631035566329956,1.2102726697921753,1.7138760089874268
2024-12-07 16:29:24.297218000,5.267218017578125,0.6512755751609802,1.4819148778915403,1.7820528745651243
2024-12-07 16:29:24.307246000,5.27724609375,0.6427534222602844,1.6395739316940308,1.8012276887893677
2024-12-07 16:29:24.317274000,5.287274169921875,0.6214481592178345,1.6470307111740112,1.7405076026916504
2024-12-07 16:29:24.327302100,5.29730224609375,0.5905555486679077,1.5692665576934814,1.6094802618026731
2024-12-07 16:29:24.337330400,5.307330322265625,0.5649892091751099,1.4520875215530396,1.4305158853530884
2024-12-07 16:29:24.347358500,5.3173583984375,0.5585976243019104,1.2635358572006226,1.196157932281494
2024-12-07 16:29:24.357386500,5.327386474609375,0.6022734045982361,1.035569429397583,1.0044105052947998
2024-12-07 16:29:24.367414500,5.33741455078125,0.6555365920066833,0.9119988083839417,0.9106672406196594
2024-12-07 16:29:24.377442600,5.347442626953125,0.6885597705841064,0.8608661890029907,0.8084019422531128
2024-12-07 16:29:24.387470600,5.357470703125,0.727974534034729,0.7351650595664978,0.6986798048019409
2024-12-07 16:29:24.397499000,5.367498779296875,0.7695198059082031,0.5306344628334045,0.6198502779006958
2024-12-07 16:29:24.407527000,5.37752685546875,0.8451535701751709,0.3143859207630157,0.5687175989151001
2024-12-07 16:29:24.417555000,5.387554931640625,0.937831461429596,0.1322258561849594,0.5548691749572754
2024-12-07 16:29:24.427583000,5.3975830078125,1.033705234527588,-0.0414121225476264,0.5836313366889954
2024-12-07 16:29:24.437611000,5.407611083984375,1.0688588619232178,-0.1596563905477523,0.6219807863235474
2024-12-07 16:29:24.447639000,5.41763916015625,1.0731199979782104,-0.2225069403648376,0.6795050501823425
2024-12-07 16:29:24.457667300,5.427667236328125,1.0571409463882446,-0.2906838059425354,0.7455514073371887
2024-12-07 16:29:24.467695400,5.4376953125,0.9740504622459412,-0.3471427857875824,0.7881619334220886
2024-12-07 16:29:24.477723400,5.447723388671875,0.8600672483444214,-0.4771049618721008,0.7945535182952881
2024-12-07 16:29:24.487751400,5.45775146484375,0.7556713819503784,-0.7050713896751404,0.8062714338302612
2024-12-07 16:29:24.497779500,5.467779541015625,0.6566019058227539,-0.8105324506759644,0.7892271876335144
2024-12-07 16:29:24.507807500,5.477807373046875,0.5873597264289856,-0.8318377733230591,0.7498124241828918
2024-12-07 16:29:24.517835500,5.48783544921875,0.5127912759780884,-0.7892271876335144,0.7093324065208435
2024-12-07 16:29:24.527863800,5.49786376953125,0.4243744015693664,-0.7072018980979919,0.6539387106895447
2024-12-07 16:29:24.537891800,5.507891845703125,0.3487406969070434,-0.6358292102813721,0.5783050060272217
2024-12-07 16:29:24.547920000,5.517919921875,0.2613890767097473,-0.5218459963798523,0.4643217921257019
2024-12-07 16:29:24.557948000,5.527947998046875,0.2006690353155136,-0.4323638677597046,0.319445937871933
2024-12-07 16:29:24.567976000,5.537975830078125,0.163384810090065,-0.3492733240127563,0.1596563905477523
2024-12-07 16:29:24.578004000,5.54800390625,0.0739026665687561,-0.1713742911815643,-0.0161121133714914
2024-12-07 16:29:24.588032000,5.558031982421875,-0.0251668542623519,-0.0957405716180801,-0.1854890286922454
2024-12-07 16:29:24.598060000,5.56806005859375,-0.1274321675300598,-0.1532648056745529,-0.3207775056362152
2024-12-07 16:29:24.608088000,5.578088134765625,-0.2296974658966064,-0.2235722094774246,-0.4283691346645355
2024-12-07 16:29:24.618116000,5.5881162109375,-0.3095922470092773,-0.2491385340690612,-0.5178512930870056
2024-12-07 16:29:24.628144000,5.59814404296875,-0.3724428117275238,-0.2576606571674347,-0.6094639897346497
2024-12-07 16:29:24.638172200,5.608172119140625,-0.4406196773052215,-0.2384859025478363,-0.7149250507354736
2024-12-07 16:29:24.648200200,5.6182001953125,-0.5087965726852417,-0.1884185075759887,-0.8289082646369934
2024-12-07 16:29:24.658228200,5.628228271484375,-0.57058185338974,-0.0968058332800865,-0.9173251390457152
2024-12-07 16:29:24.668256300,5.63825634765625,-0.6195839643478394,0.0139815853908658,-0.9503483176231384
2024-12-07 16:29:24.678284300,5.6482841796875,-0.6483460664749146,0.1450090110301971,-0.9151946306228638
2024-12-07 16:29:24.688312300,5.658312255859375,-0.654737651348114,0.2323606312274933,-0.8065377473831177
2024-12-07 16:29:24.698340400,5.66834033203125,-0.6536723971366882,0.1950764060020446,-0.6435524225234985
2024-12-07 16:29:24.708368400,5.678368408203125,-0.6515418887138367,0.0704405605792999,-0.4667186439037323
2024-12-07 16:29:24.718396400,5.688396484375,-0.6355628967285156,-0.0573910772800445,-0.3058638274669647
2024-12-07 16:29:24.728424400,5.698424560546875,-0.5929523706436157,-0.1639174371957779,-0.168444812297821
2024-12-07 16:29:24.738452500,5.708452392578125,-0.5237102508544922,-0.2193111479282379,-0.0416784398257732
2024-12-07 16:29:24.748480500,5.71848046875,-0.4193144142627716,-0.3130543529987335,0.0691089779138565
2024-12-07 16:29:24.758508500,5.728508544921875,-0.2882869839668274,-0.4281028211116791,0.1703090220689773
2024-12-07 16:29:24.768536600,5.73853662109375,-0.1263668984174728,-0.5207807421684265,0.2565953731536865
2024-12-07 16:29:24.778564600,5.748564697265625,0.0824247747659683,-0.5495429039001465,0.3364901542663574
2024-12-07 16:29:24.788592600,5.758592529296875,0.294412225484848,-0.4877575933933258,0.3993407189846039
2024-12-07 16:29:24.798620400,5.768620361328125,0.5213133692741394,-0.4121238589286804,0.4004059731960296
2024-12-07 16:29:24.808648400,5.7786484375,0.7045387625694275,-0.4888228476047516,0.3141196072101593
2024-12-07 16:29:24.818676500,5.788676513671875,0.7748461365699768,-0.753008246421814,0.2310290485620498
2024-12-07 16:29:24.828704500,5.79870458984375,0.7982819676399231,-1.1588736772537231,0.2065279930830001
2024-12-07 16:29:24.838732500,5.808732666015625,0.7609977126121521,-1.5136064291000366,0.2086585164070129
2024-12-07 16:29:24.848760600,5.818760498046875,0.6640587449073792,-1.5146716833114624,0.1990711390972137
2024-12-07 16:29:24.858788600,5.82878857421875,0.5330312848091125,-1.1365031003952026,0.1617869138717651
2024-12-07 16:29:24.868816600,5.838816650390625,0.3071953952312469,-0.7008103132247925,0.1095889955759048
2024-12-07 16:29:24.878844700,5.8488447265625,0.0824247747659683,-0.4355596601963043,0.0605868697166442
2024-12-07 16:29:24.888872700,5.858872802734375,-0.0858868807554245,-0.317315399646759,-0.033156331628561
2024-12-07 16:29:24.898900700,5.868900634765625,-0.2755038142204284,-0.2970753908157348,-0.1897500902414322
2024-12-07 16:29:24.908928800,5.8789287109375,-0.4970786571502685,-0.3077280223369598,-0.3825628161430359
2024-12-07 16:29:24.918956800,5.888956787109375,-0.737828254699707,-0.3055975139141083,-0.5956155061721802
2024-12-07 16:29:24.928984800,5.89898486328125,-1.0318410396575928,-0.3918838500976562,-0.8512787818908691
2024-12-07 16:29:24.939012900,5.909012939453125,-1.3993569612503052,-0.5367597341537476,-1.149552583694458
2024-12-07 16:29:24.949041000,5.919041015625,-1.6752601861953735,-0.5878923535346985,-1.42439067363739
2024-12-07 16:29:24.959069000,5.92906884765625,-1.655020236968994,-0.4014712274074554,-1.5948327779769895
2024-12-07 16:29:24.969097000,5.939096923828125,-1.3194621801376345,-0.3343596160411834,-1.5863107442855835
2024-12-07 16:29:24.979125000,5.949125,-0.776177704334259,-0.5303681492805481,-1.3008201122283936
2024-12-07 16:29:24.989153000,5.959153076171875,-0.2733732759952545,-1.0235852003097534,-0.6808366179466248
2024-12-07 16:29:24.999181000,5.96918115234375,0.0472710728645324,-1.6563518047332764,0.0467384420335292
2024-12-07 16:29:25.009209000,5.979208984375,0.2805638015270233,-1.7820528745651243,0.505867063999176
2024-12-07 16:29:25.019237000,5.989237060546875,0.4211786091327667,-1.0992189645767212,0.6326334476470947
2024-12-07 16:29:25.029265000,5.999264892578125,0.4147870242595672,0.0235689580440521,0.5293028950691223
2024-12-07 16:29:25.039293000,6.00929296875,0.2251701056957245,0.9301083087921144,0.3375554084777832
2024-12-07 16:29:25.049321000,6.019321044921875,0.0035952648613601,1.3349084854125977,0.1031974181532859
2024-12-07 16:29:25.059349000,6.029348876953125,-0.1434111148118972,1.3668663501739502,-0.1290300637483596
2024-12-07 16:29:25.069377000,6.039376953125,-0.2893522381782532,1.1016157865524292,-0.356996476650238
2024-12-07 16:29:25.079405000,6.049405029296875,-0.436358630657196,0.604137659072876,-0.5572660565376282
2024-12-07 16:29:25.089433000,6.05943310546875,-0.5130575895309448,0.0107857948169112,-0.5775060653686523
2024-12-07 16:29:25.099461000,6.069461181640625,-0.4842954874038696,-0.6848313808441162,-0.4624575674533844
2024-12-07 16:29:25.109489200,6.0794892578125,-0.436358630657196,-1.4337116479873655,-0.3857586085796356
2024-12-07 16:29:25.119517200,6.08951708984375,-0.4150533378124237,-1.9642130136489868,-0.4070638716220855
2024-12-07 16:29:25.129545200,6.099545166015625,-0.3681817352771759,-2.1410467624664307,-0.4933502376079559
2024-12-07 16:29:25.139573200,6.1095732421875,-0.2755038142204284,-1.9524950981140137,-0.5966808199882507
2024-12-07 16:29:25.149601300,6.119601318359375,-0.1231711059808731,-1.44010329246521,-0.6520745158195496
2024-12-07 16:29:25.159629300,6.12962939453125,0.0717721357941627,-0.7327682375907898,-0.6360955238342285
2024-12-07 16:29:25.169657300,6.1396572265625,0.2571280002593994,-0.0691089779138565,-0.5487439036369324
2024-12-07 16:29:25.179685400,6.149685302734375,0.3636543750762939,0.3857586085796356,-0.4017375409603119
2024-12-07 16:29:25.189713400,6.15971337890625,0.4158523082733154,0.5849629044532776,-0.2440785318613052
2024-12-07 16:29:25.199741400,6.169741455078125,0.4169175624847412,0.5924197435379028,-0.1322258561849594
2024-12-07 16:29:25.209769500,6.17976953125,0.3551322519779205,0.4177165031433105,-0.0832237228751182
2024-12-07 16:29:25.219797500,6.189797607421875,0.285890132188797,0.0960068851709365,-0.0683100298047065
2024-12-07 16:29:25.229825500,6.199825439453125,0.2059953510761261,-0.3290333151817322,-0.1109205782413482
2024-12-07 16:29:25.239853600,6.209853515625,0.1261005848646164,-0.7625955939292908,-0.1705753356218338
2024-12-07 16:29:25.249881600,6.219881591796875,0.0547279193997383,-1.1024147272109983,-0.1961416751146316
2024-12-07 16:29:25.259909400,6.229909423828125,-0.003861580742523,-1.3101410865783691,-0.2153164148330688
2024-12-07 16:29:25.269937400,6.2399375,-0.0294279083609581,-1.3847095966339111,-0.2589922249317169
2024-12-07 16:29:25.279965400,6.24996533203125,-0.0006657897611148,-1.372991681098938,-0.3346259295940399
2024-12-07 16:29:25.289993500,6.259993408203125,0.0611195005476474,-1.234507441520691,-0.4454133510589599
2024-12-07 16:29:25.300021500,6.270021484375,0.1250353157520294,-0.9159935712814332,-0.5711144804954529
2024-12-07 16:29:25.310049500,6.280049560546875,0.1665806025266647,-0.514389157295227,-0.6574008464813232
2024-12-07 16:29:25.320077600,6.29007763671875,0.1857553422451019,-0.1436774283647537,-0.658466100692749
2024-12-07 16:29:25.330105600,6.300105712890625,0.2006690353155136,0.1567269116640091,-0.5838976502418518
2024-12-07 16:29:25.340133600,6.310133544921875,0.217713251709938,0.3729754388332367,-0.4880239069461822
2024-12-07 16:29:25.350161700,6.32016162109375,0.2283658981323242,0.4667186439037323,-0.4198470413684845
2024-12-07 16:29:25.360189700,6.330189697265625,0.2241048365831375,0.413455456495285,-0.3825628161430359
2024-12-07 16:29:25.370217700,6.3402177734375,0.207060620188713,0.2866890728473663,-0.3729754388332367
2024-12-07 16:29:25.380245800,6.350245849609375,0.1825595498085022,0.113051101565361,-0.3719101548194885
2024-12-07 16:29:25.390273800,6.360273681640625,0.1292963773012161,-0.0552605502307415,-0.3644533157348633
2024-12-07 16:29:25.400301800,6.3703017578125,0.06964161247015,-0.140481635928154,-0.3474090993404388
2024-12-07 16:29:25.410329900,6.380329833984375,0.0003994738799519,-0.1447426974773407,-0.3452785909175873
2024-12-07 16:29:25.420358000,6.39035791015625,-0.0475373901426792,-0.1010668873786926,-0.3367564678192138
2024-12-07 16:29:25.430386000,6.400385986328125,-0.080560564994812,-0.0233026426285505,-0.3197122514247894
2024-12-07 16:29:25.440414000,6.4104140625,-0.1008005738258361,0.0619184486567974,-0.300537496805191
2024-12-07 16:29:25.450442000,6.42044189453125,-0.0986700430512428,0.1545963883399963,-0.2834932804107666
2024-12-07 16:29:25.460470000,6.430469970703125,-0.0699079260230064,0.235556423664093,-0.2739059031009674
2024-12-07 16:29:25.470498000,6.440498046875,-0.0390152819454669,0.2749711871147156,-0.2717753946781158
2024-12-07 16:29:25.480526000,6.450526123046875,-0.003861580742523,0.2472743242979049,-0.2771016955375671
2024-12-07 16:29:25.490553900,6.460553955078125,0.0270310640335083,0.1514005959033966,-0.3058638274669647
2024-12-07 16:29:25.500582000,6.470581787109375,0.0408794917166233,0.035286858677864,-0.3559312224388122
2024-12-07 16:29:25.510610000,6.48060986328125,0.0483363382518291,-0.0957405716180801,-0.3964112401008606
2024-12-07 16:29:25.520638000,6.490637939453125,0.0504668653011322,-0.1884185075759887,-0.4187817573547363
2024-12-07 16:29:25.530666000,6.500666015625,0.0504668653011322,-0.2193111479282379,-0.4315649271011352
2024-12-07 16:29:25.540694000,6.510694091796875,0.032357383519411,-0.2139848321676254,-0.4262386262416839
2024-12-07 16:29:25.550722000,6.52072216796875,0.0110521102324128,-0.1926795542240142,-0.3974764943122864
2024-12-07 16:29:25.560750000,6.53075,-0.0059921080246567,-0.1575258672237396,-0.3580617308616638
2024-12-07 16:29:25.570778000,6.540778076171875,-0.0198405347764492,-0.0925447791814804,-0.3186469972133636
2024-12-07 16:29:25.580806100,6.55080615234375,-0.0209057983011007,-0.0126500055193901,-0.2888196110725403
2024-12-07 16:29:25.590834200,6.560834228515625,-0.0177100077271461,0.0438089668750762,-0.289884865283966
2024-12-07 16:29:25.600862200,6.5708623046875,-0.0219710618257522,0.0832237228751182,-0.3197122514247894
2024-12-07 16:29:25.610890200,6.58089013671875,-0.0390152819454669,0.1386174261569976,-0.3538006842136383
2024-12-07 16:29:25.620918300,6.590918212890625,-0.068842664361,0.1982721984386444,-0.3697796463966369
2024-12-07 16:29:25.630946300,6.6009462890625,-0.1093226820230484,0.2472743242979049,-0.3729754388332367
2024-12-07 16:29:25.640974300,6.610974365234375,-0.1540637612342834,0.2739059031009674,-0.3655185997486114
2024-12-07 16:29:25.651002400,6.62100244140625,-0.1956090331077575,0.2781669795513153,-0.359127014875412
2024-12-07 16:29:25.661030400,6.631030517578125,-0.2296974658966064,0.2653838098049164,-0.356996476650238
2024-12-07 16:29:25.671058400,6.641058349609375,-0.2414153665304184,0.2600574791431427,-0.367649108171463
2024-12-07 16:29:25.681086500,6.65108642578125,-0.2595248520374298,0.2994722425937652,-0.3932154476642608
2024-12-07 16:29:25.691114800,6.66111474609375,-0.2637858986854553,0.3857586085796356,-0.4358259737491607
2024-12-07 16:29:25.701142800,6.671142822265625,-0.202000617980957,0.4635228514671325,-0.4581965208053589
2024-12-07 16:29:25.711170800,6.6811708984375,-0.1572595387697219,0.521047055721283,-0.4645881056785583
2024-12-07 16:29:25.721198800,6.69119873046875,-0.1508679687976837,0.5945502519607544,-0.4667186439037323
2024-12-07 16:29:25.731227000,6.701226806640625,-0.1103879436850547,0.6286386847496033,-0.4656533598899841
2024-12-07 16:29:25.741255000,6.7112548828125,-0.0720384567975997,0.575375497341156,-0.4603270590305328
2024-12-07 16:29:25.751283200,6.721283203125,-0.0507331825792789,0.5391565561294556,-0.4635228514671325
2024-12-07 16:29:25.761311200,6.731311279296875,-0.0390152819454669,0.5636576414108276,-0.4741754829883575
2024-12-07 16:29:25.771339300,6.74133935546875,-0.0422110706567764,0.6456829309463501,-0.478436529636383
2024-12-07 16:29:25.781367300,6.7513671875,-0.0102531621232628,0.7671229839324951,-0.4613923132419586
2024-12-07 16:29:25.791395300,6.761395263671875,-0.0262321177870035,0.9034767150878906,-0.4571312665939331
2024-12-07 16:29:25.801423400,6.77142333984375,-0.0336889624595642,1.005742073059082,-0.4550007283687591
2024-12-07 16:29:25.811451600,6.78145166015625,-0.068842664361,1.022786259651184,-0.4795017838478088
2024-12-07 16:29:25.821479700,6.791479736328125,-0.1391500681638717,0.9652619957923888,-0.5071986317634583
2024-12-07 16:29:25.831507700,6.8015078125,-0.1977395564317703,0.847017765045166,-0.5029376149177551
2024-12-07 16:29:25.841535700,6.81153564453125,-0.2786996066570282,0.763927161693573,-0.4858933687210083
2024-12-07 16:29:25.851563800,6.821563720703125,-0.3649859428405761,0.7532745599746704,-0.4667186439037323
2024-12-07 16:29:25.861591800,6.831591796875,-0.4416849315166473,0.7884282469749451,-0.4539354741573334
2024-12-07 16:29:25.871619800,6.841619873046875,-0.5237102508544922,0.8257125020027161,-0.4326302111148834
2024-12-07 16:29:25.881648000,6.851648193359375,-0.587626039981842,0.847017765045166,-0.3751059472560882
2024-12-07 16:29:25.891676200,6.86167626953125,-0.5961481928825378,0.8161250948905945,-0.2717753946781158
2024-12-07 16:29:25.901704200,6.8717041015625,-0.5556681752204895,0.7202513813972473,-0.1311605870723724
2024-12-07 16:29:25.911732200,6.881732177734375,-0.4374238848686218,0.5689839720726013,0.0083889514207839
2024-12-07 16:29:25.921760300,6.89176025390625,-0.2510027587413788,0.3356912136077881,0.0115847419947385
2024-12-07 16:29:25.931788300,6.901788330078125,-0.09653951972723,0.0768321380019187,-0.1332911103963852
2024-12-07 16:29:25.941816300,6.91181640625,0.0153131652623415,-0.1010668873786926,-0.2472743242979049
2024-12-07 16:29:25.951844400,6.92184423828125,0.1292963773012161,-0.2097237855195999,-0.2131858915090561
2024-12-07 16:29:25.961872400,6.931872314453125,0.2986733019351959,-0.3141196072101593,-0.1162468940019607
2024-12-07 16:29:25.971900400,6.941900390625,0.4808333814144134,-0.3929491341114044,-0.0992026776075363
2024-12-07 16:29:25.981928400,6.951928466796875,0.5628587007522583,-0.2938795983791351,-0.1929458826780319
2024-12-07 16:29:25.991956500,6.96195654296875,0.5862944722175598,-0.0595216043293476,-0.2707101106643677
2024-12-07 16:29:26.001984500,6.971984619140625,0.5266396999359131,0.1066595241427421,-0.2419480085372924
2024-12-07 16:29:26.012012500,6.982012451171875,0.3892207145690918,0.1865542978048324,-0.1183774247765541
2024-12-07 16:29:26.022040600,6.99204052734375,0.2059953510761261,0.2579269707202911,0.0233026426285505
2024-12-07 16:29:26.032068600,7.002068603515625,0.018508955836296,0.3303648829460144,0.140481635928154
2024-12-07 16:29:26.042096600,7.0120966796875,-0.1476721763610839,0.4038680791854858,0.2459427416324615
2024-12-07 16:29:26.052124700,7.022124755859375,-0.2531332671642303,0.4486091434955597,0.3450122475624084
2024-12-07 16:29:26.062152700,7.032152587890625,-0.2957438230514526,0.4581965208053589,0.4249070286750793
2024-12-07 16:29:26.072180700,7.0421806640625,-0.279764860868454,0.4251733422279358,0.4824312627315521
2024-12-07 16:29:26.082208800,7.052208740234375,-0.2201101034879684,0.3900196552276611,0.5324986577033997
2024-12-07 16:29:26.092236800,7.06223681640625,-0.133823737502098,0.3388870060443878,0.6038713455200195
2024-12-07 16:29:26.102264800,7.072264892578125,-0.0304931718856096,0.281362771987915,0.6752439737319946
2024-12-07 16:29:26.112292900,7.08229296875,0.0802942439913749,0.2046637833118438,0.7508777379989624
2024-12-07 16:29:26.122321000,7.09232080078125,0.1740374416112899,0.0992026776075363,0.837164044380188
2024-12-07 16:29:26.132349000,7.102348876953125,0.2507364153861999,-0.0350205413997173,0.93303781747818
2024-12-07 16:29:26.142377000,7.112376953125,0.3125217258930206,-0.1042626798152923,1.0246504545211792
2024-12-07 16:29:26.152404700,7.12240478515625,0.3530017435550689,-0.0968058332800865,1.1066757440567017
2024-12-07 16:29:26.162432800,7.132432861328125,0.3764375448226928,-0.0573910772800445,1.2004189491271973
2024-12-07 16:29:26.172460800,7.142460693359375,0.3806985914707184,0.0022636852227151,1.300553798675537
2024-12-07 16:29:26.182488800,7.15248876953125,0.3700459599494934,0.1343563795089721,1.3953622579574585
2024-12-07 16:29:26.192516900,7.162516845703125,0.3519364893436432,0.3047985732555389,1.5029538869857788
2024-12-07 16:29:26.202545000,7.172544921875,0.331696480512619,0.4933502376079559,1.615871787071228
2024-12-07 16:29:26.212573000,7.182572998046875,0.3199785649776459,0.649944007396698,1.7181371450424194
2024-12-07 16:29:26.222601000,7.19260107421875,0.3114564716815948,0.7617966532707214,1.7831181287765503
2024-12-07 16:29:26.232629000,7.20262890625,0.3103911876678467,0.8203861713409424,1.792705535888672
2024-12-07 16:29:26.242657000,7.212656982421875,0.3189133107662201,0.8331693410873413,1.7607476711273191
2024-12-07 16:29:26.252685000,7.22268505859375,0.3189133107662201,0.7958850860595703,1.7010928392410278
2024-12-07 16:29:26.262713000,7.232713134765625,0.2901511788368225,0.6755102872848511,1.6361117362976074
2024-12-07 16:29:26.272741000,7.2427412109375,0.2358227372169494,0.5732449889183044,1.6062843799591064
2024-12-07 16:29:26.282769200,7.25276904296875,0.1740374416112899,0.5508744716644287,1.6350464820861816
2024-12-07 16:29:26.292797200,7.262797119140625,0.1399490088224411,0.5263733863830566,1.6989623308181765
2024-12-07 16:29:26.302825200,7.2728251953125,0.1569932252168655,0.3900196552276611,1.729854941368103
2024-12-07 16:29:26.312853200,7.282853271484375,0.2273006290197372,0.2174469381570816,1.6616780757904053
2024-12-07 16:29:26.322881300,7.29288134765625,0.3199785649776459,0.1226384788751602,1.494431734085083
2024-12-07 16:29:26.332909300,7.302909423828125,0.4030691385269165,0.102398470044136,1.305880069732666
2024-12-07 16:29:26.342937300,7.312937255859375,0.4563323259353637,0.0896153002977371,1.130111575126648
2024-12-07 16:29:26.352965400,7.32296533203125,0.4872249662876129,0.0182426404207944,0.9788441061973572
2024-12-07 16:29:26.362993400,7.332993408203125,0.5117260217666626,-0.2033322006464004,0.8563387989997864
2024-12-07 16:29:26.373021400,7.343021484375,0.5213133692741394,-0.5133239030838013,0.7604650855064392
2024-12-07 16:29:26.383049200,7.35304931640625,0.5277049541473389,-0.7721830010414124,0.6965492367744446
2024-12-07 16:29:26.393077200,7.3630771484375,0.547944962978363,-0.9213199019432068,0.648612380027771
2024-12-07 16:29:26.403105300,7.373105224609375,0.5735113024711609,-1.0022798776626587,0.6006755232810974
2024-12-07 16:29:26.413133300,7.38313330078125,0.5894902944564819,-1.057673692703247,0.5452818274497986
2024-12-07 16:29:26.423161300,7.393161376953125,0.5937513113021851,-1.1205241680145264,0.497344970703125
2024-12-07 16:29:26.433189400,7.403189453125,0.5916208028793335,-1.1748526096343994,0.4589954614639282
2024-12-07 16:29:26.443217400,7.413217529296875,0.5894902944564819,-1.1855052709579468,0.4334291517734527
2024-12-07 16:29:26.453245400,7.423245361328125,0.5756418108940125,-1.1375683546066284,0.4004059731960296
2024-12-07 16:29:26.463273500,7.4332734375,0.5340965390205383,-1.029976725578308,0.3439469933509826
2024-12-07 16:29:26.473301500,7.443301513671875,0.4797681272029876,-0.8904272317886353,0.2661827504634857
2024-12-07 16:29:26.483329500,7.45332958984375,0.4254396557807922,-0.7732482552528381,0.1756353378295898
2024-12-07 16:29:26.493357600,7.463357666015625,0.3806985914707184,-0.7114629745483398,0.0776310861110687
2024-12-07 16:29:26.503385600,7.473385498046875,0.3551322519779205,-0.6965492367744446,-0.019307903945446
2024-12-07 16:29:26.513413600,7.48341357421875,0.350871205329895,-0.731702983379364,-0.102398470044136
2024-12-07 16:29:26.523441700,7.493441650390625,0.3657849133014679,-0.7860314249992371,-0.1759016513824463
2024-12-07 16:29:26.533469700,7.5034697265625,0.3924165070056915,-0.8222503662109375,-0.2419480085372924
2024-12-07 16:29:26.543497700,7.513497802734375,0.417982816696167,-0.8339682817459106,-0.2973417043685913
2024-12-07 16:29:26.553525800,7.52352587890625,0.4115912318229675,-0.8265114426612854,-0.3452785909175873
2024-12-07 16:29:26.563553800,7.5335537109375,0.4126565158367157,-0.7647261619567871,-0.3761712312698364
2024-12-07 16:29:26.573581800,7.543581787109375,0.4041343927383423,-0.6347639560699463,-0.3964112401008606
2024-12-07 16:29:26.583609900,7.55360986328125,0.3924165070056915,-0.4632565379142761,-0.4177165031433105
2024-12-07 16:29:26.593638000,7.563637939453125,0.3796333372592926,-0.2715090811252594,-0.4368912577629089
2024-12-07 16:29:26.603666000,7.573666015625,0.3444796204566955,-0.0840226709842681,-0.4464786350727081
2024-12-07 16:29:26.613693700,7.583693603515625,0.2688459157943725,0.0693752914667129,-0.4326302111148834
2024-12-07 16:29:26.623721700,7.5937216796875,0.1665806025266647,0.1567269116640091,-0.3751059472560882
2024-12-07 16:29:26.633749800,7.603749755859375,0.0675110816955566,0.1663142889738083,-0.2760364413261413
2024-12-07 16:29:26.643777800,7.61377783203125,-0.0177100077271461,0.1322258561849594,-0.1609879732131958
2024-12-07 16:29:26.653805800,7.623805908203125,-0.0954742506146431,0.0778974071145057,-0.0597879216074943
2024-12-07 16:29:26.663833900,7.633833740234375,-0.1647163927555084,-0.0137152690440416,0.0233026426285505
2024-12-07 16:29:26.673862000,7.64386181640625,-0.2307627350091934,-0.1511342823505401,0.0925447791814804
2024-12-07 16:29:26.683890000,7.653889892578125,-0.2968090772628784,-0.298140674829483,0.1564605981111526
2024-12-07 16:29:26.693918000,7.66391796875,-0.3660512268543243,-0.4312986135482788,0.2182458937168121
2024-12-07 16:29:26.703946000,7.673946044921875,-0.4278365075588226,-0.5282375812530518,0.2800311744213104
2024-12-07 16:29:26.713974000,7.68397412109375,-0.4704470634460449,-0.581500768661499,0.3556649088859558
2024-12-07 16:29:26.724002000,7.694001953125,-0.4800344407558441,-0.6518082022666931,0.4579302072525024
2024-12-07 16:29:26.734030000,7.704030029296875,-0.4384891390800476,-0.7764440178871155,0.5601955056190491
2024-12-07 16:29:26.744058000,7.71405810546875,-0.3436806797981262,-0.9266462326049804,0.6528734564781189
2024-12-07 16:29:26.754086100,7.724086181640625,-0.2094574570655822,-1.0704567432403564,0.7444861531257629
2024-12-07 16:29:26.764114200,7.7341142578125,-0.0496679171919822,-1.1535474061965942,0.8105324506759644
2024-12-07 16:29:26.774142200,7.74414208984375,0.1378184854984283,-1.141829490661621,0.8084019422531128
2024-12-07 16:29:26.784170200,7.754170166015625,0.3285006880760193,-1.0608694553375244,0.7455514073371887
2024-12-07 16:29:26.794198300,7.7641982421875,0.4925512671470642,-0.974583089351654,0.6581997871398926
2024-12-07 16:29:26.804226300,7.774226318359375,0.631035566329956,-0.9032104015350342,0.5687175989151001
2024-12-07 16:29:26.814254300,7.78425439453125,0.7354313731193542,-0.8478167057037354,0.4824312627315521
2024-12-07 16:29:26.824282400,7.794282470703125,0.7812377214431763,-0.7945535182952881,0.3993407189846039
2024-12-07 16:29:26.834310400,7.804310302734375,0.7897598147392273,-0.7306377291679382,0.3034669756889343
2024-12-07 16:29:26.844338200,7.814338134765625,0.7524756193161011,-0.694418728351593,0.1873532384634018
2024-12-07 16:29:26.854366200,7.8243662109375,0.6779071688652039,-0.669917643070221,0.0584563426673412
2024-12-07 16:29:26.864394200,7.834394287109375,0.5948165655136108,-0.6709829568862915,-0.0874847769737243
2024-12-07 16:29:26.874422300,7.84442236328125,0.5021386742591858,-0.6688523888587952,-0.2270343154668808
2024-12-07 16:29:26.884450300,7.8544501953125,0.407330185174942,-0.6827008128166199,-0.3324954211711883
2024-12-07 16:29:26.894478300,7.864478271484375,0.329565942287445,-0.7359640002250671,-0.40280282497406
2024-12-07 16:29:26.904506400,7.87450634765625,0.264584869146347,-0.8084019422531128,-0.4443480968475342
2024-12-07 16:29:26.914534400,7.884534423828125,0.2102564126253128,-0.8978840708732605,-0.4752407371997833
2024-12-07 16:29:26.924562400,7.8945625,0.1612542867660522,-0.9863009452819824,-0.508263885974884
2024-12-07 16:29:26.934590500,7.904590576171875,0.113317422568798,-1.0619347095489502,-0.5572660565376282
2024-12-07 16:29:26.944618500,7.914618408203125,0.0611195005476474,-1.1333073377609253,-0.6318345069885254
2024-12-07 16:29:26.954646500,7.924646484375,0.0014647374628111,-1.1940274238586426,-0.7372955679893494
2024-12-07 16:29:26.964674600,7.934674560546875,-0.0645816102623939,-1.2408989667892456,-0.8779103755950928
2024-12-07 16:29:26.974702600,7.94470263671875,-0.1391500681638717,-1.2408989667892456,-1.0430262088775637
2024-12-07 16:29:26.984730600,7.954730712890625,-0.2201101034879684,-1.1652653217315674,-1.2209253311157229
2024-12-07 16:29:26.994758700,7.964758544921875,-0.3287670016288757,-1.0278462171554563,-1.4020200967788696
2024-12-07 16:29:27.004786700,7.97478662109375,-0.4768386483192444,-0.8680567145347595,-1.5745928287506104
2024-12-07 16:29:27.014814700,7.984814697265625,-0.6408892273902893,-0.6869618892669678,-1.6640750169754028
2024-12-07 16:29:27.024842800,7.9948427734375,-0.6888260841369629,-0.3769701719284057,-1.5479612350463867
2024-12-07 16:29:27.034870800,8.004870849609375,-0.3575291037559509,-0.0595216043293476,-1.1516832113265991
2024-12-07 16:29:27.044898800,8.01489892578125,0.1996037811040878,0.1300953179597854,-0.5636576414108276
2024-12-07 16:29:27.054926800,8.0249267578125,0.386024922132492,0.2802974879741668,-0.2451438009738922
2024-12-07 16:29:27.064955000,8.034954833984376,0.6001428961753845,0.2643185555934906,-0.1226384788751602
2024-12-07 16:29:27.074982700,8.044982666015626,0.9101346135139464,0.0821584612131118,0.0861531943082809
2024-12-07 16:29:27.085010700,8.0550107421875,1.1679284572601318,-0.2821617126464844,0.4834965467453003
2024-12-07 16:29:27.095038700,8.065038818359374,1.275520086288452,-0.6475471258163452,0.8382292985916138
2024-12-07 16:29:27.105066800,8.075066650390625,1.1498188972473145,-0.8115977644920349,0.7977492809295654
2024-12-07 16:29:27.115094800,8.0850947265625,0.8057388067245483,-0.6709829568862915,0.4323638677597046
2024-12-07 16:29:27.125122800,8.095122802734375,0.3657849133014679,-0.3450122475624084,0.0456731803715229
2024-12-07 16:29:27.135150800,8.10515087890625,-0.1231711059808731,-0.0467384420335292,-0.2739059031009674
2024-12-07 16:29:27.145179000,8.115178955078125,-0.5141228437423706,0.1247690021991729,-0.5572660565376282
2024-12-07 16:29:27.155207000,8.12520703125,-0.8400935530662537,0.2962764501571655,-0.8970851302146912
2024-12-07 16:29:27.165235000,8.13523486328125,-1.1117358207702637,0.3953459560871124,-1.182575821876526
2024-12-07 16:29:27.175263000,8.145262939453126,-1.2576768398284912,0.4123901724815368,-1.3061463832855225
2024-12-07 16:29:27.185291000,8.155291015625,-1.3173316717147827,0.1705753356218338,-1.230512619018555
2024-12-07 16:29:27.195319000,8.165319091796874,-1.2928305864334106,-0.3269027769565582,-1.0440915822982788
2024-12-07 16:29:27.205347000,8.17534716796875,-1.0872347354888916,-0.8552735447883606,-0.8608661890029907
2024-12-07 16:29:27.215375000,8.185375,-0.7282408475875854,-0.9777788519859314,-0.7287734746932983
2024-12-07 16:29:27.225403100,8.195403076171875,-0.3298322558403015,-0.4376901984214782,-0.6765755414962769
2024-12-07 16:29:27.235431200,8.20543115234375,0.0398142300546169,0.537026047706604,-0.658466100692749
2024-12-07 16:29:27.245459200,8.215459228515625,0.3487406969070434,1.4978938102722168,-0.5892239809036255
2024-12-07 16:29:27.255487000,8.225487060546875,0.5319660305976868,2.022003650665283,-0.4837628602981567
2024-12-07 16:29:27.265515000,8.235514892578125,0.5756418108940125,2.057157278060913,-0.4145207107067108
2024-12-07 16:29:27.275543000,8.24554296875,0.5575323700904846,1.772731900215149,-0.4230428338050842
2024-12-07 16:29:27.285571000,8.255571044921876,0.5085302591323853,1.305081129074097,-0.4709796905517578
2024-12-07 16:29:27.295598800,8.265598876953124,0.4360923171043396,0.8182556629180908,-0.508263885974884
2024-12-07 16:29:27.305627000,8.275626953125,0.2890859246253967,0.3921501636505127,-0.5434176325798035
2024-12-07 16:29:27.315655000,8.285655029296874,0.0611195005476474,0.0438089668750762,-0.5764408111572266
2024-12-07 16:29:27.325683000,8.295682861328125,-0.1498026996850967,-0.1575258672237396,-0.5945502519607544
2024-12-07 16:29:27.335710700,8.305710693359375,-0.3063964545726776,-0.1564605981111526,-0.591354489326477
2024-12-07 16:29:27.345738800,8.31573876953125,-0.4086617529392242,-0.0552605502307415,-0.5434176325798035
2024-12-07 16:29:27.355766800,8.325766845703125,-0.4651207327842712,0.0544616021215915,-0.4571312665939331
2024-12-07 16:29:27.365794800,8.335794921875,-0.444880723953247,0.2099900990724563,-0.3761712312698364
2024-12-07 16:29:27.375822600,8.345822509765625,-0.3596596419811249,0.3420827984809875,-0.3271690905094147
2024-12-07 16:29:27.385850600,8.3558505859375,-0.2392848432064056,0.4049333333969116,-0.3282343447208404
2024-12-07 16:29:27.395878700,8.365878662109376,-0.1167795285582542,0.4187817573547363,-0.3772364854812622
2024-12-07 16:29:27.405906700,8.37590673828125,-0.0059921080246567,0.4091944098472595,-0.4550007283687591
2024-12-07 16:29:27.415934500,8.3859345703125,0.0909468829631805,0.4209122955799103,-0.5348954796791077
2024-12-07 16:29:27.425962500,8.39596240234375,0.1569932252168655,0.4613923132419586,-0.5838976502418518
2024-12-07 16:29:27.435990500,8.405990478515625,0.1825595498085022,0.521047055721283,-0.5924197435379028
2024-12-07 16:29:27.446018600,8.4160185546875,0.1868206113576889,0.612659752368927,-0.5711144804954529
2024-12-07 16:29:27.456046300,8.42604638671875,0.2219743132591247,0.7138597965240479,-0.5348954796791077
2024-12-07 16:29:27.466074400,8.436074462890625,0.2315616905689239,0.855539858341217,-0.5178512930870056
2024-12-07 16:29:27.476102400,8.446102294921875,0.2102564126253128,0.9205209612846376,-0.4986765384674072
2024-12-07 16:29:27.486130400,8.45613037109375,0.1612542867660522,0.8821714520454407,-0.4581965208053589
2024-12-07 16:29:27.496158200,8.466158203125,0.1271658539772033,0.755405068397522,-0.3932154476642608
2024-12-07 16:29:27.506186200,8.476186279296876,0.0834900364279747,0.5466133952140808,-0.3431480526924133
2024-12-07 16:29:27.516214300,8.48621435546875,0.0408794917166233,0.3079943358898163,-0.3218427896499634
2024-12-07 16:29:27.526242300,8.4962421875,0.0174436923116445,0.1205079481005668,-0.3122554123401642
2024-12-07 16:29:27.536270300,8.506270263671874,0.030226856470108,-0.0190415866672992,-0.2941459119319916
2024-12-07 16:29:27.546298400,8.51629833984375,0.0259658005088567,-0.1127847880125045,-0.2866890728473663
2024-12-07 16:29:27.556326400,8.526326416015625,0.0110521102324128,-0.1415469050407409,-0.2845585644245147
2024-12-07 16:29:27.566354400,8.5363544921875,0.046205811202526,-0.107458472251892,-0.2707101106643677
2024-12-07 16:29:27.576382500,8.546382568359375,0.0781637206673622,-0.0254331696778535,-0.2834932804107666
2024-12-07 16:29:27.586410500,8.556410400390625,0.0930774137377739,0.0672447681427002,-0.2994722425937652
2024-12-07 16:29:27.596438500,8.5664384765625,0.1165132075548172,0.2195774614810943,-0.2973417043685913
2024-12-07 16:29:27.606466300,8.57646630859375,0.1207742616534233,0.3814975321292877,-0.3079943358898163
2024-12-07 16:29:27.616494300,8.586494384765626,0.1058605760335922,0.4986765384674072,-0.3314301371574402
2024-12-07 16:29:27.626522400,8.5965224609375,0.068576343357563,0.554070234298706,-0.3580617308616638
2024-12-07 16:29:27.636550400,8.60655029296875,0.0153131652623415,0.5167860388755798,-0.3772364854812622
2024-12-07 16:29:27.646578400,8.616578369140624,-0.0464721247553825,0.4081291258335113,-0.3633880615234375
2024-12-07 16:29:27.656606500,8.6266064453125,-0.1167795285582542,0.23662169277668,-0.3239732980728149
2024-12-07 16:29:27.666634500,8.636634521484375,-0.1817606091499328,0.0363521203398704,-0.2771016955375671
2024-12-07 16:29:27.676662500,8.64666259765625,-0.2307627350091934,-0.1447426974773407,-0.2302301079034805
2024-12-07 16:29:27.686690600,8.656690673828125,-0.2552638053894043,-0.2896185517311096,-0.1908153444528579
2024-12-07 16:29:27.696718600,8.666718505859375,-0.2392848432064056,-0.2960101366043091,-0.1844237744808197
2024-12-07 16:29:27.706746600,8.67674658203125,-0.2360890507698059,-0.2225069403648376,-0.2131858915090561
2024-12-07 16:29:27.716774700,8.686774658203126,-0.1956090331077575,-0.1330247968435287,-0.2387522161006927
2024-12-07 16:29:27.726802700,8.696802734375,-0.1636511236429214,-0.0925447791814804,-0.2802974879741668
2024-12-07 16:29:27.736830700,8.706830810546874,-0.1668469160795211,-0.0776310861110687,-0.3282343447208404
2024-12-07 16:29:27.746858800,8.716858642578124,-0.1945437788963318,-0.0925447791814804,-0.3655185997486114
2024-12-07 16:29:27.756886800,8.72688671875,-0.2456764280796051,-0.1234374269843101,-0.378301739692688
2024-12-07 16:29:27.766914800,8.736914794921875,-0.2925480306148529,-0.1511342823505401,-0.3538006842136383
2024-12-07 16:29:27.776942800,8.74694287109375,-0.3191796243190765,-0.1713742911815643,-0.3133206665515899
2024-12-07 16:29:27.786971000,8.756970947265625,-0.314918577671051,-0.1607216447591781,-0.2962764501571655
2024-12-07 16:29:27.796999000,8.7669990234375,-0.2786996066570282,-0.1159805804491043,-0.3410175144672394
2024-12-07 16:29:27.807027000,8.77702685546875,-0.2350237965583801,-0.0264984332025051,-0.4464786350727081
2024-12-07 16:29:27.817055000,8.787054931640625,-0.203065887093544,0.113051101565361,-0.558331310749054
2024-12-07 16:29:27.827083000,8.7970830078125,-0.1785648167133331,0.2675143182277679,-0.6286386847496033
2024-12-07 16:29:27.837110800,8.80711083984375,-0.1498026996850967,0.4273038804531097,-0.6328997611999512
2024-12-07 16:29:27.847138800,8.817138916015624,-0.134889006614685,0.6052029132843018,-0.6073334217071533
2024-12-07 16:29:27.857166800,8.827166748046874,-0.0826910883188247,0.7756450772285461,-0.5743102431297302
2024-12-07 16:29:27.867195000,8.83719482421875,-0.0464721247553825,0.8640619516372681,-0.5359607934951782
2024-12-07 16:29:27.877223000,8.847222900390625,-0.0475373901426792,0.9013462066650392,-0.5093291997909546
2024-12-07 16:29:27.887251000,8.8572509765625,-0.068842664361,0.9013462066650392,-0.4986765384674072
2024-12-07 16:29:27.897279000,8.867279052734375,-0.0731037184596061,0.8480830192565918,-0.4731102287769317
2024-12-07 16:29:27.907307000,8.87730712890625,-0.1412805914878845,0.7905587553977966,-0.4635228514671325
2024-12-07 16:29:27.917335000,8.8873349609375,-0.1977395564317703,0.7447524666786194,-0.40280282497406
2024-12-07 16:29:27.927363000,8.897363037109375,-0.2382195889949798,0.7117292881011963,-0.3079943358898163
2024-12-07 16:29:27.937391000,8.90739111328125,-0.2488722205162048,0.696815550327301,-0.2153164148330688
2024-12-07 16:29:27.947419100,8.917419189453126,-0.2296974658966064,0.6510092616081238,-0.1663142889738083
2024-12-07 16:29:27.957447200,8.927447265625,-0.2265016883611679,0.5785713195800781,-0.1769669204950332
2024-12-07 16:29:27.967475200,8.93747509765625,-0.2520680129528045,0.5029376149177551,-0.1822932362556457
2024-12-07 16:29:27.977503200,8.947503173828125,-0.2744385600090027,0.4667186439037323,-0.101333200931549
2024-12-07 16:29:27.987531300,8.95753125,-0.2648511826992035,0.4965460002422333,0.0424773879349231
2024-12-07 16:29:27.997559300,8.967559326171875,-0.1593900769948959,0.5476786494255066,0.1255679577589035
2024-12-07 16:29:28.007587300,8.97758740234375,-0.0177100077271461,0.6147902607917786,0.022237379103899
2024-12-07 16:29:28.017615400,8.987615478515625,0.0589889734983444,0.7064029574394226,-0.1492700725793838
2024-12-07 16:29:28.027643400,8.997643310546875,0.0824247747659683,0.8054724931716919,-0.2067943066358566
2024-12-07 16:29:28.037671400,9.00767138671875,0.030226856470108,0.8992156982421875,-0.1311605870723724
2024-12-07 16:29:28.047699500,9.017699462890626,-0.0986700430512428,0.9620662331581116,0.0201068520545959
2024-12-07 16:29:28.057727500,9.0277275390625,-0.2712427675724029,1.0259820222854614,0.1639174371957779
2024-12-07 16:29:28.067755300,9.03775537109375,-0.4203796684741974,1.0558093786239624,0.2597911655902862
2024-12-07 16:29:28.077783300,9.047783203125,-0.5151881575584412,1.02385151386261,0.3364901542663574
2024-12-07 16:29:28.087811300,9.057811279296876,-0.5609944462776184,0.9652619957923888,0.4131891429424286
2024-12-07 16:29:28.097839400,9.06783935546875,-0.54927659034729,0.8938893675804138,0.4707133769989013
2024-12-07 16:29:28.107867400,9.077867431640623,-0.4874912798404693,0.8001461625099182,0.4984102249145508
2024-12-07 16:29:28.117895400,9.0878955078125,-0.390552282333374,0.6957502961158752,0.5101281404495239
2024-12-07 16:29:28.127923500,9.09792333984375,-0.2680469751358032,0.5988113284111023,0.5282375812530518
2024-12-07 16:29:28.137951500,9.107951416015624,-0.1295626908540725,0.5189165472984314,0.543151319026947
2024-12-07 16:29:28.147979500,9.1179794921875,-0.0070573715493083,0.4720449447631836,0.5452818274497986
2024-12-07 16:29:28.158007600,9.128007568359376,0.1346226930618286,0.4443480968475342,0.5761744976043701
2024-12-07 16:29:28.168035600,9.13803564453125,0.2688459157943725,0.4592617750167846,0.6262418627738953
2024-12-07 16:29:28.178063600,9.148063720703124,0.3561975359916687,0.5189165472984314,0.6890923976898193
2024-12-07 16:29:28.188091600,9.158091552734374,0.4169175624847412,0.5892239809036255,0.7870966792106628
2024-12-07 16:29:28.198119700,9.16811962890625,0.4478102028369903,0.6360955238342285,0.9127978086471558
2024-12-07 16:29:28.208147700,9.178147705078125,0.4510059952735901,0.6510092616081238,1.0523473024368286
2024-12-07 16:29:28.218175700,9.18817578125,0.4339617788791656,0.6627271175384521,1.18976628780365
2024-12-07 16:29:28.228203800,9.198203857421875,0.4190480709075928,0.7522093057632446,1.3122715950012207
2024-12-07 16:29:28.238231800,9.208231689453124,0.4062649309635162,0.9002809524536133,1.4124064445495603
2024-12-07 16:29:28.248259800,9.218259765625,0.3998733460903168,1.078179955482483,1.477387547492981
2024-12-07 16:29:28.258287900,9.228287841796876,0.3956122994422912,1.265666365623474,1.5157370567321775
2024-12-07 16:29:28.268316000,9.23831591796875,0.3913512229919433,1.437173843383789,1.5402380228042605
2024-12-07 16:29:28.278344000,9.248343994140624,0.3934817612171173,1.5724623203277588,1.5508906841278076
2024-12-07 16:29:28.288372000,9.2583720703125,0.4083954393863678,1.6246602535247805,1.5359770059585571
2024-12-07 16:29:28.298399700,9.268399658203125,0.4392880797386169,1.55967915058136,1.4635391235351562
2024-12-07 16:29:28.308427800,9.278427734375,0.4914860129356384,1.4648706912994385,1.3570127487182615
2024-12-07 16:29:28.318455800,9.288455810546877,0.5383576154708862,1.4233254194259644,1.221724271774292
2024-12-07 16:29:28.328483800,9.29848388671875,0.5905555486679077,1.315733790397644,0.995888352394104
2024-12-07 16:29:28.338512000,9.308511962890623,0.6757766008377075,1.1559442281723022,0.7519429922103882
2024-12-07 16:29:28.348540000,9.318539794921875,0.8068040609359741,1.060070514678955,0.6230461001396179
2024-12-07 16:29:28.358568000,9.32856787109375,0.9719198942184448,0.9823062419891356,0.5474123358726501
2024-12-07 16:29:28.368596000,9.338595947265626,1.1242525577545166,0.8587356805801392,0.5101281404495239
2024-12-07 16:29:28.378624000,9.3486240234375,1.2243874073028564,0.6605966091156006,0.4803007543087005
2024-12-07 16:29:28.388652000,9.358652099609374,1.29362952709198,0.4443480968475342,0.4632565379142761
2024-12-07 16:29:28.398680000,9.36868017578125,1.318130612373352,0.168444812297821,0.4739091694355011
2024-12-07 16:29:28.408708000,9.3787080078125,1.288303256034851,-0.1649827063083648,0.5293028950691223
2024-12-07 16:29:28.418736000,9.388736083984377,1.2179957628250122,-0.4941491782665252,0.6454166173934937
2024-12-07 16:29:28.428764200,9.39876416015625,1.1498188972473145,-0.815858781337738,0.7998798489570618
2024-12-07 16:29:28.438792200,9.408792236328123,1.0603368282318115,-1.021454691886902,0.928776741027832
2024-12-07 16:29:28.448820200,9.4188203125,0.9612672924995422,-1.1450252532958984,1.012932538986206
2024-12-07 16:29:28.458848300,9.42884814453125,0.8739156723022461,-1.2100063562393188,1.045955777168274
2024-12-07 16:29:28.468876300,9.438876220703126,0.78656405210495,-1.122654676437378,1.0150630474090576
2024-12-07 16:29:28.478904300,9.448904296875,0.7098650336265564,-0.907471477985382,0.9341030716896056
2024-12-07 16:29:28.488932400,9.458932373046874,0.6576671600341797,-0.7327682375907898,0.8339682817459106
2024-12-07 16:29:28.498960400,9.46896044921875,0.6289049983024597,-0.6347639560699463,0.7327682375907898
2024-12-07 16:29:28.508988400,9.478988525390625,0.5703155398368835,-0.5484775900840759,0.6305029392242432
2024-12-07 16:29:28.519016400,9.489016357421876,0.5181176066398621,-0.5506081581115723,0.5474123358726501
2024-12-07 16:29:28.529044200,9.499044189453125,0.4712460041046142,-0.5548691749572754,0.4824312627315521
2024-12-07 16:29:28.539072300,9.509072265625,0.4243744015693664,-0.5282375812530518,0.4217112362384796
2024-12-07 16:29:28.549100300,9.519100341796875,0.3764375448226928,-0.4803007543087005,0.3545996248722076
2024-12-07 16:29:28.559128300,9.52912841796875,0.3370227813720703,-0.4174501895904541,0.2832269668579101
2024-12-07 16:29:28.569156400,9.53915625,0.3008038103580475,-0.3311638236045837,0.2075932472944259
2024-12-07 16:29:28.579184400,9.549184326171876,0.2709764242172241,-0.2459427416324615,0.1490037590265274
2024-12-07 16:29:28.589212400,9.55921240234375,0.2400837987661361,-0.1692437678575515,0.1106542572379112
2024-12-07 16:29:28.599240400,9.569240478515624,0.207060620188713,-0.1127847880125045,0.0968058332800865
2024-12-07 16:29:28.609268500,9.5792685546875,0.1729721873998642,-0.0669784545898437,0.090414248406887
2024-12-07 16:29:28.619296500,9.589296630859376,0.1346226930618286,-0.0051931603811681,0.0808268785476684
2024-12-07 16:29:28.629324500,9.599324462890625,0.0802942439913749,0.0544616021215915,0.0659131854772567
2024-12-07 16:29:28.639352600,9.6093525390625,0.0089215831831097,0.0896153002977371,0.052064761519432
2024-12-07 16:29:28.649380600,9.619380615234377,-0.0560594983398914,0.0832237228751182,0.0424773879349231
2024-12-07 16:29:28.659408400,9.629408447265623,-0.1221058443188667,0.0544616021215915,0.0296942237764596
2024-12-07 16:29:28.669436400,9.6394365234375,-0.191347986459732,0.0150468489155173,0.0083889514207839
2024-12-07 16:29:28.679464400,9.64946435546875,-0.2510027587413788,-0.0201068520545959,-0.0225036945194005
2024-12-07 16:29:28.689492500,9.659492431640626,-0.3010701239109039,-0.0446079149842262,-0.0597879216074943
2024-12-07 16:29:28.699520500,9.6695205078125,-0.3543333113193512,-0.0659131854772567,-0.0960068851709365
2024-12-07 16:29:28.709548300,9.67954833984375,-0.411857545375824,-0.1053279414772987,-0.1215732097625732
2024-12-07 16:29:28.719576300,9.689576416015624,-0.4683165252208709,-0.1532648056745529,-0.1396826952695846
2024-12-07 16:29:28.729604400,9.699604248046874,-0.5269060134887695,-0.2033322006464004,-0.1556616425514221
2024-12-07 16:29:28.739632400,9.70963232421875,-0.5822997093200684,-0.260856419801712,-0.1780321896076202
2024-12-07 16:29:28.749660200,9.71966015625,-0.6334323883056641,-0.3226417303085327,-0.2099900990724563
2024-12-07 16:29:28.759688200,9.729688232421877,-0.6717818975448608,-0.3897533416748047,-0.2515353858470917
2024-12-07 16:29:28.769716200,9.73971630859375,-0.6994787454605103,-0.4611259996891022,-0.311190128326416
2024-12-07 16:29:28.779744300,9.749744140625,-0.7111966609954834,-0.5293028950691223,-0.3793670237064361
2024-12-07 16:29:28.789772000,9.75977197265625,-0.7026745080947876,-0.6241113543510437,-0.4432828426361084
2024-12-07 16:29:28.799800000,9.769800048828126,-0.6707166433334351,-0.753008246421814,-0.478436529636383
2024-12-07 16:29:28.809828000,9.779828125,-0.5972134470939636,-0.8680567145347595,-0.480567067861557
2024-12-07 16:29:28.819856100,9.789856201171874,-0.4885565340518951,-0.9298419952392578,-0.4571312665939331
2024-12-07 16:29:28.829884000,9.7998837890625,-0.3543333113193512,-0.9096019864082336,-0.3953459560871124
2024-12-07 16:29:28.839912000,9.809911865234374,-0.1732385009527206,-0.8169240355491638,-0.289884865283966
2024-12-07 16:29:28.849940000,9.81993994140625,0.0376837030053138,-0.6656566262245178,-0.1503353267908096
2024-12-07 16:29:28.859968000,9.829968017578125,0.219843789935112,-0.5324986577033997,-0.0182426404207944
2024-12-07 16:29:28.869995800,9.839995849609377,0.3604585826396942,-0.4728438854217529,0.0691089779138565
2024-12-07 16:29:28.880023800,9.85002392578125,0.461658626794815,-0.4579302072525024,0.102132149040699
2024-12-07 16:29:28.890051800,9.8600517578125,0.5255744457244873,-0.4643217921257019,0.0936100408434867
2024-12-07 16:29:28.900079900,9.870079833984375,0.560728132724762,-0.4653870463371277,0.0456731803715229
2024-12-07 16:29:28.910107600,9.880107666015626,0.547944962978363,-0.4430165290832519,-0.0320910662412643
2024-12-07 16:29:28.920135700,9.8901357421875,0.4914860129356384,-0.4036017656326294,-0.1247690021991729
2024-12-07 16:29:28.930163700,9.900163818359376,0.3775027990341186,-0.3290333151817322,-0.2217079997062683
2024-12-07 16:29:28.940191700,9.910191650390624,0.2230395674705505,-0.2576606571674347,-0.3250385820865631
2024-12-07 16:29:28.950219500,9.920219482421874,0.0728374049067497,-0.3002711832523346,-0.4422175586223602
2024-12-07 16:29:28.960247600,9.93024755859375,-0.068842664361,-0.4472775757312774,-0.5689839720726013
2024-12-07 16:29:28.970275600,9.940275634765625,-0.2286322116851806,-0.5910881757736206,-0.679771363735199
2024-12-07 16:29:28.980303600,9.9503037109375,-0.4246407151222229,-0.627307116985321,-0.8150598406791687
2024-12-07 16:29:28.990331600,9.96033154296875,-0.6057355403900146,-0.5857618451118469,-0.9876325726509094
2024-12-07 16:29:29.000359400,9.970359375,-0.654737651348114,-0.5335639119148254,-1.0760494470596311
2024-12-07 16:29:29.010387500,9.980387451171875,-0.5322323441505432,-0.5612607598304749,-0.976979911327362
2024-12-07 16:29:29.020415500,9.99041552734375,-0.3394196331501007,-0.7103977203369141,-0.725577712059021
2024-12-07 16:29:29.030443500,10.000443603515626,-0.203065887093544,-0.9319725036621094,-0.359127014875412
2024-12-07 16:29:29.040471600,10.010471435546876,-0.0912131965160369,-1.1663305759429932,0.0925447791814804
2024-12-07 16:29:29.050499600,10.02049951171875,0.1015995219349861,-1.1993536949157717,0.3769701719284057
2024-12-07 16:29:29.060527600,10.030527587890624,0.2933469712734222,-0.8712524771690369,0.3940143883228302
2024-12-07 16:29:29.070555600,10.0405556640625,0.4041343927383423,-0.3695133328437805,0.3247722387313843
2024-12-07 16:29:29.080583700,10.050583740234377,0.3902859687805176,0.0086552668362855,0.2203764170408249
2024-12-07 16:29:29.090611700,10.06061181640625,0.2347574681043625,0.2696448564529419,0.0765658244490623
2024-12-07 16:29:29.100639700,10.0706396484375,-0.0027963169850409,0.5221123695373535,-0.1268995255231857
2024-12-07 16:29:29.110667800,10.080667724609375,-0.2105227261781692,0.8086682558059692,-0.3814975321292877
2024-12-07 16:29:29.120695800,10.09069580078125,-0.4203796684741974,0.9535441398620604,-0.6158555150032043
2024-12-07 16:29:29.130723800,10.100723876953126,-0.6739124059677124,0.7372955679893494,-0.7628619074821472
2024-12-07 16:29:29.140752000,10.110751953125,-0.8922914862632751,0.1854890286922454,-0.7745798230171204
2024-12-07 16:29:29.150780000,10.12077978515625,-1.0084052085876465,-0.5655218362808228,-0.6861629486083984
2024-12-07 16:29:29.160808000,10.130807861328124,-0.9870999455451964,-1.3175979852676392,-0.5796365737915039
2024-12-07 16:29:29.170836000,10.1408359375,-0.9082704186439514,-1.841707706451416,-0.5327649712562561
2024-12-07 16:29:29.180864000,10.150864013671876,-0.8155924677848816,-1.987648844718933,-0.5615270733833313
2024-12-07 16:29:29.190892000,10.16089208984375,-0.6121271252632141,-1.753290772438049,-0.6297039985656738
2024-12-07 16:29:29.200920000,10.170920166015623,-0.2840259075164795,-1.1365031003952026,-0.6829671263694763
2024-12-07 16:29:29.210948000,10.180947998046875,0.057923711836338,-0.3162501454353332,-0.6819018721580505
2024-12-07 16:29:29.220976000,10.19097607421875,0.3029343485832214,0.5008070468902588,-0.6414218544960022
2024-12-07 16:29:29.231004000,10.20100390625,0.4872249662876129,1.1474220752716064,-0.558331310749054
2024-12-07 16:29:29.241032000,10.211031982421876,0.5937513113021851,1.5032202005386353,-0.4294344186782837
2024-12-07 16:29:29.251060000,10.22106005859375,0.5905555486679077,1.5927022695541382,-0.3037332892417907
2024-12-07 16:29:29.261088000,10.231087890625,0.5159870982170105,1.4616749286651611,-0.1972069293260574
2024-12-07 16:29:29.271116000,10.241115966796874,0.4307659864425659,1.108007311820984,-0.1109205782413482
2024-12-07 16:29:29.281144000,10.25114404296875,0.3498059511184692,0.6201165914535522,-0.0651142373681068
2024-12-07 16:29:29.291172000,10.261172119140625,0.2656501233577728,0.0757668763399124,-0.0842889845371246
2024-12-07 16:29:29.301200100,10.2712001953125,0.162319540977478,-0.4664523303508758,-0.1652490198612213
2024-12-07 16:29:29.311228200,10.281228271484377,0.0930774137377739,-0.8946883082389832,-0.2579269707202911
2024-12-07 16:29:29.321256200,10.291256103515623,0.068576343357563,-1.1194589138031006,-0.3079943358898163
2024-12-07 16:29:29.331284200,10.3012841796875,0.0451405458152294,-1.196157932281494,-0.3495396375656128
2024-12-07 16:29:29.341312300,10.311312255859375,0.0494015999138355,-1.1524821519851685,-0.40280282497406
2024-12-07 16:29:29.351340300,10.32134033203125,0.1047953143715858,-1.0342378616333008,-0.4688491523265838
2024-12-07 16:29:29.361368300,10.331368408203126,0.1836248189210891,-0.8488819599151611,-0.5359607934951782
2024-12-07 16:29:29.371396400,10.341396240234374,0.2560627460479736,-0.5676523447036743,-0.5785713195800781
2024-12-07 16:29:29.381424400,10.35142431640625,0.3157175183296203,-0.2065279930830001,-0.5796365737915039
2024-12-07 16:29:29.391452400,10.361452392578125,0.3551322519779205,0.157792180776596,-0.5380913019180298
2024-12-07 16:29:29.401480400,10.37148046875,0.3540669977664947,0.4145207107067108,-0.4848281145095825
2024-12-07 16:29:29.411508500,10.381508544921877,0.3444796204566955,0.5295692086219788,-0.4113249182701111
2024-12-07 16:29:29.421536500,10.39153662109375,0.3050648868083954,0.5412870645523071,-0.3303648829460144
2024-12-07 16:29:29.431564500,10.401564453125,0.2528669536113739,0.4837628602981567,-0.2717753946781158
2024-12-07 16:29:29.441592600,10.411592529296875,0.1825595498085022,0.3889544010162353,-0.2408827394247055
2024-12-07 16:29:29.451620600,10.42162060546875,0.1271658539772033,0.2792322337627411,-0.2185122072696685
2024-12-07 16:29:29.461648400,10.4316484375,0.0802942439913749,0.167379543185234,-0.2014679908752441
2024-12-07 16:29:29.471676400,10.441676513671876,0.0291615929454565,0.0672447681427002,-0.1940111368894577
2024-12-07 16:29:29.481704400,10.451704345703124,-0.0123836901038885,0.0011984215816482,-0.1865542978048324
2024-12-07 16:29:29.491732500,10.461732421875,-0.0326237007975578,-0.0339552797377109,-0.1854890286922454
2024-12-07 16:29:29.501760500,10.471760498046876,-0.0390152819454669,-0.0371510684490203,-0.1993374526500702
2024-12-07 16:29:29.511788500,10.48178857421875,-0.0209057983011007,0.0118510583415627,-0.2259690463542938
2024-12-07 16:29:29.521816800,10.49181689453125,0.018508955836296,0.102398470044136,-0.2664490640163421
2024-12-07 16:29:29.531844900,10.501844970703123,0.0749679282307624,0.2131858915090561,-0.3154512047767639
2024-12-07 16:29:29.541873000,10.511872802734375,0.123970054090023,0.2834932804107666,-0.3697796463966369
2024-12-07 16:29:29.551901000,10.52190087890625,0.1580584943294525,0.3165164589881897,-0.421977549791336
2024-12-07 16:29:29.561929000,10.531928955078126,0.1687111258506775,0.3378217220306396,-0.4624575674533844
2024-12-07 16:29:29.571957000,10.54195703125,0.1474058628082275,0.3442133069038391,-0.4826975762844085
2024-12-07 16:29:29.581985300,10.5519853515625,0.1026647835969924,0.3388870060443878,-0.4763059914112091
2024-12-07 16:29:29.592013300,10.562013427734374,0.0451405458152294,0.3346259295940399,-0.4528702199459076
2024-12-07 16:29:29.602041300,10.572041259765625,-0.0145142171531915,0.3346259295940399,-0.4209122955799103
2024-12-07 16:29:29.612069400,10.5820693359375,-0.0699079260230064,0.346343845129013,-0.3889544010162353
2024-12-07 16:29:29.622097400,10.592097412109377,-0.1167795285582542,0.3751059472560882,-0.359127014875412
2024-12-07 16:29:29.632125400,10.60212548828125,-0.1529984921216964,0.4230428338050842,-0.3282343447208404
2024-12-07 16:29:29.642153700,10.61215380859375,-0.1838911324739456,0.4656533598899841,-0.2984069883823395
2024-12-07 16:29:29.652181800,10.622181640625,-0.2083922028541565,0.4848281145095825,-0.2728406488895416
2024-12-07 16:29:29.662209800,10.632209716796876,-0.2243711501359939,0.4869586527347564,-0.2557964324951172
2024-12-07 16:29:29.672237800,10.64223779296875,-0.2318280041217804,0.4901544451713562,-0.2515353858470917
2024-12-07 16:29:29.682265900,10.652265869140624,-0.2318280041217804,0.4795017838478088,-0.2579269707202911
2024-12-07 16:29:29.692294000,10.6622939453125,-0.2318280041217804,0.4635228514671325,-0.281362771987915
2024-12-07 16:29:29.702322200,10.672322265625,-0.2446111589670181,0.4837628602981567,-0.3186469972133636
2024-12-07 16:29:29.712350200,10.68235009765625,-0.1966743022203445,0.5018723607063293,-0.3346259295940399
2024-12-07 16:29:29.722378200,10.692378173828123,-0.1540637612342834,0.5167860388755798,-0.3580617308616638
2024-12-07 16:29:29.732406300,10.70240625,-0.1199753209948539,0.5562008023262024,-0.3942807018756866
2024-12-07 16:29:29.742434300,10.712434326171875,-0.0944089889526367,0.5838976502418518,-0.421977549791336
2024-12-07 16:29:29.752462300,10.72246240234375,-0.0858868807554245,0.5689839720726013,-0.42410808801651
2024-12-07 16:29:29.762490400,10.732490478515626,-0.0880174115300178,0.5412870645523071,-0.4059986174106598
2024-12-07 16:29:29.772518700,10.7425185546875,-0.0869521424174308,0.5434176325798035,-0.3793670237064361
2024-12-07 16:29:29.782546700,10.752546630859374,-0.0816258266568183,0.5870934128761292,-0.3665838539600372
2024-12-07 16:29:29.792574700,10.76257470703125,-0.0784300342202186,0.6616618633270264,-0.367649108171463
2024-12-07 16:29:29.802602800,10.772602783203125,-0.079495295882225,0.7681882381439209,-0.3665838539600372
2024-12-07 16:29:29.812630800,10.782630859375,-0.0890826731920242,0.876845121383667,-0.3729754388332367
2024-12-07 16:29:29.822658800,10.792658935546877,-0.068842664361,0.9301083087921144,-0.3772364854812622
2024-12-07 16:29:29.832687000,10.80268701171875,-0.0635163411498069,0.9503483176231384,-0.3868238627910614
2024-12-07 16:29:29.842715100,10.812715087890624,-0.0699079260230064,0.9407609701156616,-0.3964112401008606
2024-12-07 16:29:29.852743200,10.8227431640625,-0.0944089889526367,0.9343693852424622,-0.421977549791336
2024-12-07 16:29:29.862771200,10.832771240234376,-0.0784300342202186,0.8885630369186401,-0.4209122955799103
2024-12-07 16:29:29.872799200,10.84279931640625,-0.0890826731920242,0.8544746041297913,-0.4209122955799103
2024-12-07 16:29:29.882827300,10.8528271484375,-0.1029310971498489,0.8672577738761902,-0.413455456495285
2024-12-07 16:29:29.892855600,10.86285546875,-0.0880174115300178,0.8725841045379639,-0.4081291258335113
2024-12-07 16:29:29.902883600,10.872883544921876,-0.0869521424174308,0.9066725373268129,-0.4422175586223602
2024-12-07 16:29:29.912911600,10.88291162109375,-0.080560564994812,0.9418262243270874,-0.4795017838478088
2024-12-07 16:29:29.922939600,10.892939697265623,-0.0869521424174308,0.9279778003692628,-0.4986765384674072
2024-12-07 16:29:29.932967700,10.9029677734375,-0.107192151248455,0.8789756894111633,-0.508263885974884
2024-12-07 16:29:29.942995700,10.91299560546875,-0.14554163813591,0.8193209171295166,-0.5199818015098572
2024-12-07 16:29:29.953024000,10.92302392578125,-0.2073269337415695,0.7692534923553467,-0.5348954796791077
2024-12-07 16:29:29.963052000,10.933052001953126,-0.2339585274457931,0.6904240250587463,-0.5316997170448303
2024-12-07 16:29:29.973080000,10.943080078125,-0.2712427675724029,0.6147902607917786,-0.5274386405944824
2024-12-07 16:29:29.983108000,10.953108154296874,-0.2989396154880523,0.5647228956222534,-0.5327649712562561
2024-12-07 16:29:29.993136000,10.96313623046875,-0.3426154255867004,0.5423523783683777,-0.5551354885101318
2024-12-07 16:29:30.003164200,10.9731640625,-0.3575291037559509,0.5040028691291809,-0.5498092174530029
2024-12-07 16:29:30.013192200,10.983192138671876,-0.4033354520797729,0.478436529636383,-0.521047055721283
2024-12-07 16:29:30.023220500,10.993220458984377,-0.4512723088264465,0.4422175586223602,-0.469914436340332
2024-12-07 16:29:30.033248500,11.00324853515625,-0.5205144286155701,0.3623228073120117,-0.3953459560871124
2024-12-07 16:29:30.043276500,11.013276611328124,-0.57058185338974,0.2451438009738922,-0.2984069883823395
2024-12-07 16:29:30.053304600,11.0233046875,-0.5460807681083679,0.1503353267908096,-0.1705753356218338
2024-12-07 16:29:30.063332600,11.03333251953125,-0.4182491302490234,0.1418132185935974,-0.019307903945446
2024-12-07 16:29:30.073360600,11.043360595703126,-0.2222406268119812,0.1908153444528579,0.0680437162518501
2024-12-07 16:29:30.083389000,11.053388916015624,-0.0006657897611148,0.2376869469881057,0.0158457960933446
2024-12-07 16:29:30.093417000,11.0634169921875,0.2262353599071502,0.2717753946781158,-0.113051101565361
2024-12-07 16:29:30.103445000,11.073445068359376,0.3913512229919433,0.2728406488895416,-0.2057290375232696
2024-12-07 16:29:30.113473000,11.08347314453125,0.463789165019989,0.2483395934104919,-0.1961416751146316
2024-12-07 16:29:30.123501000,11.0935009765625,0.4542017877101898,0.2110553532838821,-0.1066595241427421
2024-12-07 16:29:30.133529000,11.103529052734377,0.36152383685112,0.1748363971710205,0.0083889514207839
2024-12-07 16:29:30.143557400,11.113557373046875,0.2283658981323242,0.1247690021991729,0.1149153187870979
2024-12-07 16:29:30.153585400,11.12358544921875,0.0888163596391677,0.0821584612131118,0.2001364082098007
2024-12-07 16:29:30.163613400,11.133613525390626,-0.0336889624595642,0.0597879216074943,0.2619217038154602
2024-12-07 16:29:30.173641500,11.143641357421876,-0.1306279599666595,0.0533963404595851,0.3290333151817322
2024-12-07 16:29:30.183669500,11.15366943359375,-0.1892174482345581,0.113051101565361,0.3908185958862304
2024-12-07 16:29:30.193697500,11.163697509765624,-0.212653249502182,0.2472743242979049,0.4281028211116791
2024-12-07 16:29:30.203725800,11.173725830078125,-0.2137185186147689,0.359127014875412,0.4451470375061035
2024-12-07 16:29:30.213753900,11.18375390625,-0.202000617980957,0.4113249182701111,0.4579302072525024
2024-12-07 16:29:30.223782000,11.193781982421877,-0.1700427085161209,0.4177165031433105,0.4877575933933258
2024-12-07 16:29:30.233810000,11.203809814453123,-0.1253016293048858,0.3974764943122864,0.5463470816612244
2024-12-07 16:29:30.243838000,11.213837890625,-0.0880174115300178,0.3410175144672394,0.61878502368927
2024-12-07 16:29:30.253866000,11.223865966796875,-0.054994236677885,0.2621880173683166,0.6997450590133667
2024-12-07 16:29:30.263894000,11.23389404296875,-0.0166447442024946,0.1631184965372085,0.7956187725067139
2024-12-07 16:29:30.273922300,11.24392236328125,0.030226856470108,0.0661795064806938,0.9010798931121826
2024-12-07 16:29:30.283950300,11.253950439453124,0.0920121446251869,0.021438430994749,1.0161283016204834
2024-12-07 16:29:30.293978400,11.263978271484374,0.1665806025266647,0.0640489757061004,1.1269158124923706
2024-12-07 16:29:30.304006400,11.27400634765625,0.2518016993999481,0.1460742801427841,1.2366379499435425
2024-12-07 16:29:30.314034400,11.284034423828125,0.3359575271606445,0.2600574791431427,1.348490595817566
2024-12-07 16:29:30.324062500,11.2940625,0.4350270330905914,0.378301739692688,1.4624738693237305
2024-12-07 16:29:30.334090800,11.3040908203125,0.5511407852172852,0.4496744275093078,1.566869616508484
2024-12-07 16:29:30.344118800,11.314118896484375,0.6161218881607056,0.558331310749054,1.6307854652404783
2024-12-07 16:29:30.354146800,11.324146728515624,0.6299703121185303,0.7586008906364441,1.6723307371139526
2024-12-07 16:29:30.364174800,11.3341748046875,0.5926860570907593,1.0121335983276367,1.7468992471694946
2024-12-07 16:29:30.374203000,11.344202880859376,0.5127912759780884,1.157009482383728,1.8150761127471924
2024-12-07 16:29:30.384231200,11.354231201171874,0.4190480709075928,1.0195904970169067,1.787379264831543
2024-12-07 16:29:30.394259200,11.36425927734375,0.3274354040622711,0.7181208729743958,1.677657127380371
2024-12-07 16:29:30.404287200,11.374287353515625,0.2113216817378997,0.5402218103408813,1.591370701789856
2024-12-07 16:29:30.414315500,11.3843154296875,0.1069258376955986,0.4976112842559814,1.565804362297058
2024-12-07 16:29:30.424343600,11.394343505859377,0.0994689911603927,0.4368912577629089,1.5359770059585571
2024-12-07 16:29:30.434371600,11.40437158203125,0.1878858804702758,0.3580617308616638,1.4763222932815552
2024-12-07 16:29:30.444399900,11.41439990234375,0.2901511788368225,0.3633880615234375,1.385774850845337
2024-12-07 16:29:30.454428000,11.424427978515626,0.3593933284282684,0.3708449006080627,1.2728569507598877
2024-12-07 16:29:30.464456000,11.4344560546875,0.4222438633441925,0.2781669795513153,1.1386337280273438
2024-12-07 16:29:30.474484200,11.444484130859376,0.4776375889778137,0.0587226599454879,1.0076062679290771
2024-12-07 16:29:30.484512300,11.45451220703125,0.5159870982170105,-0.2214416861534118,0.9064062237739564
2024-12-07 16:29:30.494540500,11.46454052734375,0.5426186919212341,-0.4707133769989013,0.8627303838729858
2024-12-07 16:29:30.504568600,11.474568603515625,0.5735113024711609,-0.6709829568862915,0.8574040532112122
2024-12-07 16:29:30.514596600,11.4845966796875,0.6257092356681824,-0.8190546035766602,0.8755135536193848
2024-12-07 16:29:30.524625000,11.494625,0.6906903386116028,-0.9159935712814332,0.8872314691543579
2024-12-07 16:29:30.534653000,11.50465283203125,0.7514103651046753,-0.9596694111824036,0.8723177909851074
2024-12-07 16:29:30.544681000,11.514680908203124,0.8025429844856262,-0.9596694111824036,0.8169240355491638
2024-12-07 16:29:30.554709200,11.524709228515626,0.8430230021476746,-0.9096019864082336,0.7263766527175903
2024-12-07 16:29:30.564737300,11.5347373046875,0.870719850063324,-0.8307724595069885,0.6123934388160706
2024-12-07 16:29:30.574765300,11.544765380859374,0.8739156723022461,-0.7562040090560913,0.4920186400413513
