time,seconds_elapsed,z,y,x
2024-12-07 16:18:19.577455000,0.176455078125,-0.024367906153202,0.0561926588416099,0.0368847548961639
2024-12-07 16:18:19.587326200,0.186326171875,-0.024367906153202,0.0540621280670166,0.0326237007975578
2024-12-07 16:18:19.597230000,0.19622998046875,-0.024367906153202,0.0487358123064041,0.0241015907377004
2024-12-07 16:18:19.607170000,0.206170166015625,-0.022237379103899,0.0402137041091918,0.0123836901038885
2024-12-07 16:18:19.617148200,0.216148193359375,-0.022237379103899,0.0284958016127347,0.0017310534603893
2024-12-07 16:18:19.627165000,0.2261650390625,-0.0211721155792474,0.0167779028415679,-0.0110521102324128
2024-12-07 16:18:19.637219000,0.236218994140625,-0.0201068520545959,0.0039947386831045,-0.0195742193609476
2024-12-07 16:18:19.647308500,0.24630859375,-0.0201068520545959,-0.0098536890000104,-0.032357383519411
2024-12-07 16:18:19.657428700,0.2564287109375,-0.0190415866672992,-0.0237021166831254,-0.0430100187659263
2024-12-07 16:18:19.667575300,0.2665751953125,-0.022237379103899,-0.038615807890892,-0.046205811202526
2024-12-07 16:18:19.677742000,0.2767421875,-0.024367906153202,-0.0513989701867103,-0.0483363382518291
2024-12-07 16:18:19.687923000,0.2869228515625,-0.0233026426285505,-0.0609863437712192,-0.0568584464490413
2024-12-07 16:18:19.698111000,0.297111083984375,-0.0179763231426477,-0.0641821324825286,-0.0568584464490413
2024-12-07 16:18:19.708299500,0.307299560546875,-0.0147805325686931,-0.066312663257122,-0.0589889734983444
2024-12-07 16:18:19.718340600,0.317340576171875,-0.0126500055193901,-0.0695084556937217,-0.0632500275969505
2024-12-07 16:18:19.728368000,0.3273681640625,-0.010519478470087,-0.0695084556937217,-0.0600542388856411
2024-12-07 16:18:19.738395400,0.3373955078125,-0.0073236874304711,-0.0673779249191284,-0.0568584464490413
2024-12-07 16:18:19.748423000,0.3474228515625,-0.0041278963908553,-0.0673779249191284,-0.0568584464490413
2024-12-07 16:18:19.758450400,0.357450439453125,-0.0041278963908553,-0.0652474015951156,-0.0557931847870349
2024-12-07 16:18:19.768477700,0.367477783203125,-0.0073236874304711,-0.066312663257122,-0.0589889734983444
2024-12-07 16:18:19.778505200,0.377505126953125,-0.0115847419947385,-0.0673779249191284,-0.0675110816955566
2024-12-07 16:18:19.788532700,0.38753271484375,-0.0179763231426477,-0.0695084556937217,-0.0707068741321563
2024-12-07 16:18:19.798560300,0.397560302734375,-0.0233026426285505,-0.0673779249191284,-0.06964161247015
2024-12-07 16:18:19.808587500,0.40758740234375,-0.0264984332025051,-0.0631168708205223,-0.0653805583715438
2024-12-07 16:18:19.818615000,0.417614990234375,-0.0307594873011112,-0.0599210783839225,-0.0621847659349441
2024-12-07 16:18:19.828642600,0.427642578125,-0.0318247526884079,-0.0492684431374073,-0.0547279193997383
2024-12-07 16:18:19.838669800,0.437669921875,-0.0275636967271566,-0.0460726507008075,-0.0472710728645324
2024-12-07 16:18:19.848697300,0.447697265625,-0.0254331696778535,-0.0428768619894981,-0.046205811202526
2024-12-07 16:18:19.858724900,0.457724853515625,-0.022237379103899,-0.0396810695528984,-0.0494015999138355
2024-12-07 16:18:19.868752400,0.46775244140625,-0.0169110596179962,-0.0322242267429828,-0.057923711836338
2024-12-07 16:18:19.878779600,0.477779541015625,-0.0147805325686931,-0.0311589613556861,-0.0739026665687561
2024-12-07 16:18:19.888807200,0.48780712890625,-0.0190415866672992,-0.0460726507008075,-0.0589889734983444
2024-12-07 16:18:19.898834700,0.497834716796875,-0.0201068520545959,-0.0471379160881042,-0.0494015999138355
2024-12-07 16:18:19.908862200,0.5078623046875,-0.0233026426285505,-0.0460726507008075,-0.0525973923504352
2024-12-07 16:18:19.918889500,0.517889404296875,-0.024367906153202,-0.052464235574007,-0.057923711836338
2024-12-07 16:18:19.928917000,0.5279169921875,-0.022237379103899,-0.066312663257122,-0.0643152892589569
2024-12-07 16:18:19.938944500,0.537944580078125,-0.0190415866672992,-0.0801610872149467,-0.068576343357563
2024-12-07 16:18:19.948971800,0.5479716796875,-0.0201068520545959,-0.092944249510765,-0.0643152892589569
2024-12-07 16:18:19.958999300,0.557999267578125,-0.022237379103899,-0.104662150144577,-0.0504668653011322
2024-12-07 16:18:19.969026800,0.56802685546875,-0.0233026426285505,-0.094009518623352,-0.044075284153223
2024-12-07 16:18:19.979054300,0.578054443359375,-0.024367906153202,-0.0748347714543342,-0.030226856470108
2024-12-07 16:18:19.989081600,0.58808154296875,-0.0275636967271566,-0.0567252896726131,-0.0217047464102506
2024-12-07 16:18:19.999109000,0.598109130859375,-0.0371510684490203,-0.052464235574007,-0.0259658005088567
2024-12-07 16:18:20.009136600,0.60813671875,-0.0478037074208259,-0.0556600242853164,-0.0334226451814174
2024-12-07 16:18:20.019164000,0.618163818359375,-0.0595216043293476,-0.0737695097923278,-0.032357383519411
2024-12-07 16:18:20.029191400,0.62819140625,-0.063782662153244,-0.094009518623352,-0.0312921181321144
2024-12-07 16:18:20.039219000,0.638218994140625,-0.0563258156180381,-0.0982705727219581,-0.0270310640335083
2024-12-07 16:18:20.049246500,0.64824658203125,-0.0456731803715229,-0.0844221413135528,-0.0280963294208049
2024-12-07 16:18:20.059273700,0.658273681640625,-0.0392815954983234,-0.0599210783839225,-0.0206394828855991
2024-12-07 16:18:20.069301200,0.66830126953125,-0.0328900143504142,-0.0311589613556861,-0.0057257921434938
2024-12-07 16:18:20.079328800,0.678328857421875,-0.0233026426285505,-0.0077231614850461,0.01344895362854
2024-12-07 16:18:20.089356000,0.68835595703125,-0.0147805325686931,0.005060002207756,0.0294279083609581
2024-12-07 16:18:20.099383600,0.698383544921875,0.0033289489801973,0.0221042204648256,0.0454068630933761
2024-12-07 16:18:20.109411000,0.7084111328125,0.0299605391919612,0.0242347475141286,0.0475373901426792
2024-12-07 16:18:20.119438600,0.7184384765625,0.0597879216074943,0.0274305380880832,0.0422110706567764
2024-12-07 16:18:20.129465900,0.7284658203125,0.0715058222413063,0.0316915921866893,0.0358194895088672
2024-12-07 16:18:20.139493400,0.738493408203125,0.0832237228751182,0.0391484387218952,0.0422110706567764
2024-12-07 16:18:20.149521000,0.74852099609375,0.0896153002977371,0.0423442311584949,0.0475373901426792
2024-12-07 16:18:20.159548200,0.758548095703125,0.0928110927343368,0.0338221192359924,0.0400805436074733
2024-12-07 16:18:20.169575700,0.76857568359375,0.0864195153117179,0.0316915921866893,0.0198405347764492
2024-12-07 16:18:20.179603200,0.778603271484375,0.0715058222413063,0.0242347475141286,-0.002530001103878
2024-12-07 16:18:20.189630700,0.788630615234375,0.0597879216074943,0.0125168478116393,-0.030226856470108
2024-12-07 16:18:20.199658000,0.798657958984375,0.0555268675088882,-0.0066578979603946,-0.06964161247015
2024-12-07 16:18:20.209685500,0.808685546875,0.0427437052130699,-0.038615807890892,-0.1047953143715858
2024-12-07 16:18:20.219713000,0.818713134765625,0.0043942127376794,-0.0780305638909339,-0.1388837546110153
2024-12-07 16:18:20.229740500,0.828740478515625,-0.0275636967271566,-0.1163800507783889,-0.1676458716392517
2024-12-07 16:18:20.239767800,0.838767822265625,-0.0573910772800445,-0.15899059176445,-0.1772332340478897
2024-12-07 16:18:20.249795300,0.84879541015625,-0.0861531943082809,-0.1898832470178604,-0.1751027107238769
2024-12-07 16:18:20.259822800,0.85882275390625,-0.1031974181532859,-0.1973400861024856,-0.1804290264844894
2024-12-07 16:18:20.269850000,0.86885009765625,-0.1106542572379112,-0.2058621942996978,-0.1740374416112899
2024-12-07 16:18:20.279877600,0.878877685546875,-0.1127847880125045,-0.2026664018630981,-0.1676458716392517
2024-12-07 16:18:20.289905200,0.8889052734375,-0.1010668873786926,-0.2079927325248718,-0.163384810090065
2024-12-07 16:18:20.299932700,0.8989326171875,-0.0829574093222618,-0.2229064106941223,-0.1580584943294525
2024-12-07 16:18:20.309960000,0.9089599609375,-0.074435293674469,-0.2506032586097717,-0.1537974327802658
2024-12-07 16:18:20.319987500,0.918987548828125,-0.0755005627870559,-0.2900180220603943,-0.150601640343666
2024-12-07 16:18:20.330015000,0.929014892578125,-0.0723047703504562,-0.3155843615531921,-0.1420795321464538
2024-12-07 16:18:20.340042200,0.939042236328125,-0.0616521313786506,-0.3145190775394439,-0.1207742616534233
2024-12-07 16:18:20.350069800,0.94906982421875,-0.049934234470129,-0.2974748611450195,-0.0952079370617866
2024-12-07 16:18:20.360097300,0.95909716796875,-0.0541952885687351,-0.2676474750041961,-0.0866858288645744
2024-12-07 16:18:20.370124800,0.969124755859375,-0.0861531943082809,-0.2527337968349457,-0.0834900364279747
2024-12-07 16:18:20.380152000,0.979152099609375,-0.0680437162518501,-0.2612559199333191,-0.1079910993576049
2024-12-07 16:18:20.390179600,0.9891796875,-0.0552605502307415,-0.2495380043983459,-0.123970054090023
2024-12-07 16:18:20.400207000,0.99920703125,-0.0435426495969295,-0.2410158962011337,-0.1229047924280166
2024-12-07 16:18:20.410234400,1.009234375,-0.0424773879349231,-0.2474074810743332,-0.1218395307660102
2024-12-07 16:18:20.420262000,1.019261962890625,-0.0435426495969295,-0.2644517123699188,-0.1197089999914169
2024-12-07 16:18:20.430289400,1.029289306640625,-0.0467384420335292,-0.2729738056659698,-0.1324921697378158
2024-12-07 16:18:20.440317000,1.03931689453125,-0.0563258156180381,-0.2900180220603943,-0.1601890176534652
2024-12-07 16:18:20.450344200,1.04934423828125,-0.074435293674469,-0.3209106624126434,-0.1996037811040878
2024-12-07 16:18:20.460371700,1.059371826171875,-0.0957405716180801,-0.3613906800746918,-0.2571280002593994
2024-12-07 16:18:20.470399200,1.069399169921875,-0.1127847880125045,-0.4189149141311645,-0.3071953952312469
2024-12-07 16:18:20.480426500,1.079426513671875,-0.118111103773117,-0.4519380927085876,-0.3370227813720703
2024-12-07 16:18:20.490454000,1.0894541015625,-0.1245026886463165,-0.4540686309337616,-0.36152383685112
2024-12-07 16:18:20.500481500,1.0994814453125,-0.1170458421111106,-0.4487423002719879,-0.3849596381187439
2024-12-07 16:18:20.510509000,1.109509033203125,-0.1234374269843101,-0.4295675754547119,-0.3902859687805176
2024-12-07 16:18:20.520536600,1.11953662109375,-0.1468732208013534,-0.404001235961914,-0.3817638456821441
2024-12-07 16:18:20.530564000,1.129564208984375,-0.1532648056745529,-0.3805654346942901,-0.3689807057380676
2024-12-07 16:18:20.540591600,1.139591552734375,-0.1756353378295898,-0.3528685867786407,-0.3498059511184692
2024-12-07 16:18:20.550619100,1.149619140625,-0.2065279930830001,-0.349672794342041,-0.3178480267524719
2024-12-07 16:18:20.560646700,1.159646728515625,-0.2075932472944259,-0.3464770019054413,-0.2816290855407715
2024-12-07 16:18:20.570674200,1.169674072265625,-0.2225069403648376,-0.3443464636802673,-0.2454101145267486
2024-12-07 16:18:20.580701700,1.17970166015625,-0.2129195630550384,-0.3326285779476166,-0.2219743132591247
2024-12-07 16:18:20.590729200,1.189729248046875,-0.1873532384634018,-0.2889527678489685,-0.2081258893013
2024-12-07 16:18:20.600756700,1.1997568359375,-0.1767006069421768,-0.2303632646799087,-0.1878858804702758
2024-12-07 16:18:20.610784000,1.209783935546875,-0.1724395453929901,-0.1802958697080612,-0.1751027107238769
2024-12-07 16:18:20.620811500,1.2198115234375,-0.1671132296323776,-0.1579253375530243,-0.1612542867660522
2024-12-07 16:18:20.630839000,1.229839111328125,-0.1703090220689773,-0.1238368973135948,-0.1367532163858413
2024-12-07 16:18:20.640866600,1.239866455078125,-0.1777658760547638,-0.0822916179895401,-0.1015995219349861
2024-12-07 16:18:20.650894000,1.24989404296875,-0.185222715139389,-0.0620516054332256,-0.0515321269631385
2024-12-07 16:18:20.660921600,1.259921630859375,-0.1926795542240142,-0.0748347714543342,0.0006657897611148
2024-12-07 16:18:20.670949000,1.26994921875,-0.186287984251976,-0.1025316268205642,0.0347542278468608
2024-12-07 16:18:20.680976600,1.2799765625,-0.1713742911815643,-0.1195758432149887,0.0581900253891944
2024-12-07 16:18:20.691004200,1.290004150390625,-0.1543300747871399,-0.1227716356515884,0.0869521424174308
2024-12-07 16:18:20.701031700,1.30003173828125,-0.1351553201675415,-0.1131842583417892,0.1231711059808731
2024-12-07 16:18:20.711059200,1.31005908203125,-0.1063932031393051,-0.076965294778347,0.1221058443188667
2024-12-07 16:18:20.721086700,1.320086669921875,-0.0701742395758628,-0.0322242267429828,0.0571247637271881
2024-12-07 16:18:20.731114200,1.3301142578125,-0.0541952885687351,0.0135821113362908,-0.0547279193997383
2024-12-07 16:18:20.741141500,1.3401416015625,-0.1362205892801284,0.0519316010177135,-0.1261005848646164
2024-12-07 16:18:20.751169000,1.3501689453125,-0.1106542572379112,0.0732368752360344,-0.1846900880336761
2024-12-07 16:18:20.761196500,1.360196533203125,-0.1330247968435287,0.1243695318698883,-0.2059953510761261
2024-12-07 16:18:20.771224000,1.37022412109375,-0.185222715139389,0.1541969180107116,-0.1708416491746902
2024-12-07 16:18:20.781251600,1.38025146484375,-0.2043974548578262,0.1861548274755478,-0.1303616315126419
2024-12-07 16:18:20.791279000,1.390279052734375,-0.2235722094774246,0.2074600905179977,-0.0930774137377739
2024-12-07 16:18:20.801306600,1.400306640625,-0.2203764170408249,0.2010685056447982,-0.0600542388856411
2024-12-07 16:18:20.811334100,1.410334228515625,-0.2150501012802124,0.1637842804193496,-0.0153131652623415
2024-12-07 16:18:20.821361700,1.420361572265625,-0.2257027328014373,0.1062600463628768,0.0422110706567764
2024-12-07 16:18:20.831389200,1.43038916015625,-0.2533995807170868,0.0615189746022224,0.0976047813892364
2024-12-07 16:18:20.841416700,1.440416748046875,-0.2619217038154602,0.0263652745634317,0.1625858694314956
2024-12-07 16:18:20.851444000,1.45044384765625,-0.2704437971115112,0.0210389569401741,0.2179795652627945
2024-12-07 16:18:20.861471500,1.460471435546875,-0.2363553643226623,0.0263652745634317,0.2531332671642303
2024-12-07 16:18:20.871499000,1.4704990234375,-0.1511342823505401,-0.0375505425035953,0.2755038142204284
2024-12-07 16:18:20.881526500,1.480526611328125,-0.0648479238152504,-0.5403549671173096,0.1732385009527206
2024-12-07 16:18:20.891553800,1.4905537109375,-0.0691089779138565,-0.4902876019477844,0.2914827764034271
2024-12-07 16:18:20.901581300,1.500581298828125,0.0597879216074943,-0.3741738498210907,0.4267712533473968
2024-12-07 16:18:20.911608800,1.51060888671875,0.1524658650159835,-0.4540686309337616,0.4331628382205963
2024-12-07 16:18:20.921636000,1.520635986328125,0.2494048476219177,-0.7139929533004761,0.4289017617702484
2024-12-07 16:18:20.931663600,1.53066357421875,0.2984069883823395,-0.9664604663848876,0.466185986995697
2024-12-07 16:18:20.941691100,1.540691162109375,0.3314301371574402,-1.2934963703155518,0.5237102508544922
2024-12-07 16:18:20.951718700,1.55071875,0.3303648829460144,-1.2093405723571775,0.6994787454605103
2024-12-07 16:18:20.961746000,1.560745849609375,0.4528702199459076,-1.0016140937805176,0.8177229762077332
2024-12-07 16:18:20.971773400,1.5707734375,0.575375497341156,-0.8247803449630737,0.8496809005737305
2024-12-07 16:18:20.981801000,1.580801025390625,0.658466100692749,-0.7885614037513733,0.7804387807846069
2024-12-07 16:18:20.991828200,1.590828125,0.7000113725662231,-0.7651256322860718,0.6579334735870361
2024-12-07 16:18:21.001855700,1.600855712890625,0.6936197876930237,-0.5755086541175842,0.5567334294319153
2024-12-07 16:18:21.011883300,1.61088330078125,0.6297039985656738,-0.3826959729194641,0.4502070546150207
2024-12-07 16:18:21.021910800,1.620910888671875,0.5764408111572266,-0.2996053993701935,0.3841606974601745
2024-12-07 16:18:21.031938000,1.63093798828125,0.4944154918193817,-0.2921485602855682,0.3841606974601745
2024-12-07 16:18:21.041965600,1.640965576171875,0.4390217661857605,-0.3070622384548187,0.4480765163898468
2024-12-07 16:18:21.051993000,1.6509931640625,0.4528702199459076,-0.3464770019054413,0.5929523706436157
2024-12-07 16:18:21.062020400,1.661020263671875,0.4837628602981567,-0.3070622384548187,0.7484808564186096
2024-12-07 16:18:21.072047900,1.6710478515625,0.4858933687210083,-0.2580601274967193,0.8837693333625793
2024-12-07 16:18:21.082075400,1.681075439453125,0.4560659825801849,-0.3273022472858429,1.0041441917419434
2024-12-07 16:18:21.092103000,1.69110302734375,0.3751059472560882,-0.5201149582862854,0.9945567846298218
2024-12-07 16:18:21.102130200,1.701130126953125,0.2526006400585174,-0.7065361142158508,0.8571377396583557
2024-12-07 16:18:21.112157700,1.71115771484375,0.1311605870723724,-0.6820350289344788,0.6270408034324646
2024-12-07 16:18:21.122185200,1.721185302734375,0.0597879216074943,-0.3986749053001404,0.457663893699646
2024-12-07 16:18:21.132212700,1.731212646484375,0.085354246199131,-0.0982705727219581,0.3788343966007232
2024-12-07 16:18:21.142240000,1.741239990234375,0.1780321896076202,0.0103863207623362,0.3862912356853485
2024-12-07 16:18:21.152267500,1.751267578125,0.3218427896499634,0.0551273934543132,0.4459459781646728
2024-12-07 16:18:21.162295000,1.761294921875,0.4624575674533844,0.018908429890871,0.5151881575584412
2024-12-07 16:18:21.172322300,1.771322265625,0.5498092174530029,-0.1067926809191703,0.5567334294319153
2024-12-07 16:18:21.182349800,1.781349853515625,0.5444828867912292,-0.228232741355896,0.5652555227279663
2024-12-07 16:18:21.192377300,1.79137744140625,0.4816323220729828,-0.2974748611450195,0.5215796828269958
2024-12-07 16:18:21.202404900,1.80140478515625,0.3868238627910614,-0.29108327627182,0.4150533378124237
2024-12-07 16:18:21.212432100,1.81143212890625,0.2888196110725403,-0.2548643350601196,0.3117227852344513
2024-12-07 16:18:21.222459600,1.821459716796875,0.2089248299598693,-0.2047969400882721,0.212653249502182
2024-12-07 16:18:21.232487200,1.831487060546875,0.1545963883399963,-0.0748347714543342,0.1210405826568603
2024-12-07 16:18:21.242514400,1.841514404296875,0.1439437568187713,0.0029294749256223,0.0677774026989936
2024-12-07 16:18:21.252542000,1.8515419921875,0.1290300637483596,0.0892158299684524,0.0379500165581703
2024-12-07 16:18:21.262569500,1.861569580078125,0.1034637317061424,0.1222390010952949,-0.0003994738799519
2024-12-07 16:18:21.272597000,1.871596923828125,0.0395479127764701,0.1765674501657486,-0.0280963294208049
2024-12-07 16:18:21.282624300,1.881624267578125,-0.0019973693415522,-0.024767380207777,-0.1037300452589988
2024-12-07 16:18:21.292651800,1.89165185546875,-0.0467384420335292,-0.2591253817081451,-0.162319540977478
2024-12-07 16:18:21.302679300,1.90167919921875,-0.1245026886463165,-0.0695084556937217,-0.1655153334140777
2024-12-07 16:18:21.312706600,1.91170654296875,-0.1415469050407409,-0.1866874545812606,-0.2709764242172241
2024-12-07 16:18:21.322734000,1.921734130859375,-0.1756353378295898,-0.2996053993701935,-0.3679154217243194
2024-12-07 16:18:21.332761600,1.93176171875,-0.2597911655902862,-0.2601906359195709,-0.4105259776115417
2024-12-07 16:18:21.342789000,1.9417890625,-0.3503385782241821,-0.1632516533136367,-0.4190480709075928
2024-12-07 16:18:21.352816400,1.95181640625,-0.4312986135482788,-0.0428768619894981,-0.4137217700481415
2024-12-07 16:18:21.362844000,1.961843994140625,-0.495214432477951,0.0647147670388221,-0.4435491561889648
2024-12-07 16:18:21.372871400,1.971871337890625,-0.5495429039001465,0.1307611167430877,-0.4957470595836639
2024-12-07 16:18:21.382898700,1.981898681640625,-0.6251766085624695,0.148870587348938,-0.5213133692741394
2024-12-07 16:18:21.392926200,1.99192626953125,-0.6890923976898193,0.1030642539262771,-0.539422869682312
2024-12-07 16:18:21.402953700,2.00195361328125,-0.7444861531257629,0.0114515842869877,-0.5841639637947083
2024-12-07 16:18:21.412981200,2.011981201171875,-0.753008246421814,-0.1813611388206482,-0.5830987095832825
2024-12-07 16:18:21.423008500,2.022008544921875,-0.7167892456054688,-0.3667170107364654,-0.5063996911048889
2024-12-07 16:18:21.433036000,2.0320361328125,-0.6113281846046448,-0.5531381368637085,-0.4499407410621643
2024-12-07 16:18:21.443063600,2.0420634765625,-0.451538622379303,-0.6649908423423767,-0.34021857380867
2024-12-07 16:18:21.453090800,2.0520908203125,-0.2246374636888504,-0.6692518591880798,-0.1814942955970764
2024-12-07 16:18:21.463118300,2.062118408203125,-0.0062584239058196,-0.6415550112724304,-0.0312921181321144
2024-12-07 16:18:21.473145900,2.072145751953125,0.1631184965372085,-0.5701823830604553,0.054994236677885
2024-12-07 16:18:21.483173400,2.08217333984375,0.2973417043685913,-0.3805654346942901,0.0901479348540306
2024-12-07 16:18:21.493200600,2.09220068359375,0.3740406930446625,-0.1355548053979873,0.0858868807554245
2024-12-07 16:18:21.503228200,2.102228271484375,0.3687143921852112,0.0806937217712402,-0.0206394828855991
2024-12-07 16:18:21.513255700,2.112255615234375,0.3016027808189392,0.1201084777712822,-0.2113216817378997
2024-12-07 16:18:21.523283200,2.122283203125,0.2174469381570816,0.0764326676726341,-0.4062649309635162
2024-12-07 16:18:21.533310500,2.132310546875,0.1428784877061844,0.0508663393557071,-0.5426186919212341
2024-12-07 16:18:21.543338000,2.142337890625,0.062983714044094,-0.066312663257122,-0.6107955574989319
2024-12-07 16:18:21.553365500,2.152365478515625,-0.0318247526884079,-0.3134538233280182,-0.5575323700904846
2024-12-07 16:18:21.563392800,2.162392822265625,-0.1415469050407409,-0.6032055616378784,-0.4126565158367157
2024-12-07 16:18:21.573420300,2.172420166015625,-0.2725743353366852,-0.8045403361320496,-0.2390185296535492
2024-12-07 16:18:21.583447800,2.18244775390625,-0.384427011013031,-0.8141277432441711,-0.0675110816955566
2024-12-07 16:18:21.593475300,2.192475341796875,-0.4430165290832519,-0.668186604976654,0.1018658354878425
2024-12-07 16:18:21.603502600,2.202502685546875,-0.4078628122806549,-0.4945486485958099,0.1806953400373459
2024-12-07 16:18:21.613530000,2.212530029296875,-0.3141196072101593,-0.2218411564826965,0.1711079776287078
2024-12-07 16:18:21.623557600,2.2225576171875,-0.2225069403648376,0.0402137041091918,0.0848216190934181
2024-12-07 16:18:21.633585200,2.232585205078125,-0.140481635928154,0.2522011697292328,-0.018508955836296
2024-12-07 16:18:21.643612700,2.24261279296875,-0.0872184634208679,0.2958769798278808,-0.1356879621744156
2024-12-07 16:18:21.653640200,2.25264013671875,-0.0882837250828743,0.2351569533348083,-0.1964079886674881
2024-12-07 16:18:21.663667700,2.262667724609375,-0.1031974181532859,0.182959035038948,-0.2123869359493255
2024-12-07 16:18:21.673695200,2.2726953125,-0.0925447791814804,0.1456748098134994,-0.2049300968647003
2024-12-07 16:18:21.683722500,2.282722412109375,-0.0254331696778535,0.0902810916304588,-0.1804290264844894
2024-12-07 16:18:21.693750000,2.29275,0.073636345565319,0.0167779028415679,-0.1836248189210891
2024-12-07 16:18:21.703777500,2.302777587890625,0.1460742801427841,-0.0471379160881042,-0.2326269447803497
2024-12-07 16:18:21.713805000,2.31280517578125,0.1759016513824463,0.0071905297227203,-0.2688459157943725
2024-12-07 16:18:21.723832600,2.32283251953125,0.179097443819046,0.0838895142078399,-0.283759593963623
2024-12-07 16:18:21.733860000,2.332860107421875,0.1705753356218338,0.1776327192783355,-0.2763027548789978
2024-12-07 16:18:21.743887600,2.3428876953125,0.1748363971710205,0.30546435713768,-0.2763027548789978
2024-12-07 16:18:21.753915100,2.3529150390625,0.1897500902414322,0.4055991172790527,-0.2794985473155975
2024-12-07 16:18:21.763942700,2.362942626953125,0.2035985141992569,0.4844286441802978,-0.2635195851325989
2024-12-07 16:18:21.773970200,2.37297021484375,0.2004027217626571,0.5515402555465698,-0.2411490529775619
2024-12-07 16:18:21.783997700,2.382997802734375,0.2025332450866699,0.5653886795043945,-0.2422143220901489
2024-12-07 16:18:21.794025200,2.393025146484375,0.2025332450866699,0.5238434076309204,-0.2603237926959991
2024-12-07 16:18:21.804052500,2.403052490234375,0.2067943066358566,0.4769718050956726,-0.285890132188797
2024-12-07 16:18:21.814080000,2.413080078125,0.2121206223964691,0.3906854391098022,-0.3125217258930206
2024-12-07 16:18:21.824107500,2.423107421875,0.2046637833118438,0.3033338189125061,-0.3370227813720703
2024-12-07 16:18:21.834135000,2.433135009765625,0.1865542978048324,0.2308958917856216,-0.3572627902030945
2024-12-07 16:18:21.844162600,2.44316259765625,0.1588574349880218,0.1669800728559494,-0.3806985914707184
2024-12-07 16:18:21.854190000,2.453190185546875,0.1258342713117599,0.1083905771374702,-0.4083954393863678
2024-12-07 16:18:21.864217600,2.463217529296875,0.0970721468329429,0.0210389569401741,-0.4243744015693664
2024-12-07 16:18:21.874245000,2.4732451171875,0.0789626687765121,-0.120641104876995,-0.4233091473579407
2024-12-07 16:18:21.884272600,2.483272705078125,0.0512658134102821,-0.2442116886377334,-0.4371575713157654
2024-12-07 16:18:21.894300200,2.493300048828125,0.0225036945194005,-0.3113232851028442,-0.4360923171043396
2024-12-07 16:18:21.904327700,2.50332763671875,0.005459476262331,-0.3400854170322418,-0.4254396557807922
2024-12-07 16:18:21.914355200,2.513355224609375,-0.0147805325686931,-0.3422159552574157,-0.4190480709075928
2024-12-07 16:18:21.924382700,2.5233828125,-0.0414121225476264,-0.3059969842433929,-0.4243744015693664
2024-12-07 16:18:21.934410000,2.533409912109375,-0.1042626798152923,-0.2665822207927704,-0.407330185174942
2024-12-07 16:18:21.944437500,2.5434375,-0.1149153187870979,-0.2356895804405212,-0.4041343927383423
2024-12-07 16:18:21.954465000,2.553465087890625,-0.1905490309000015,-0.1643169224262237,-0.3892207145690918
2024-12-07 16:18:21.964492500,2.563492431640625,-0.1926795542240142,-0.104662150144577,-0.3753722608089447
2024-12-07 16:18:21.974520000,2.57352001953125,-0.1798963993787765,-0.0748347714543342,-0.3753722608089447
2024-12-07 16:18:21.984547600,2.583547607421875,-0.1553953289985656,-0.0258326437324285,-0.3828291296958923
2024-12-07 16:18:21.994575000,2.5935751953125,-0.140481635928154,0.0423442311584949,-0.3988080620765686
2024-12-07 16:18:22.004602400,2.603602294921875,-0.1223721578717231,0.071106344461441,-0.3775027990341186
2024-12-07 16:18:22.014630000,2.6136298828125,-0.1063932031393051,0.0796284601092338,-0.3359575271606445
2024-12-07 16:18:22.024657400,2.623657470703125,-0.1042626798152923,0.099868468940258,-0.3061301410198211
2024-12-07 16:18:22.034684700,2.6336845703125,-0.107458472251892,0.1414137482643127,-0.283759593963623
2024-12-07 16:18:22.044712200,2.643712158203125,-0.118111103773117,0.1691105961799621,-0.2603237926959991
2024-12-07 16:18:22.054739700,2.65373974609375,-0.1415469050407409,0.1765674501657486,-0.2368880063295364
2024-12-07 16:18:22.064767200,2.663767333984375,-0.1692437678575515,0.2010685056447982,-0.2422143220901489
2024-12-07 16:18:22.074794500,2.67379443359375,-0.1884185075759887,0.1893506050109863,-0.2326269447803497
2024-12-07 16:18:22.084822000,2.683822021484375,-0.2129195630550384,0.204264298081398,-0.2230395674705505
2024-12-07 16:18:22.094849500,2.693849609375,-0.2470080107450485,0.249005377292633,-0.2155827283859253
2024-12-07 16:18:22.104877000,2.703876953125,-0.2832269668579101,0.2000032514333725,-0.1367532163858413
2024-12-07 16:18:22.114904300,2.713904296875,-0.3215764760971069,0.2223737835884094,-0.1101216301321983
2024-12-07 16:18:22.124931800,2.723931884765625,-0.3205111920833587,0.2340916842222213,-0.1026647835969924
2024-12-07 16:18:22.134959400,2.73395947265625,-0.317315399646759,0.247940108180046,-0.084555298089981
2024-12-07 16:18:22.144986600,2.743986572265625,-0.3130543529987335,0.3587275445461273,-0.0984037294983863
2024-12-07 16:18:22.155014100,2.75401416015625,-0.2928143441677093,0.3981422781944275,-0.0813595131039619
2024-12-07 16:18:22.165041700,2.764041748046875,-0.2789659202098846,0.439687579870224,-0.1271658539772033
2024-12-07 16:18:22.175069200,2.774069091796875,-0.2821617126464844,0.4205128252506256,-0.1676458716392517
2024-12-07 16:18:22.185096400,2.784096435546875,-0.2874880135059356,0.3502054214477539,-0.1782985031604766
2024-12-07 16:18:22.195124000,2.7941240234375,-0.3024017214775085,0.3736412227153778,-0.2038648277521133
2024-12-07 16:18:22.205151500,2.8041513671875,-0.3269027769565582,0.450340211391449,-0.2102564126253128
2024-12-07 16:18:22.215178800,2.8141787109375,-0.3524691164493561,0.517451822757721,-0.1996037811040878
2024-12-07 16:18:22.225206300,2.824206298828125,-0.3162501454353332,0.4609928429126739,-0.1090563684701919
2024-12-07 16:18:22.235233800,2.83423388671875,-0.3354249000549316,0.5792371034622192,-0.1090563684701919
2024-12-07 16:18:22.245261300,2.84426123046875,-0.3886880576610565,0.6346307992935181,-0.0483363382518291
2024-12-07 16:18:22.255288600,2.85428857421875,-0.2736395895481109,0.4993423223495483,0.0635163411498069
2024-12-07 16:18:22.265316000,2.864316162109375,-0.0701742395758628,0.3896201848983764,0.1817606091499328
2024-12-07 16:18:22.275343600,2.874343505859375,0.0118510583415627,0.4045338630676269,0.1988048255443573
2024-12-07 16:18:22.285371000,2.884370849609375,0.0810931921005249,0.4119907021522522,0.2190448343753814
2024-12-07 16:18:22.295398400,2.8943984375,0.1173121556639671,0.4024033546447754,0.266981691122055
2024-12-07 16:18:22.305426000,2.904426025390625,0.0917458310723304,0.3800328075885772,0.3127880394458771
2024-12-07 16:18:22.315453400,2.914453369140625,0.102398470044136,0.2767022252082824,0.3021354079246521
2024-12-07 16:18:22.325480700,2.924480712890625,0.113051101565361,0.2468748539686203,0.2520680129528045
2024-12-07 16:18:22.335508200,2.93450830078125,0.1215732097625732,0.2777675092220306,0.212653249502182
2024-12-07 16:18:22.345535700,2.94453564453125,0.113051101565361,0.2990727722644806,0.2062616795301437
2024-12-07 16:18:22.355563000,2.95456298828125,0.0896153002977371,0.2969422340393066,0.2307627350091934
2024-12-07 16:18:22.365590500,2.964590576171875,0.0544616021215915,0.2798980176448822,0.2829606533050537
2024-12-07 16:18:22.375618000,2.9746181640625,0.0246342215687036,0.2213085144758224,0.3522028028964996
2024-12-07 16:18:22.385645600,2.9846455078125,-0.0350205413997173,0.1137168928980827,0.4842954874038696
2024-12-07 16:18:22.395672800,2.9946728515625,-0.0893489867448806,0.046605285257101,0.654737651348114
2024-12-07 16:18:22.405700400,3.004700439453125,-0.0680437162518501,-0.0833568796515464,0.8209187984466553
2024-12-07 16:18:22.415727900,3.014727783203125,-0.0478037074208259,-0.2836264371871948,0.9966872930526732
2024-12-07 16:18:22.425755400,3.02475537109375,-0.0286289602518081,-0.4189149141311645,1.1351715326309204
2024-12-07 16:18:22.435782700,3.03478271484375,0.0288952756673097,-0.4764391779899597,1.223588466644287
2024-12-07 16:18:22.445810200,3.04481005859375,0.1194426864385604,-0.4743086397647857,1.299222111701965
2024-12-07 16:18:22.455837700,3.054837646484375,0.2078595608472824,-0.4114580750465393,1.373790621757507
2024-12-07 16:18:22.465865000,3.064864990234375,0.2717753946781158,-0.2783001363277435,1.4100096225738523
2024-12-07 16:18:22.475892500,3.074892578125,0.3633880615234375,-0.1302284747362136,1.3919000625610352
2024-12-07 16:18:22.485920000,3.084919921875,0.4837628602981567,-0.0844221413135528,1.2747211456298828
2024-12-07 16:18:22.495947500,3.094947509765625,0.6062681674957275,-0.1462074369192123,1.211870551109314
2024-12-07 16:18:22.505974800,3.104974853515625,0.704272449016571,-0.2591253817081451,1.2523505687713623
2024-12-07 16:18:22.516002300,3.115002197265625,0.7266429662704468,-0.4956139028072357,1.2076095342636108
2024-12-07 16:18:22.526029800,3.12502978515625,0.6925545334815979,-0.8247803449630737,0.9721862077713012
2024-12-07 16:18:22.536057000,3.13505712890625,0.6083986759185791,-1.032506823539734,0.6771082282066345
2024-12-07 16:18:22.546084600,3.145084716796875,0.4443480968475342,-1.0857700109481812,0.4800344407558441
2024-12-07 16:18:22.556112100,3.155112060546875,0.2398174703121185,-1.0271804332733154,0.3468764722347259
2024-12-07 16:18:22.566139600,3.1651396484375,0.062983714044094,-0.8865656852722168,0.2222406268119812
2024-12-07 16:18:22.576167000,3.1751669921875,-0.074435293674469,-0.6532729268074036,0.1125184744596481
2024-12-07 16:18:22.586194400,3.1851943359375,-0.1543300747871399,-0.404001235961914,0.0486026518046855
2024-12-07 16:18:22.596222000,3.195221923828125,-0.1926795542240142,-0.1376853287220001,0.0464721247553825
2024-12-07 16:18:22.606249200,3.205249267578125,-0.1990711390972137,0.0796284601092338,0.0720384567975997
2024-12-07 16:18:22.616276700,3.21527685546875,-0.184157446026802,0.1680453419685363,0.0826910883188247
2024-12-07 16:18:22.626304300,3.22530419921875,-0.1724395453929901,0.1765674501657486,0.0656468719244003
2024-12-07 16:18:22.636331800,3.235331787109375,-0.1447426974773407,0.1137168928980827,0.0187752712517976
2024-12-07 16:18:22.646359000,3.245359130859375,-0.0818921402096748,0.0167779028415679,-0.0472710728645324
2024-12-07 16:18:22.656386600,3.255386474609375,-0.074435293674469,-0.105727419257164,-0.1143826842308044
2024-12-07 16:18:22.666414000,3.2654140625,-0.129829004406929,-0.2655169665813446,-0.1857553422451019
2024-12-07 16:18:22.676441300,3.27544140625,-0.1351553201675415,-0.4093275666236877,-0.2422143220901489
2024-12-07 16:18:22.686468900,3.28546875,-0.0968058332800865,-0.5222455263137817,-0.3242396116256714
2024-12-07 16:18:22.696496400,3.295496337890625,-0.1031974181532859,-0.5872265696525574,-0.4307659864425659
2024-12-07 16:18:22.706524000,3.30552392578125,-0.1926795542240142,-0.6085318326950073,-0.5181176066398621
2024-12-07 16:18:22.716551200,3.31555126953125,-0.3055975139141083,-0.5392897129058838,-0.5916208028793335
2024-12-07 16:18:22.726578700,3.32557861328125,-0.4291680753231048,-0.4306328296661377,-0.6480797529220581
2024-12-07 16:18:22.736606200,3.335606201171875,-0.5484775900840759,-0.303866446018219,-0.6885597705841064
2024-12-07 16:18:22.746633700,3.3456337890625,-0.6656566262245178,-0.1067926809191703,-0.7226482033729553
2024-12-07 16:18:22.756661200,3.3556611328125,-0.798814594745636,0.1211737394332885,-0.7514103651046753
2024-12-07 16:18:22.766688800,3.365688720703125,-0.9213199019432068,0.3661843836307525,-0.7663240432739258
2024-12-07 16:18:22.776716000,3.375716064453125,-1.0108020305633545,0.5845634341239929,-0.7578019499778748
2024-12-07 16:18:22.786743600,3.38574365234375,-1.0981537103652954,0.7049382328987122,-0.6938861012458801
2024-12-07 16:18:22.796771000,3.39577099609375,-1.1396989822387695,0.6985466480255127,-0.5969471335411072
2024-12-07 16:18:22.806798600,3.405798583984375,-1.0917620658874512,0.601607620716095,-0.5255744457244873
2024-12-07 16:18:22.816826000,3.415826171875,-0.953277826309204,0.4045338630676269,-0.4691154658794403
2024-12-07 16:18:22.826853600,3.425853515625,-0.8787093162536621,0.2074600905179977,-0.461658626794815
2024-12-07 16:18:22.836881200,3.435881103515625,-0.8904272317886353,0.1233042627573013,-0.4701807498931885
2024-12-07 16:18:22.846908700,3.44590869140625,-0.93303781747818,0.193611666560173,-0.4989428520202636
2024-12-07 16:18:22.856936200,3.455936279296875,-0.9703220129013062,0.337422251701355,-0.509595513343811
2024-12-07 16:18:22.866963700,3.465963623046875,-0.9351683259010316,0.3555317521095276,-0.4243744015693664
2024-12-07 16:18:22.876991200,3.4759912109375,-0.7540735006332397,0.3320959508419037,-0.3093259334564209
2024-12-07 16:18:22.887018800,3.486018798828125,-0.5079975724220276,0.3075948655605316,-0.1868206113576889
2024-12-07 16:18:22.897046300,3.49604638671875,-0.4089280664920807,0.2660495936870575,-0.0802942439913749
2024-12-07 16:18:22.907073500,3.506073486328125,-0.2491385340690612,0.2958769798278808,-0.0174436923116445
2024-12-07 16:18:22.917101000,3.51610107421875,-0.0350205413997173,0.3395527899265289,-0.0174436923116445
2024-12-07 16:18:22.927128600,3.526128662109375,0.1535311192274093,0.4290349185466766,-0.0568584464490413
2024-12-07 16:18:22.937156000,3.536156005859375,0.3229080438613891,0.4961465299129486,-0.1229047924280166
2024-12-07 16:18:22.947183600,3.54618359375,0.4688491523265838,0.5036033987998962,-0.1719069182872772
2024-12-07 16:18:22.957211100,3.556211181640625,0.658466100692749,0.5110602378845215,-0.2102564126253128
2024-12-07 16:18:22.967238700,3.56623876953125,0.7692534923553467,0.6740455627441406,-0.163384810090065
2024-12-07 16:18:22.977266200,3.57626611328125,0.7660577297210693,0.8828372359275818,-0.1015995219349861
2024-12-07 16:18:22.987293700,3.586293701171875,0.7607313990592957,0.9978857040405272,-0.1229047924280166
2024-12-07 16:18:22.997321200,3.5963212890625,0.6840324401855469,0.9563404321670532,-0.2091911435127258
2024-12-07 16:18:23.007348700,3.6063486328125,0.5572660565376282,0.7113298177719116,-0.3306311964988708
2024-12-07 16:18:23.017376300,3.616376220703125,0.4454133510589599,0.4141212403774261,-0.4233091473579407
2024-12-07 16:18:23.027403800,3.62640380859375,0.3154512047767639,0.1914811432361602,-0.4403533637523651
2024-12-07 16:18:23.037431000,3.63643115234375,0.1471395343542099,-0.0162452701479196,-0.4286354482173919
2024-12-07 16:18:23.047458600,3.64645849609375,-0.0051931603811681,-0.1121189966797828,-0.4563323259353637
2024-12-07 16:18:23.057486000,3.656486083984375,-0.1671132296323776,-0.0631168708205223,-0.5213133692741394
2024-12-07 16:18:23.067513600,3.666513671875,-0.2491385340690612,0.0647147670388221,-0.5969471335411072
2024-12-07 16:18:23.077541000,3.676541015625,-0.2640522122383117,0.2085253596305847,-0.6374271512031555
2024-12-07 16:18:23.087568600,3.686568603515625,-0.2704437971115112,0.3086601495742798,-0.585229218006134
2024-12-07 16:18:23.097596200,3.69659619140625,-0.2225069403648376,0.5281044244766235,-0.47231125831604
2024-12-07 16:18:23.107623700,3.706623779296875,-0.0850879326462745,0.6601971387863159,-0.3498059511184692
2024-12-07 16:18:23.117651000,3.71665087890625,-0.0339552797377109,0.6346307992935181,-0.2464753687381744
2024-12-07 16:18:23.127678500,3.726678466796875,0.0043942127376794,0.5984118580818176,-0.1612542867660522
2024-12-07 16:18:23.137706000,3.7367060546875,0.1226384788751602,0.5685844421386719,-0.1047953143715858
2024-12-07 16:18:23.147733500,3.7467333984375,0.2536658942699432,0.5611276030540466,-0.0877510905265808
2024-12-07 16:18:23.157760800,3.7567607421875,0.3559312224388122,0.5973466038703918,-0.0888163596391677
2024-12-07 16:18:23.167788300,3.766788330078125,0.3996070325374603,0.601607620716095,-0.0813595131039619
2024-12-07 16:18:23.177815800,3.77681591796875,0.3974764943122864,0.5419528484344482,-0.112252153456211
2024-12-07 16:18:23.187843000,3.786843017578125,0.3910849094390869,0.5078644156455994,-0.1889511346817016
2024-12-07 16:18:23.197870600,3.79687060546875,0.4400870501995086,0.5568665862083435,-0.2571280002593994
2024-12-07 16:18:23.207898000,3.806898193359375,0.4645881056785583,0.5792371034622192,-0.3082606792449951
2024-12-07 16:18:23.217925600,3.816925537109375,0.3420827984809875,0.4439486265182495,-0.3551322519779205
2024-12-07 16:18:23.227953000,3.826952880859375,-0.1681784987449646,-0.010918952524662,-0.4265049397945404
2024-12-07 16:18:23.237980400,3.83698046875,-0.1042626798152923,-0.1845569312572479,-0.5234439373016357
2024-12-07 16:18:23.248008000,3.847008056640625,0.0086552668362855,-0.1334242671728134,-0.5447492003440857
2024-12-07 16:18:23.258035200,3.85703515625,0.0363521203398704,-0.076965294778347,-0.5554018020629883
2024-12-07 16:18:23.268062700,3.867062744140625,0.114116370677948,-0.0290284343063831,-0.585229218006134
2024-12-07 16:18:23.278090200,3.87709033203125,-0.0115847419947385,-0.0801610872149467,-0.6193176507949829
2024-12-07 16:18:23.288117800,3.88711767578125,-0.2171806246042251,-0.149403229355812,-0.6278397440910339
2024-12-07 16:18:23.298145000,3.89714501953125,-0.3354249000549316,-0.1728390306234359,-0.5820333957672119
2024-12-07 16:18:23.308172500,3.907172607421875,-0.3972101807594299,-0.105727419257164,-0.5458144545555115
2024-12-07 16:18:23.318200000,3.917199951171875,-0.7125282287597656,-0.3454117476940155,-0.3743070065975189
2024-12-07 16:18:23.328227300,3.927227294921875,-0.5250418186187744,-0.2548643350601196,-0.350871205329895
2024-12-07 16:18:23.338254800,3.9372548828125,-0.1756353378295898,0.1009337306022644,-0.4265049397945404
2024-12-07 16:18:23.348282400,3.947282470703125,-0.1980058848857879,0.0593884475529193,-0.3071953952312469
2024-12-07 16:18:23.358310000,3.957309814453125,-0.2310290485620498,0.0647147670388221,-0.2038648277521133
2024-12-07 16:18:23.368337200,3.967337158203125,-0.1415469050407409,0.1637842804193496,-0.1985385119915008
2024-12-07 16:18:23.378364700,3.97736474609375,-0.1053279414772987,0.2000032514333725,-0.207060620188713
2024-12-07 16:18:23.388392200,3.98739208984375,-0.0872184634208679,0.2553969621658325,-0.1729721873998642
2024-12-07 16:18:23.398419700,3.997419677734375,-0.0691089779138565,0.2468748539686203,-0.150601640343666
2024-12-07 16:18:23.408447000,4.007447021484375,-0.0840226709842681,0.2660495936870575,-0.15273217856884
2024-12-07 16:18:23.418474500,4.017474609375,-0.1159805804491043,0.2745717167854309,-0.1601890176534652
2024-12-07 16:18:23.428502000,4.027501953125,-0.1532648056745529,0.2969422340393066,-0.1697763949632644
2024-12-07 16:18:23.438529300,4.037529296875,-0.1649827063083648,0.2585927546024322,-0.1836248189210891
2024-12-07 16:18:23.448556800,4.047556884765625,-0.1479384899139404,0.1595232337713241,-0.2123869359493255
2024-12-07 16:18:23.458584300,4.057584228515625,-0.1447426974773407,0.0924116224050521,-0.2304964214563369
2024-12-07 16:18:23.468611800,4.06761181640625,-0.1937448233366012,0.0934768840670585,-0.2454101145267486
2024-12-07 16:18:23.478639000,4.07763916015625,-0.250203788280487,0.0860200375318527,-0.2539322078227997
2024-12-07 16:18:23.488666600,4.08766650390625,-0.2736395895481109,0.0529968664050102,-0.2741722166538238
2024-12-07 16:18:23.498694100,4.097694091796875,-0.3045322299003601,0.0348873846232891,-0.3210438191890716
2024-12-07 16:18:23.508721400,4.107721435546875,-0.3865575492382049,0.0434094928205013,-0.3487406969070434
2024-12-07 16:18:23.518749000,4.1177490234375,-0.4419512450695038,0.0540621280670166,-0.3636543750762939
2024-12-07 16:18:23.528776400,4.1277763671875,-0.4664523303508758,0.0498010739684104,-0.3668501675128937
2024-12-07 16:18:23.538804000,4.137803955078125,-0.4621912539005279,0.0945421457290649,-0.3551322519779205
2024-12-07 16:18:23.548831200,4.147831298828125,-0.4483428299427032,0.1627190262079239,-0.3167827725410461
2024-12-07 16:18:23.558858800,4.157858642578125,-0.3982754349708557,0.2681801319122314,-0.2709764242172241
2024-12-07 16:18:23.568886300,4.16788623046875,-0.3364901542663574,0.4151864945888519,-0.1942774504423141
2024-12-07 16:18:23.578913500,4.17791357421875,-0.2917490899562835,0.5792371034622192,-0.0920121446251869
2024-12-07 16:18:23.588941000,4.187941162109375,-0.2512690722942352,0.663392961025238,-0.0419447571039199
2024-12-07 16:18:23.598968600,4.197968505859375,-0.195875346660614,0.7177214026451111,-0.0675110816955566
2024-12-07 16:18:23.608996000,4.20799609375,-0.1596563905477523,0.739026665687561,-0.1644500792026519
2024-12-07 16:18:23.619023400,4.2180234375,-0.1681784987449646,0.6676539778709412,-0.2603237926959991
2024-12-07 16:18:23.629051000,4.22805078125,-0.2576606571674347,0.7347655892372131,-0.3764375448226928
2024-12-07 16:18:23.639078400,4.238078369140625,-0.3151848912239074,0.8253130316734314,-0.4563323259353637
2024-12-07 16:18:23.649105700,4.248105712890625,-0.2736395895481109,0.8625972270965576,-0.5298355221748352
2024-12-07 16:18:23.659133200,4.25813330078125,-0.2235722094774246,1.0724542140960691,-0.482963889837265
2024-12-07 16:18:23.669160700,4.26816064453125,-0.2033322006464004,1.291898488998413,-0.4115912318229675
2024-12-07 16:18:23.679188200,4.278188232421875,-0.1713742911815643,1.4154690504074097,-0.3338269889354706
2024-12-07 16:18:23.689215500,4.288215576171875,-0.1127847880125045,1.4165343046188354,-0.1900164037942886
2024-12-07 16:18:23.699243000,4.298242919921875,-0.0147805325686931,1.2727237939834597,0.0219710618257522
2024-12-07 16:18:23.709270500,4.3082705078125,0.0778974071145057,1.0149298906326294,0.2573943138122558
2024-12-07 16:18:23.719298000,4.318298095703125,0.1119858399033546,0.7049382328987122,0.4544681012630462
2024-12-07 16:18:23.729325300,4.3283251953125,0.1162468940019607,0.4460791349411011,0.587626039981842
2024-12-07 16:18:23.739352800,4.338352783203125,0.1631184965372085,0.3597927987575531,0.692021906375885
2024-12-07 16:18:23.749380400,4.34838037109375,0.2217079997062683,0.4791023135185241,0.8006787896156311
2024-12-07 16:18:23.759407600,4.35840771484375,0.246209055185318,0.5611276030540466,1.0041441917419434
2024-12-07 16:18:23.769435100,4.36843505859375,0.2824280261993408,0.5621928572654724,1.2480895519256592
2024-12-07 16:18:23.779462700,4.378462646484375,0.2696448564529419,0.4791023135185241,1.4227927923202517
2024-12-07 16:18:23.789490200,4.388490234375,0.2834932804107666,0.2117211520671844,1.4877737760543823
2024-12-07 16:18:23.799517400,4.398517333984375,0.3985417485237121,-0.104662150144577,1.449424386024475
2024-12-07 16:18:23.809545000,4.408544921875,0.5359607934951782,-0.3549990952014923,1.296026349067688
2024-12-07 16:18:23.819572500,4.418572509765625,0.6147902607917786,-0.4902876019477844,1.1181273460388184
2024-12-07 16:18:23.829599700,4.428599853515625,0.633965015411377,-0.5701823830604553,1.0052094459533691
2024-12-07 16:18:23.839627300,4.438627197265625,0.6265081763267517,-0.672447681427002,0.9817736148834229
2024-12-07 16:18:23.849654800,4.44865478515625,0.5988113284111023,-0.8492814302444458,1.0318410396575928
2024-12-07 16:18:23.859682300,4.458682373046875,0.5593965649604797,-1.1422289609909058,1.1096051931381226
2024-12-07 16:18:23.869709600,4.46870947265625,0.4518049359321594,-1.5662038326263428,1.1351715326309204
2024-12-07 16:18:23.879737000,4.478737060546875,0.2334259003400802,-1.9688735008239744,1.036102056503296
2024-12-07 16:18:23.889764600,4.4887646484375,-0.0936100408434867,-2.344911575317383,0.8379629850387573
2024-12-07 16:18:23.899792000,4.4987919921875,-0.505867063999176,-2.7177538871765137,0.6366282105445862
2024-12-07 16:18:23.909819400,4.5088193359375,-0.8307724595069885,-2.970221281051636,0.54927659034729
2024-12-07 16:18:23.919847000,4.518846923828125,-0.9905620217323304,-3.120423555374145,0.587626039981842
2024-12-07 16:18:23.929874400,4.52887451171875,-1.1237199306488037,-3.0767476558685303,0.646215558052063
2024-12-07 16:18:23.939902000,4.53890185546875,-1.2941621541976929,-2.81895399093628,0.6238450407981873
2024-12-07 16:18:23.949929500,4.548929443359375,-1.355947494506836,-2.294844150543213,0.5482112765312195
2024-12-07 16:18:23.959957000,4.55895703125,-1.288835883140564,-1.6631428003311155,0.4651207327842712
2024-12-07 16:18:23.969984300,4.568984375,-1.0736526250839231,-1.0037447214126587,0.4736428558826446
2024-12-07 16:18:23.980011800,4.57901171875,-0.8169240355491638,-0.5882918238639832,0.554602861404419
2024-12-07 16:18:23.990039300,4.589039306640625,-0.5548691749572754,-0.508397102355957,0.6238450407981873
2024-12-07 16:18:24.000066800,4.59906689453125,-0.3162501454353332,-0.6639255881309509,0.579103946685791
2024-12-07 16:18:24.010094300,4.60909423828125,-0.1010668873786926,-0.8961530327796936,0.4651207327842712
2024-12-07 16:18:24.020121900,4.619121826171875,0.0225036945194005,-1.1017489433288574,0.3585943877696991
2024-12-07 16:18:24.030149400,4.6291494140625,0.0512658134102821,-1.218927979469299,0.2904174923896789
2024-12-07 16:18:24.040177000,4.639177001953125,0.047004759311676,-1.2647342681884766,0.2360890507698059
2024-12-07 16:18:24.050204400,4.649204345703125,0.0342215932905674,-1.1922963857650757,0.1636511236429214
2024-12-07 16:18:24.060232000,4.65923193359375,-0.0169110596179962,-1.066595196723938,0.0315584354102611
2024-12-07 16:18:24.070259500,4.669259521484375,-0.0573910772800445,-0.8759130239486694,-0.09733846783638
2024-12-07 16:18:24.080287000,4.679286865234375,-0.0818921402096748,-0.7065361142158508,-0.1825595498085022
2024-12-07 16:18:24.090314500,4.689314453125,-0.1564605981111526,-0.5733781456947327,-0.22943115234375
2024-12-07 16:18:24.100341800,4.699341796875,-0.2736395895481109,-0.4764391779899597,-0.2368880063295364
2024-12-07 16:18:24.110369300,4.709369384765625,-0.3961449265480041,-0.4050664901733398,-0.2155827283859253
2024-12-07 16:18:24.120396800,4.719396728515625,-0.4984102249145508,-0.4274370372295379,-0.1612542867660522
2024-12-07 16:18:24.130424300,4.72942431640625,-0.5889576077461243,-0.460460215806961,-0.0824247747659683
2024-12-07 16:18:24.140451800,4.739451904296875,-0.5921534299850464,-0.492418110370636,0.003861580742523
2024-12-07 16:18:24.150479400,4.749479248046875,-0.4930838942527771,-0.5424855351448059,0.0667121335864067
2024-12-07 16:18:24.160507000,4.7595068359375,-0.4483428299427032,-0.6479465961456299,0.0741689801216125
2024-12-07 16:18:24.170534400,4.769534423828125,-0.4121238589286804,-0.7992140650749207,0.0315584354102611
2024-12-07 16:18:24.180562000,4.77956201171875,-0.3269027769565582,-0.8524772524833679,-0.0174436923116445
2024-12-07 16:18:24.190589400,4.78958935546875,-0.3045322299003601,-1.0463552474975586,-0.0259658005088567
2024-12-07 16:18:24.200617000,4.799616943359375,-0.2917490899562835,-1.2689952850341797,-0.1825595498085022
2024-12-07 16:18:24.210644500,4.80964453125,-0.4099933505058288,-1.4767217636108398,-0.3530017435550689
2024-12-07 16:18:24.220672000,4.819672119140625,-0.6049365997314453,-1.3883048295974731,-0.3945470154285431
2024-12-07 16:18:24.230699300,4.82969921875,-0.6528734564781189,-1.195492148399353,-0.4584628343582153
2024-12-07 16:18:24.240726800,4.839726806640625,-0.6017407774925232,-1.1006836891174316,-0.5788376331329346
2024-12-07 16:18:24.250754300,4.84975439453125,-0.4632565379142761,-1.0261151790618896,-0.6800376772880554
2024-12-07 16:18:24.260781800,4.85978173828125,-0.2938795983791351,-0.793887734413147,-0.706669270992279
2024-12-07 16:18:24.270809300,4.869809326171875,-0.129829004406929,-0.4370244145393371,-0.6427534222602844
2024-12-07 16:18:24.280836600,4.879836669921875,0.0320910662412643,-0.1664474457502365,-0.5117260217666626
2024-12-07 16:18:24.290864000,4.889864013671875,0.1844237744808197,-0.1888179779052734,-0.3721764981746673
2024-12-07 16:18:24.300891600,4.8998916015625,0.2984069883823395,-0.339020162820816,-0.2496711611747741
2024-12-07 16:18:24.310919200,4.909919189453125,0.3964112401008606,-0.3230412006378174,-0.163384810090065
2024-12-07 16:18:24.320946400,4.919946533203125,0.515720784664154,-0.0790958255529403,-0.1282311081886291
2024-12-07 16:18:24.330974000,4.929973876953125,0.6297039985656738,0.2564622163772583,-0.1420795321464538
2024-12-07 16:18:24.341001500,4.94000146484375,0.6850976943969727,0.4577970504760742,-0.1836248189210891
2024-12-07 16:18:24.351028700,4.95002880859375,0.6691187024116516,0.4055991172790527,-0.2102564126253128
2024-12-07 16:18:24.361056300,4.96005615234375,0.5988113284111023,0.1573926955461502,-0.1964079886674881
2024-12-07 16:18:24.371083800,4.970083740234375,0.4901544451713562,-0.1696432381868362,-0.1548627018928527
2024-12-07 16:18:24.381111300,4.980111328125,0.359127014875412,-0.3411506712436676,-0.1154479458928108
2024-12-07 16:18:24.391138600,4.990138671875,0.2206427305936813,-0.2452769577503204,-0.123970054090023
2024-12-07 16:18:24.401166000,5.000166015625,0.0789626687765121,0.0157126393169164,-0.2017343044281005
2024-12-07 16:18:24.411193600,5.010193603515625,-0.0989363640546798,0.4237086176872253,-0.3444796204566955
2024-12-07 16:18:24.421221000,5.02022119140625,-0.3407512009143829,0.92331725358963,-0.5532712936401367
2024-12-07 16:18:24.431248400,5.030248291015625,-0.610262930393219,1.338770031929016,-0.7854987978935242
2024-12-07 16:18:24.441276000,5.04027587890625,-0.807336688041687,1.5124080181121826,-0.970854640007019
2024-12-07 16:18:24.451303400,5.050303466796875,-0.8488819599151611,1.1800458431243896,-0.966593623161316
2024-12-07 16:18:24.461330700,5.06033056640625,-0.6912229657173157,0.2298306375741958,-0.6693850159645081
2024-12-07 16:18:24.471358200,5.070358154296875,-0.3982754349708557,-0.9600688815116882,-0.2454101145267486
2024-12-07 16:18:24.481385700,5.0803857421875,-0.0818921402096748,-1.559812307357788,0.0890826731920242
2024-12-07 16:18:24.491413200,5.090413330078125,0.0395479127764701,-1.13370680809021,0.2073269337415695
2024-12-07 16:18:24.501440500,5.1004404296875,0.0778974071145057,-0.1653821766376495,0.1327584832906723
2024-12-07 16:18:24.511468000,5.110468017578125,0.085354246199131,0.7091992497444153,-0.0270310640335083
2024-12-07 16:18:24.521495600,5.12049560546875,-0.0126500055193901,1.2183952331542969,-0.2251701056957245
2024-12-07 16:18:24.531522800,5.130522705078125,-0.1319595277309417,1.3526184558868408,-0.4030691385269165
2024-12-07 16:18:24.541550300,5.14055029296875,-0.240616425871849,1.263136386871338,-0.4414186179637909
2024-12-07 16:18:24.551577900,5.150577880859375,-0.3364901542663574,1.0042773485183716,-0.3647196292877197
2024-12-07 16:18:24.561605400,5.16060546875,-0.4355596601963043,0.517451822757721,-0.2763027548789978
2024-12-07 16:18:24.571632600,5.170632568359375,-0.5101281404495239,-0.1185105815529823,-0.2454101145267486
2024-12-07 16:18:24.581660200,5.18066015625,-0.5697829127311707,-0.7076013684272766,-0.2933469712734222
2024-12-07 16:18:24.591687700,5.190687744140625,-0.5868270993232727,-1.2146668434143066,-0.4233091473579407
2024-12-07 16:18:24.601715000,5.20071484375,-0.5250418186187744,-1.5267890691757202,-0.5745765566825867
2024-12-07 16:18:24.611742500,5.210742431640625,-0.4014712274074554,-1.4745911359786987,-0.6427534222602844
2024-12-07 16:18:24.621770000,5.22077001953125,-0.2640522122383117,-1.111336350440979,-0.5905555486679077
2024-12-07 16:18:24.631797500,5.230797607421875,-0.0946753025054931,-0.5936181545257568,-0.5042691826820374
2024-12-07 16:18:24.641824800,5.24082470703125,0.0800279304385185,-0.0716389790177345,-0.474441796541214
2024-12-07 16:18:24.651852300,5.250852294921875,0.2099900990724563,0.3448790907859802,-0.5106607675552368
2024-12-07 16:18:24.661879800,5.2608798828125,0.2472743242979049,0.5142560005187988,-0.5628587007522583
2024-12-07 16:18:24.671907000,5.270906982421875,0.2557964324951172,0.469514936208725,-0.606534481048584
2024-12-07 16:18:24.681934600,5.2809345703125,0.224903792142868,0.2948117256164551,-0.643818736076355
2024-12-07 16:18:24.691962000,5.290962158203125,0.1492700725793838,0.0348873846232891,-0.6321008205413818
2024-12-07 16:18:24.701989600,5.30098974609375,0.0896153002977371,-0.2218411564826965,-0.5799028873443604
2024-12-07 16:18:24.712017000,5.311016845703125,0.0438089668750762,-0.4455465078353882,-0.52237868309021
2024-12-07 16:18:24.722044400,5.32104443359375,-0.0339552797377109,-0.6522076725959778,-0.4861596822738647
2024-12-07 16:18:24.732072000,5.331072021484375,-0.1340900659561157,-0.8173235058784485,-0.4648544192314148
2024-12-07 16:18:24.742099200,5.34109912109375,-0.1809616535902023,-0.8492814302444458,-0.4254396557807922
2024-12-07 16:18:24.752126700,5.351126708984375,-0.1660479754209518,-0.7491466403007507,-0.3657849133014679
2024-12-07 16:18:24.762154200,5.361154296875,-0.1117195263504982,-0.546746551990509,-0.2848248779773712
2024-12-07 16:18:24.772181800,5.371181640625,-0.036085806787014,-0.2644517123699188,-0.1953427195549011
2024-12-07 16:18:24.782209000,5.381208984375,0.0438089668750762,0.0423442311584949,-0.1346226930618286
2024-12-07 16:18:24.792236500,5.391236572265625,0.1055942550301551,0.2852243483066559,-0.1197089999914169
2024-12-07 16:18:24.802264000,5.40126416015625,0.1194426864385604,0.4290349185466766,-0.150601640343666
2024-12-07 16:18:24.812291600,5.41129150390625,0.1034637317061424,0.4705802202224731,-0.1910816729068756
2024-12-07 16:18:24.822318800,5.42131884765625,0.0715058222413063,0.4077296555042267,-0.2358227372169494
2024-12-07 16:18:24.832346400,5.431346435546875,0.021438430994749,0.2756369709968567,-0.2901511788368225
2024-12-07 16:18:24.842374000,5.441373779296875,-0.0435426495969295,0.0743021368980407,-0.3327617347240448
2024-12-07 16:18:24.852401200,5.451401123046875,-0.1010668873786926,-0.1376853287220001,-0.3561975359916687
2024-12-07 16:18:24.862428700,5.4614287109375,-0.1511342823505401,-0.3049317300319671,-0.3913512229919433
2024-12-07 16:18:24.872456200,5.471456298828125,-0.185222715139389,-0.3901528120040893,-0.4286354482173919
2024-12-07 16:18:24.882483700,5.481483642578125,-0.2182458937168121,-0.4082622826099396,-0.4573975801467895
2024-12-07 16:18:24.892511000,5.491510986328125,-0.2533995807170868,-0.3933486044406891,-0.4904207587242126
2024-12-07 16:18:24.902538500,5.50153857421875,-0.2459427416324615,-0.3901528120040893,-0.5085302591323853
2024-12-07 16:18:24.912566000,5.51156591796875,-0.2246374636888504,-0.339020162820816,-0.5010733604431152
2024-12-07 16:18:24.922593300,5.52159326171875,-0.2065279930830001,-0.2388853728771209,-0.4648544192314148
2024-12-07 16:18:24.932620800,5.531620849609375,-0.2161153554916381,-0.1568600684404373,-0.4211786091327667
2024-12-07 16:18:24.942648300,5.5416484375,-0.2288985252380371,-0.05459476262331,-0.3721764981746673
2024-12-07 16:18:24.952675800,5.55167578125,-0.2342248409986496,0.0838895142078399,-0.3338269889354706
2024-12-07 16:18:24.962703000,5.561703125,-0.2235722094774246,0.2181127369403839,-0.3199785649776459
2024-12-07 16:18:24.972730600,5.571730712890625,-0.2288985252380371,0.2948117256164551,-0.3380880355834961
2024-12-07 16:18:24.982758100,5.581758056640625,-0.2438122183084488,0.2969422340393066,-0.36152383685112
2024-12-07 16:18:24.992785400,5.591785400390625,-0.2576606571674347,0.2458095848560333,-0.3764375448226928
2024-12-07 16:18:25.002813000,5.60181298828125,-0.260856419801712,0.1808284968137741,-0.3913512229919433
2024-12-07 16:18:25.012840400,5.61184033203125,-0.2448774725198745,0.1424790173768997,-0.4233091473579407
2024-12-07 16:18:25.022868000,5.621867919921875,-0.2086585164070129,0.1531316488981247,-0.482963889837265
2024-12-07 16:18:25.032895200,5.631895263671875,-0.1681784987449646,0.182959035038948,-0.5585976243019104
2024-12-07 16:18:25.042922800,5.6419228515625,-0.1426121741533279,0.2607232630252838,-0.6129260659217834
2024-12-07 16:18:25.052950300,5.6519501953125,-0.1159805804491043,0.4183822870254516,-0.6246439814567566
2024-12-07 16:18:25.062977500,5.6619775390625,-0.0872184634208679,0.647413969039917,-0.6022734045982361
2024-12-07 16:18:25.073005000,5.672005126953125,-0.0573910772800445,0.8785761594772339,-0.5575323700904846
2024-12-07 16:18:25.083032600,5.682032470703125,-0.0424773879349231,1.0223867893218994,-0.5106607675552368
2024-12-07 16:18:25.093060000,5.69206005859375,-0.0584563426673412,1.0458226203918457,-0.47231125831604
2024-12-07 16:18:25.103087400,5.70208740234375,-0.1042626798152923,0.9819067716598512,-0.4265049397945404
2024-12-07 16:18:25.113115000,5.712114990234375,-0.1756353378295898,0.8743151426315308,-0.3700459599494934
2024-12-07 16:18:25.123142400,5.722142333984375,-0.260856419801712,0.8253130316734314,-0.3146522343158722
2024-12-07 16:18:25.133170000,5.732169921875,-0.3588607013225555,0.8221172094345093,-0.2763027548789978
2024-12-07 16:18:25.143197200,5.742197265625,-0.4632565379142761,0.8562056422233582,-0.2624543309211731
2024-12-07 16:18:25.153224700,5.752224609375,-0.543151319026947,0.9648625254631042,-0.273106962442398
2024-12-07 16:18:25.163252200,5.762252197265625,-0.6028060913085938,1.0926941633224487,-0.3093259334564209
2024-12-07 16:18:25.173279500,5.772279541015625,-0.6475471258163452,1.1917636394500732,-0.3498059511184692
2024-12-07 16:18:25.183307000,5.78230712890625,-0.6805703043937683,1.2120037078857422,-0.3743070065975189
2024-12-07 16:18:25.193334500,5.79233447265625,-0.6976145505905151,1.1129342317581177,-0.3593933284282684
2024-12-07 16:18:25.203362000,5.802362060546875,-0.6816355586051941,0.9009467363357544,-0.2890859246253967
2024-12-07 16:18:25.213389300,5.812389404296875,-0.6081323623657227,0.6697844862937927,-0.1687111258506775
2024-12-07 16:18:25.223416800,5.822416748046875,-0.4536691606044769,0.4705802202224731,-0.0589889734983444
2024-12-07 16:18:25.233444400,5.8324443359375,-0.2821617126464844,0.2969422340393066,-0.0525973923504352
2024-12-07 16:18:25.243471600,5.8424716796875,-0.1649827063083648,0.1797632426023483,-0.0909468829631805
2024-12-07 16:18:25.253499100,5.8524990234375,-0.0723047703504562,0.0796284601092338,-0.0355531722307205
2024-12-07 16:18:25.263526700,5.862526611328125,0.0661795064806938,0.0061252657324075,0.1316932141780853
2024-12-07 16:18:25.273554200,5.87255419921875,0.2515353858470917,-0.0471379160881042,0.3117227852344513
2024-12-07 16:18:25.283581400,5.88258154296875,0.359127014875412,-0.0727042406797409,0.4171838760375976
2024-12-07 16:18:25.293609000,5.89260888671875,0.3623228073120117,-0.0695084556937217,0.5226449966430664
2024-12-07 16:18:25.303636500,5.902636474609375,0.3261038362979889,-0.0833568796515464,0.7101313471794128
2024-12-07 16:18:25.313663700,5.912663818359375,0.2611227631568908,-0.092944249510765,0.9487504363059998
2024-12-07 16:18:25.323691300,5.922691162109375,0.2067943066358566,-0.0460726507008075,1.1831084489822388
2024-12-07 16:18:25.333718800,5.93271875,0.1759016513824463,0.046605285257101,1.3759211301803589
2024-12-07 16:18:25.343746300,5.942746337890625,0.1620532274246215,0.138217955827713,1.529319167137146
2024-12-07 16:18:25.353773600,5.952773681640625,0.167379543185234,0.2159821987152099,1.66354238986969
2024-12-07 16:18:25.363801000,5.962801025390625,0.1844237744808197,0.2852243483066559,1.7924392223358154
2024-12-07 16:18:25.373828600,5.97282861328125,0.1993374526500702,0.3683148920536041,1.923466682434082
2024-12-07 16:18:25.383855900,5.98285595703125,0.2035985141992569,0.4673844277858734,2.048102617263794
2024-12-07 16:18:25.393883400,5.99288330078125,0.1876195520162582,0.6005423665046692,2.153563499450684
2024-12-07 16:18:25.403911000,6.002910888671875,0.2291648387908935,0.6996119022369385,2.200435161590576
2024-12-07 16:18:25.413938400,6.0129384765625,0.3229080438613891,0.7635276913642883,2.190847873687744
2024-12-07 16:18:25.423966000,6.022966064453125,0.4315649271011352,0.8412919640541077,2.132258415222168
2024-12-07 16:18:25.433993200,6.0329931640625,0.5189165472984314,0.9637972712516784,2.0214710235595703
2024-12-07 16:18:25.444020700,6.043020751953125,0.5881586670875549,1.0394309759140017,1.7860476970672607
2024-12-07 16:18:25.454048300,6.05304833984375,0.642487108707428,1.0735194683074951,1.4504896402359009
2024-12-07 16:18:25.464075800,6.06307568359375,0.6137250065803528,1.0096036195755005,1.0819083452224731
2024-12-07 16:18:25.474103300,6.073103271484375,0.508263885974884,0.617586612701416,0.700543999671936
2024-12-07 16:18:25.484130800,6.083130859375,0.3846933245658874,0.2000032514333725,0.4981439113616943
2024-12-07 16:18:25.494158300,6.093158447265625,0.2930806577205658,-0.0748347714543342,0.4619249403476715
2024-12-07 16:18:25.504185900,6.103185791015625,0.2728406488895416,-0.358194887638092,0.455533355474472
2024-12-07 16:18:25.514213400,6.11321337890625,0.3751059472560882,-0.5573992133140564,0.4565986394882202
2024-12-07 16:18:25.524241000,6.123240966796875,0.5221123695373535,-0.5787044763565063,0.5151881575584412
2024-12-07 16:18:25.534268400,6.133268310546875,0.6307692527770996,-0.5392897129058838,0.6621944904327393
2024-12-07 16:18:25.544296000,6.1432958984375,0.6520745158195496,-0.5765739679336548,0.8464851379394531
2024-12-07 16:18:25.554323500,6.153323486328125,0.5764408111572266,-0.735298216342926,1.0222536325454712
2024-12-07 16:18:25.564350700,6.163350830078125,0.4571312665939331,-0.885500431060791,1.1607378721237185
2024-12-07 16:18:25.574378200,6.173378173828125,0.3282343447208404,-0.8364982604980469,1.222523212432861
2024-12-07 16:18:25.584405800,6.18340576171875,0.2376869469881057,-0.6937529444694519,1.1767168045043943
2024-12-07 16:18:25.594433300,6.193433349609375,0.1897500902414322,-0.5627255439758301,1.0211883783340454
2024-12-07 16:18:25.604460800,6.203460693359375,0.1854890286922454,-0.4551338851451874,0.7932219505310059
2024-12-07 16:18:25.614488300,6.21348828125,0.2185122072696685,-0.3464770019054413,0.5663207769393921
2024-12-07 16:18:25.624515800,6.223515869140625,0.2419480085372924,-0.227167472243309,0.3852259516716003
2024-12-07 16:18:25.634543400,6.23354345703125,0.2376869469881057,-0.2133190482854843,0.2616553902626037
2024-12-07 16:18:25.644571000,6.24357080078125,0.2121206223964691,-0.2868222296237945,0.1711079776287078
2024-12-07 16:18:25.654598400,6.253598388671875,0.167379543185234,-0.4103928208351135,0.0901479348540306
2024-12-07 16:18:25.664626000,6.2636259765625,0.1045289933681488,-0.5627255439758301,0.003861580742523
2024-12-07 16:18:25.674653400,6.2736533203125,0.0374173857271671,-0.7470161318778992,-0.0952079370617866
2024-12-07 16:18:25.684681000,6.283680908203125,-0.0190415866672992,-0.8588688373565674,-0.2038648277521133
2024-12-07 16:18:25.694708200,6.293708251953125,-0.0829574093222618,-0.8631298542022705,-0.3114564716815948
2024-12-07 16:18:25.704735700,6.30373583984375,-0.1383511126041412,-0.8066709041595459,-0.407330185174942
2024-12-07 16:18:25.714763300,6.31376318359375,-0.186287984251976,-0.7203845381736755,-0.4797681272029876
2024-12-07 16:18:25.724790800,6.323790771484375,-0.2352901101112365,-0.6021402478218079,-0.5404881238937378
2024-12-07 16:18:25.734818300,6.333818359375,-0.2885532975196838,-0.4561991691589355,-0.6022734045982361
2024-12-07 16:18:25.744845600,6.343845458984375,-0.3311638236045837,-0.29108327627182,-0.6619281768798828
2024-12-07 16:18:25.754873000,6.353873046875,-0.3620564937591553,-0.149403229355812,-0.7056040167808533
2024-12-07 16:18:25.764900600,6.363900634765625,-0.3918838500976562,-0.0716389790177345,-0.7183871865272522
2024-12-07 16:18:25.774928000,6.373927978515625,-0.4312986135482788,-0.0790958255529403,-0.698147177696228
2024-12-07 16:18:25.784955400,6.383955322265625,-0.4696480929851532,-0.1547295451164245,-0.6416881680488586
2024-12-07 16:18:25.794983000,6.39398291015625,-0.4760396778583526,-0.2388853728771209,-0.5351617932319641
2024-12-07 16:18:25.805010400,6.404010498046875,-0.4526038765907287,-0.3049317300319671,-0.3764375448226928
2024-12-07 16:18:25.815037700,6.41403759765625,-0.3769701719284057,-0.4071970283985138,-0.1857553422451019
2024-12-07 16:18:25.825065200,6.424065185546875,-0.262986958026886,-0.5435507893562317,0.0027963169850409
2024-12-07 16:18:25.835092700,6.4340927734375,-0.1276984810829162,-0.635163426399231,0.1284974217414856
2024-12-07 16:18:25.845120000,6.4441201171875,0.0427437052130699,-0.6032055616378784,0.2307627350091934
2024-12-07 16:18:25.855147500,6.4541474609375,0.2291648387908935,-0.546746551990509,0.2850911915302276
2024-12-07 16:18:25.865175000,6.464175048828125,0.4411523044109344,-0.5691171288490295,0.1860216706991195
2024-12-07 16:18:25.875202600,6.47420263671875,0.6787061095237732,-0.5659213066101074,0.0624510794878006
2024-12-07 16:18:25.885229800,6.484229736328125,0.8843019604682922,-0.5499423742294312,0.0315584354102611
2024-12-07 16:18:25.895257300,6.49425732421875,0.98124098777771,-0.4934833943843841,0.107192151248455
2024-12-07 16:18:25.905284900,6.504284912109375,0.9194557070732116,-0.4444812536239624,0.2211753576993942
2024-12-07 16:18:25.915312000,6.51431201171875,0.771384060382843,-0.4476770460605621,0.2723080217838287
2024-12-07 16:18:25.925339600,6.524339599609375,0.6052029132843018,-0.4615254700183868,0.258459597826004
2024-12-07 16:18:25.935367200,6.5343671875,0.4390217661857605,-0.4934833943843841,0.2051964104175567
2024-12-07 16:18:25.945394700,6.544394775390625,0.2771016955375671,-0.5456812977790833,0.1146489977836608
2024-12-07 16:18:25.955422000,6.554421875,0.1279647946357727,-0.6234455704689026,-0.0110521102324128
2024-12-07 16:18:25.965449500,6.564449462890625,-0.0264984332025051,-0.7289066314697266,-0.1687111258506775
2024-12-07 16:18:25.975477000,6.57447705078125,-0.1798963993787765,-0.793887734413147,-0.3572627902030945
2024-12-07 16:18:25.985504300,6.584504150390625,-0.3545996248722076,-0.7949529886245728,-0.5724460482597351
2024-12-07 16:18:25.995531800,6.59453173828125,-0.5399554967880249,-0.7193192839622498,-0.7705850601196289
2024-12-07 16:18:26.005559300,6.604559326171875,-0.6880271434783936,-0.4966791868209839,-0.9175914525985718
2024-12-07 16:18:26.015586800,6.6145869140625,-0.7114629745483398,-0.1643169224262237,-0.937831461429596
2024-12-07 16:18:26.025614000,6.624614013671875,-0.4451470375061035,-0.0716389790177345,-0.7897598147392273
2024-12-07 16:18:26.035641600,6.6346416015625,-0.0019973693415522,-0.282561182975769,-0.5788376331329346
2024-12-07 16:18:26.045669000,6.644669189453125,0.1066595241427421,-0.5392897129058838,-0.4584628343582153
2024-12-07 16:18:26.055696600,6.654696533203125,0.0683100298047065,-0.6831002831459045,-0.3668501675128937
2024-12-07 16:18:26.065724000,6.664723876953125,0.0640489757061004,-0.7161234617233276,-0.2549974918365478
2024-12-07 16:18:26.075751400,6.67475146484375,0.0342215932905674,-0.6127929091453552,-0.1740374416112899
2024-12-07 16:18:26.085779000,6.684779052734375,-0.0328900143504142,-0.2452769577503204,-0.1719069182872772
2024-12-07 16:18:26.095806200,6.69480615234375,-0.0978710949420929,0.3523359596729278,-0.2262353599071502
2024-12-07 16:18:26.105833700,6.704833740234375,-0.1415469050407409,0.8966856598854065,-0.2901511788368225
2024-12-07 16:18:26.115861200,6.714861328125,-0.1639174371957779,1.1651321649551392,-0.3657849133014679
2024-12-07 16:18:26.125888800,6.724888671875,-0.2001364082098007,1.1598057746887207,-0.4371575713157654
2024-12-07 16:18:26.135916000,6.734916015625,-0.2427469491958618,0.8796414732933044,-0.4360923171043396
2024-12-07 16:18:26.145943600,6.744943603515625,-0.2427469491958618,0.3512706756591797,-0.3135869801044464
2024-12-07 16:18:26.155971000,6.75497119140625,-0.2193111479282379,-0.3209106624126434,-0.1282311081886291
2024-12-07 16:18:26.165998300,6.764998291015625,-0.2363553643226623,-0.9845699071884156,-0.002530001103878
2024-12-07 16:18:26.176025900,6.77502587890625,-0.2533995807170868,-1.4990922212600708,-0.016378428786993
2024-12-07 16:18:26.186053400,6.785053466796875,-0.2331595867872238,-1.718536615371704,-0.1463405936956405
2024-12-07 16:18:26.196081000,6.795080810546875,-0.1575258672237396,-1.5981618165969849,-0.3274354040622711
2024-12-07 16:18:26.206108200,6.805108154296875,-0.0350205413997173,-1.182708978652954,-0.4936165511608124
2024-12-07 16:18:26.216135700,6.8151357421875,0.0992026776075363,-0.6330329179763794,-0.6097303032875061
2024-12-07 16:18:26.226163200,6.8251630859375,0.2185122072696685,-0.0673779249191284,-0.643818736076355
2024-12-07 16:18:26.236190500,6.8351904296875,0.3314301371574402,0.4173170328140259,-0.6107955574989319
2024-12-07 16:18:26.246218000,6.845218017578125,0.4262386262416839,0.7081339955329895,-0.5596628785133362
2024-12-07 16:18:26.256245500,6.85524560546875,0.4656533598899841,0.8114646077156067,-0.5170523524284363
2024-12-07 16:18:26.266273000,6.86527294921875,0.4550007283687591,0.8072035312652588,-0.4968123435974121
2024-12-07 16:18:26.276300300,6.87530029296875,0.4123901724815368,0.7187866568565369,-0.5255744457244873
2024-12-07 16:18:26.286327800,6.885327880859375,0.3431480526924133,0.5099949836730957,-0.6054692268371582
2024-12-07 16:18:26.296355300,6.895355224609375,0.3058638274669647,0.2127864062786102,-0.6768419146537781
2024-12-07 16:18:26.306382600,6.905382568359375,0.2749711871147156,-0.0918789878487587,-0.7098650336265564
2024-12-07 16:18:26.316410000,6.91541015625,0.2227732539176941,-0.3209106624126434,-0.7013429403305054
2024-12-07 16:18:26.326437600,6.925437744140625,0.1620532274246215,-0.4519380927085876,-0.6747113466262817
2024-12-07 16:18:26.336465200,6.935465087890625,0.113051101565361,-0.4934833943843841,-0.6459492444992065
2024-12-07 16:18:26.346492400,6.945492431640625,0.0821584612131118,-0.4380896687507629,-0.6012081503868103
2024-12-07 16:18:26.356520000,6.95552001953125,0.0640489757061004,-0.284691721200943,-0.5266396999359131
2024-12-07 16:18:26.366547500,6.96554736328125,0.0533963404595851,-0.0620516054332256,-0.4265049397945404
2024-12-07 16:18:26.376575000,6.975574951171875,0.0544616021215915,0.1914811432361602,-0.3274354040622711
2024-12-07 16:18:26.386602200,6.985602294921875,0.0427437052130699,0.4301002025604248,-0.2518016993999481
2024-12-07 16:18:26.396629800,6.995629638671875,0.0299605391919612,0.6293044686317444,-0.2027995586395263
2024-12-07 16:18:26.406657300,7.0056572265625,0.0320910662412643,0.7645930051803589,-0.1804290264844894
2024-12-07 16:18:26.416684500,7.0156845703125,0.0320910662412643,0.8306393027305603,-0.1889511346817016
2024-12-07 16:18:26.426712000,7.025712158203125,0.0320910662412643,0.8327698707580566,-0.2251701056957245
2024-12-07 16:18:26.436739600,7.035739501953125,0.0256994850933551,0.7635276913642883,-0.2773680090904236
2024-12-07 16:18:26.446767000,7.04576708984375,0.0161121133714914,0.6143907904624939,-0.3231743574142456
2024-12-07 16:18:26.456794400,7.05579443359375,-0.0158457960933446,0.4109254479408264,-0.3593933284282684
2024-12-07 16:18:26.466822000,7.06582177734375,-0.0478037074208259,0.19467693567276,-0.3775027990341186
2024-12-07 16:18:26.476849400,7.075849365234375,-0.0808268785476684,0.0199736934155225,-0.3956122994422912
2024-12-07 16:18:26.486876700,7.085876708984375,-0.1000016257166862,-0.0982705727219581,-0.4169175624847412
2024-12-07 16:18:26.496904200,7.095904296875,-0.1159805804491043,-0.1834916621446609,-0.4488754570484161
2024-12-07 16:18:26.506931700,7.105931640625,-0.1564605981111526,-0.1760348230600357,-0.4776375889778137
2024-12-07 16:18:26.516959200,7.115959228515625,-0.1500690132379531,-0.094009518623352,-0.4840291738510132
2024-12-07 16:18:26.526986500,7.125986572265625,-0.1490037590265274,0.0263652745634317,-0.4914860129356384
2024-12-07 16:18:26.537014000,7.136013916015625,-0.1479384899139404,0.1339569091796875,-0.4936165511608124
2024-12-07 16:18:26.547041500,7.14604150390625,-0.1553953289985656,0.1850895583629608,-0.4904207587242126
2024-12-07 16:18:26.557068800,7.15606884765625,-0.1798963993787765,0.1776327192783355,-0.4861596822738647
2024-12-07 16:18:26.567096300,7.166096435546875,-0.2171806246042251,0.1201084777712822,-0.4712460041046142
2024-12-07 16:18:26.577123800,7.176123779296875,-0.260856419801712,0.0274305380880832,-0.4446144104003906
2024-12-07 16:18:26.587151400,7.1861513671875,-0.3034669756889343,-0.066312663257122,-0.417982816696167
2024-12-07 16:18:26.597178600,7.1961787109375,-0.3375554084777832,-0.1462074369192123,-0.396677553653717
2024-12-07 16:18:26.607206100,7.2062060546875,-0.3577954173088074,-0.1813611388206482,-0.3785680532455444
2024-12-07 16:18:26.617233700,7.216233642578125,-0.3641870021820068,-0.1632516533136367,-0.3647196292877197
2024-12-07 16:18:26.627261000,7.226260986328125,-0.3556649088859558,-0.1153147891163826,-0.3561975359916687
2024-12-07 16:18:26.637288400,7.236288330078125,-0.3322291076183319,-0.0673779249191284,-0.3593933284282684
2024-12-07 16:18:26.647316000,7.24631591796875,-0.3024017214775085,-0.0151800066232681,-0.3881554305553436
2024-12-07 16:18:26.657343500,7.256343505859375,-0.2693785429000854,0.0508663393557071,-0.4382228255271911
2024-12-07 16:18:26.667370800,7.266370849609375,-0.241681694984436,0.1254348009824752,-0.4914860129356384
2024-12-07 16:18:26.677398300,7.276398193359375,-0.241681694984436,0.1904158741235733,-0.5372923612594604
2024-12-07 16:18:26.687425800,7.28642578125,-0.2257027328014373,0.2458095848560333,-0.5596628785133362
2024-12-07 16:18:26.697453000,7.296453125,-0.2129195630550384,0.2884201407432556,-0.5735113024711609
2024-12-07 16:18:26.707480600,7.30648046875,-0.2150501012802124,0.3512706756591797,-0.585229218006134
2024-12-07 16:18:26.717508000,7.316508056640625,-0.2107890397310257,0.4418180882930755,-0.5937513113021851
2024-12-07 16:18:26.727535600,7.32653564453125,-0.196940615773201,0.5483444333076477,-0.6033387184143066
2024-12-07 16:18:26.737563000,7.33656298828125,-0.1703090220689773,0.6591318845748901,-0.6203829050064087
2024-12-07 16:18:26.747590400,7.34659033203125,-0.1319595277309417,0.7656582593917847,-0.6555365920066833
2024-12-07 16:18:26.757618000,7.356617919921875,-0.0989363640546798,0.8636624813079834,-0.7077345252037048
2024-12-07 16:18:26.767645400,7.3666455078125,-0.0818921402096748,0.9169256687164308,-0.7460840344429016
2024-12-07 16:18:26.777672700,7.376672607421875,-0.0936100408434867,0.9105340838432312,-0.7375619411468506
2024-12-07 16:18:26.787700200,7.3867001953125,-0.1553953289985656,0.8135951161384583,-0.6352965831756592
2024-12-07 16:18:26.797727700,7.396727783203125,-0.2352901101112365,0.6506097912788391,-0.4115912318229675
2024-12-07 16:18:26.807755000,7.406755126953125,-0.2352901101112365,0.4950812757015228,-0.0952079370617866
2024-12-07 16:18:26.817782500,7.416782470703125,-0.184157446026802,0.372575968503952,0.1881521940231323
2024-12-07 16:18:26.827810000,7.42681005859375,-0.1095889955759048,0.238352745771408,0.3585943877696991
2024-12-07 16:18:26.837837600,7.436837646484375,-0.0254331696778535,0.1094558387994766,0.4512723088264465
2024-12-07 16:18:26.847864800,7.44686474609375,0.0715058222413063,0.0359526462852954,0.5311670899391174
2024-12-07 16:18:26.857892400,7.456892333984375,0.1929458826780319,0.0210389569401741,0.6153228878974915
2024-12-07 16:18:26.867920000,7.466919921875,0.2579269707202911,0.0029294749256223,0.6717818975448608
2024-12-07 16:18:26.877947100,7.476947021484375,0.2440785318613052,-0.0460726507008075,0.7420892715454102
2024-12-07 16:18:26.887974700,7.486974609375,0.1780321896076202,-0.1462074369192123,0.9008135795593262
2024-12-07 16:18:26.898002200,7.497002197265625,0.0832237228751182,-0.2175800949335098,1.1298452615737915
2024-12-07 16:18:26.908029700,7.50702978515625,-0.010519478470087,-0.2335590571165084,1.3716601133346558
2024-12-07 16:18:26.918057000,7.517056884765625,-0.0808268785476684,-0.1739042848348617,1.583647608757019
2024-12-07 16:18:26.928084500,7.52708447265625,-0.1213068962097168,-0.0482031814754009,1.7551549673080444
2024-12-07 16:18:26.938112000,7.537112060546875,-0.1500690132379531,0.098803199827671,1.8872476816177368
2024-12-07 16:18:26.948139300,7.54713916015625,-0.1788311302661895,0.2447443157434463,1.99164354801178
2024-12-07 16:18:26.958166800,7.557166748046875,-0.1830921918153762,0.3320959508419037,2.0843214988708496
2024-12-07 16:18:26.968194300,7.5671943359375,-0.1756353378295898,0.3289001584053039,2.15462875366211
2024-12-07 16:18:26.978221800,7.577221923828125,-0.1617869138717651,0.2735064327716827,2.192978382110596
2024-12-07 16:18:26.988249000,7.5872490234375,-0.1276984810829162,0.1691105961799621,2.170607805252075
2024-12-07 16:18:26.998276600,7.597276611328125,-0.079761616885662,0.0157126393169164,2.096039295196533
2024-12-07 16:18:27.008304000,7.60730419921875,-0.0158457960933446,-0.0982705727219581,2.0150792598724365
2024-12-07 16:18:27.018331400,7.617331298828125,0.0619184486567974,-0.0759000331163406,1.9437066316604616
2024-12-07 16:18:27.028359000,7.62735888671875,0.1151816323399543,0.0753674060106277,1.8627465963363647
2024-12-07 16:18:27.038386400,7.637386474609375,0.1620532274246215,0.2181127369403839,1.714674949645996
2024-12-07 16:18:27.048414000,7.6474140625,0.2057290375232696,0.391750693321228,1.5197317600250244
2024-12-07 16:18:27.058441200,7.657441162109375,0.1822932362556457,0.5696497559547424,1.299222111701965
2024-12-07 16:18:27.068468700,7.66746875,0.1354216337203979,0.4492749273777008,1.0669946670532229
2024-12-07 16:18:27.078496300,7.677496337890625,0.0842889845371246,0.1041295230388641,0.9146620035171508
2024-12-07 16:18:27.088523800,7.687523681640625,0.0310258027166128,-0.3432812094688415,0.8560724854469299
2024-12-07 16:18:27.098551000,7.697551025390625,-0.010519478470087,-0.7363634705543518,0.8486156463623047
2024-12-07 16:18:27.108578600,7.70757861328125,-0.0328900143504142,-0.9973530769348145,0.8486156463623047
2024-12-07 16:18:27.118606000,7.717606201171875,-0.0328900143504142,-1.1017489433288574,0.8518114686012268
2024-12-07 16:18:27.128633300,7.72763330078125,-0.0158457960933446,-1.0783131122589111,0.8518114686012268
2024-12-07 16:18:27.138660900,7.737660888671875,0.019307903945446,-1.0112015008926392,0.8326367139816284
2024-12-07 16:18:27.148688400,7.7476884765625,0.0800279304385185,-0.9526119828224182,0.7910913825035095
2024-12-07 16:18:27.158716000,7.7577158203125,0.1748363971710205,-0.9675257205963136,0.730371356010437
2024-12-07 16:18:27.168743200,7.7677431640625,0.2792322337627411,-1.0112015008926392,0.6515418887138367
2024-12-07 16:18:27.178770700,7.777770751953125,0.3719101548194885,-1.025049924850464,0.5620597004890442
2024-12-07 16:18:27.188798200,7.787798095703125,0.4518049359321594,-0.9813741445541382,0.4768386483192444
2024-12-07 16:18:27.198825500,7.797825439453125,0.508263885974884,-0.8918919563293457,0.401204913854599
2024-12-07 16:18:27.208853000,7.80785302734375,0.5466133952140808,-0.7629950642585754,0.3277017176151275
2024-12-07 16:18:27.218880500,7.817880615234375,0.591354489326477,-0.613858163356781,0.2541985511779785
2024-12-07 16:18:27.228908000,7.827907958984375,0.633965015411377,-0.5115928649902344,0.1892174482345581
2024-12-07 16:18:27.238935300,7.837935302734375,0.6542050242424011,-0.4380896687507629,0.1221058443188667
2024-12-07 16:18:27.248962800,7.847962890625,0.6723145246505737,-0.3763043880462646,0.0390152819454669
2024-12-07 16:18:27.258990300,7.857990234375,0.6733797788619995,-0.2857569754123688,-0.0600542388856411
2024-12-07 16:18:27.269017600,7.868017578125,0.6414218544960022,-0.1334242671728134,-0.1793637722730636
2024-12-07 16:18:27.279045000,7.878045166015625,0.621181845664978,-0.0194410607218742,-0.2688459157943725
2024-12-07 16:18:27.289072600,7.88807275390625,0.6158555150032043,0.0540621280670166,-0.2954775094985962
2024-12-07 16:18:27.299100200,7.89810009765625,0.6254429221153259,0.0806937217712402,-0.2613890767097473
2024-12-07 16:18:27.309127400,7.90812744140625,0.621181845664978,0.0870852991938591,-0.1793637722730636
2024-12-07 16:18:27.319155000,7.918155029296875,0.5849629044532776,0.0199736934155225,-0.0824247747659683
2024-12-07 16:18:27.329182500,7.928182373046875,0.5189165472984314,-0.1004010960459709,0.0070573715493083
2024-12-07 16:18:27.339209700,7.938209716796875,0.4336954653263092,-0.1994706094264984,0.0890826731920242
2024-12-07 16:18:27.349237200,7.9482373046875,0.3356912136077881,-0.2463422119617462,0.1604553312063217
2024-12-07 16:18:27.359264800,7.9582646484375,0.2430132627487182,-0.2292979955673217,0.2083922028541565
2024-12-07 16:18:27.369292300,7.968292236328125,0.1599227041006088,-0.2016011476516723,0.2147837877273559
2024-12-07 16:18:27.379319600,7.978319580078125,0.0810931921005249,-0.1739042848348617,0.1689774394035339
2024-12-07 16:18:27.389347000,7.98834716796875,0.007590003311634,-0.1291632205247879,0.0752342417836189
2024-12-07 16:18:27.399374600,7.99837451171875,-0.0541952885687351,-0.0812263563275337,-0.0312921181321144
2024-12-07 16:18:27.409401900,8.00840185546875,-0.0968058332800865,-0.0503337085247039,-0.1292963773012161
2024-12-07 16:18:27.419429400,8.018429443359375,-0.1213068962097168,-0.040746334940195,-0.219843789935112
2024-12-07 16:18:27.429457000,8.028456787109375,-0.130894273519516,-0.0396810695528984,-0.3008038103580475
2024-12-07 16:18:27.439484400,8.038484375,-0.1213068962097168,-0.0471379160881042,-0.3689807057380676
2024-12-07 16:18:27.449511700,8.04851171875,-0.1010668873786926,-0.0652474015951156,-0.4286354482173919
2024-12-07 16:18:27.459539200,8.058539306640625,-0.0776310861110687,-0.0790958255529403,-0.4755070507526397
2024-12-07 16:18:27.469566700,8.068566650390625,-0.0488689690828323,-0.0780305638909339,-0.5085302591323853
2024-12-07 16:18:27.479594200,8.07859423828125,-0.0115847419947385,-0.0652474015951156,-0.5287702679634094
2024-12-07 16:18:27.489621500,8.08862158203125,0.0384826473891735,-0.0556600242853164,-0.5351617932319641
2024-12-07 16:18:27.499649000,8.09864892578125,0.1055942550301551,-0.0673779249191284,-0.5127912759780884
2024-12-07 16:18:27.509676500,8.108676513671876,0.1822932362556457,-0.1131842583417892,-0.4499407410621643
2024-12-07 16:18:27.519703800,8.118703857421876,0.2557964324951172,-0.1430116444826126,-0.3572627902030945
2024-12-07 16:18:27.529731300,8.1287314453125,0.3282343447208404,-0.1419463753700256,-0.2581932842731476
2024-12-07 16:18:27.539758800,8.1387587890625,0.3932154476642608,-0.1153147891163826,-0.1697763949632644
2024-12-07 16:18:27.549786400,8.148786376953124,0.4486091434955597,-0.0641821324825286,-0.0824247747659683
2024-12-07 16:18:27.559813600,8.158813720703124,0.4880239069461822,-0.0396810695528984,0.0059921080246567
2024-12-07 16:18:27.569841200,8.168841064453124,0.4954807460308075,-0.0759000331163406,0.0901479348540306
2024-12-07 16:18:27.579868700,8.17886865234375,0.4688491523265838,-0.161121129989624,0.1593900769948959
2024-12-07 16:18:27.589896000,8.18889599609375,0.434760719537735,-0.2495380043983459,0.1934785097837448
2024-12-07 16:18:27.599923500,8.19892333984375,0.3921501636505127,-0.2868222296237945,0.1689774394035339
2024-12-07 16:18:27.609951000,8.208950927734374,0.3069290816783905,-0.2069274634122848,0.079495295882225
2024-12-07 16:18:27.619978500,8.218978515625,0.2387522161006927,-0.1291632205247879,-0.0270310640335083
2024-12-07 16:18:27.630005800,8.229005859375,0.1641837656497955,-0.0535294972360134,-0.1026647835969924
2024-12-07 16:18:27.640033300,8.239033203125,0.0651142373681068,0.0295610651373863,-0.1463405936956405
2024-12-07 16:18:27.650060800,8.249060791015625,-0.0563258156180381,0.0913463607430458,-0.1900164037942886
2024-12-07 16:18:27.660088000,8.259088134765625,-0.1884185075759887,0.0838895142078399,-0.2315616905689239
2024-12-07 16:18:27.670115600,8.269115478515625,-0.3109238147735595,0.0370179116725921,-0.2581932842731476
2024-12-07 16:18:27.680143000,8.27914306640625,-0.3791007101535797,0.0082557927817106,-0.2773680090904236
2024-12-07 16:18:27.690170600,8.289170654296875,-0.3748396337032318,0.0167779028415679,-0.3050648868083954
2024-12-07 16:18:27.700198000,8.299197998046875,-0.327968031167984,-0.0141147430986166,-0.3487406969070434
2024-12-07 16:18:27.710225400,8.309225341796875,-0.317315399646759,-0.0226368531584739,-0.4147870242595672
2024-12-07 16:18:27.720253000,8.3192529296875,-0.308793306350708,0.0210389569401741,-0.4861596822738647
2024-12-07 16:18:27.730280200,8.3292802734375,-0.260856419801712,0.1286305785179138,-0.5532712936401367
2024-12-07 16:18:27.740307700,8.3393076171875,-0.1948100924491882,0.2852243483066559,-0.652340829372406
2024-12-07 16:18:27.750335200,8.349335205078125,-0.1521995365619659,0.469514936208725,-0.7791072130203247
2024-12-07 16:18:27.760362800,8.35936279296875,-0.1575258672237396,0.7283740043640137,-0.908004105091095
2024-12-07 16:18:27.770390000,8.36939013671875,-0.2033322006464004,1.0170605182647705,-1.0166609287261963
2024-12-07 16:18:27.780417500,8.37941748046875,-0.2651174962520599,1.1928290128707886,-1.0859031677246094
2024-12-07 16:18:27.790445000,8.389445068359375,-0.3428817391395569,1.2109384536743164,-1.0933599472045898
2024-12-07 16:18:27.800472600,8.39947265625,-0.4121238589286804,1.075649976730347,-1.026248335838318
2024-12-07 16:18:27.810499800,8.409499755859375,-0.4632565379142761,0.8199867010116577,-0.8771114349365234
2024-12-07 16:18:27.820527400,8.41952734375,-0.4728438854217529,0.4663191735744476,-0.673646092414856
2024-12-07 16:18:27.830555000,8.429554931640626,-0.4078628122806549,0.099868468940258,-0.4627238810062408
2024-12-07 16:18:27.840582100,8.43958203125,-0.298140674829483,-0.1994706094264984,-0.3167827725410461
2024-12-07 16:18:27.850609700,8.449609619140626,-0.2012016773223877,-0.3826959729194641,-0.2688459157943725
2024-12-07 16:18:27.860637200,8.45963720703125,-0.128763735294342,-0.4125233590602875,-0.273106962442398
2024-12-07 16:18:27.870664700,8.469664794921876,-0.0541952885687351,-0.2974748611450195,-0.2880206704139709
2024-12-07 16:18:27.880692000,8.47969189453125,0.0225036945194005,-0.1067926809191703,-0.2912164330482483
2024-12-07 16:18:27.890719500,8.489719482421876,0.0928110927343368,0.098803199827671,-0.2880206704139709
2024-12-07 16:18:27.900747000,8.4997470703125,0.1482048034667968,0.2724411785602569,-0.2773680090904236
2024-12-07 16:18:27.910774300,8.509774169921876,0.1918806135654449,0.3885549008846283,-0.2677806615829468
2024-12-07 16:18:27.920801800,8.5198017578125,0.223838523030281,0.4364917874336242,-0.2741722166538238
2024-12-07 16:18:27.930829300,8.529829345703124,0.2419480085372924,0.4162517786026001,-0.3103911876678467
2024-12-07 16:18:27.940856800,8.53985693359375,0.2440785318613052,0.3459443747997284,-0.3870901763439178
2024-12-07 16:18:27.950884000,8.549884033203124,0.2259690463542938,0.2298306375741958,-0.4957470595836639
2024-12-07 16:18:27.960911600,8.55991162109375,0.2153164148330688,0.0402137041091918,-0.5905555486679077
2024-12-07 16:18:27.970939100,8.569939208984374,0.2270343154668808,-0.2005358785390854,-0.6566019058227539
2024-12-07 16:18:27.980966400,8.57996630859375,0.2440785318613052,-0.3901528120040893,-0.6906903386116028
2024-12-07 16:18:27.990994000,8.589993896484375,0.2430132627487182,-0.4753738939762115,-0.6811029314994812
2024-12-07 16:18:28.001021400,8.600021484375,0.2227732539176941,-0.460460215806961,-0.6395576596260071
2024-12-07 16:18:28.011049000,8.610049072265625,0.2014679908752441,-0.3880222737789154,-0.5990776419639587
2024-12-07 16:18:28.021076200,8.620076171875,0.1897500902414322,-0.293213814496994,-0.560728132724762
2024-12-07 16:18:28.031103700,8.630103759765625,0.1822932362556457,-0.1323590129613876,-0.5149217844009399
2024-12-07 16:18:28.041131300,8.64013134765625,0.1822932362556457,0.1094558387994766,-0.4542017877101898
2024-12-07 16:18:28.051158500,8.650158447265625,0.1663142889738083,0.3619233071804046,-0.3892207145690918
2024-12-07 16:18:28.061186000,8.66018603515625,0.1418132185935974,0.5920202732086182,-0.329565942287445
2024-12-07 16:18:28.071213600,8.670213623046875,0.1258342713117599,0.7219824194908142,-0.2741722166538238
2024-12-07 16:18:28.081241000,8.680240966796875,0.1077247858047485,0.714525580406189,-0.2262353599071502
2024-12-07 16:18:28.091268400,8.690268310546875,0.0874847769737243,0.6356960535049438,-0.1942774504423141
2024-12-07 16:18:28.101295900,8.7002958984375,0.0672447681427002,0.5558013319969177,-0.1836248189210891
2024-12-07 16:18:28.111323400,8.710323486328125,0.0459394939243793,0.4684496819972992,-0.1953427195549011
2024-12-07 16:18:28.121351000,8.720350830078125,0.0139815853908658,0.3800328075885772,-0.2241048365831375
2024-12-07 16:18:28.131378200,8.730378173828125,-0.0147805325686931,0.2830938100814819,-0.2549974918365478
2024-12-07 16:18:28.141405700,8.74040576171875,-0.0403468608856201,0.1744369268417358,-0.2773680090904236
2024-12-07 16:18:28.151433200,8.75043310546875,-0.0478037074208259,0.0615189746022224,-0.296542763710022
2024-12-07 16:18:28.161460500,8.76046044921875,-0.074435293674469,-0.0460726507008075,-0.3242396116256714
2024-12-07 16:18:28.171488000,8.770488037109375,-0.1000016257166862,-0.0588558167219162,-0.3391533195972442
2024-12-07 16:18:28.181515500,8.780515625,-0.1063932031393051,-0.0364852808415889,-0.3647196292877197
2024-12-07 16:18:28.191543000,8.79054296875,-0.1149153187870979,-0.0226368531584739,-0.3988080620765686
2024-12-07 16:18:28.201570300,8.8005703125,-0.1255679577589035,-0.0290284343063831,-0.4158523082733154
2024-12-07 16:18:28.211597800,8.810597900390626,-0.1415469050407409,-0.0194410607218742,-0.4158523082733154
2024-12-07 16:18:28.221625300,8.820625244140626,-0.1543300747871399,0.0221042204648256,-0.4169175624847412
2024-12-07 16:18:28.231652600,8.830652587890626,-0.1628521829843521,0.0860200375318527,-0.4297007322311401
2024-12-07 16:18:28.241680100,8.84068017578125,-0.1692437678575515,0.1414137482643127,-0.4499407410621643
2024-12-07 16:18:28.251707600,8.850707763671876,-0.1809616535902023,0.1712411344051361,-0.4712460041046142
2024-12-07 16:18:28.261735200,8.860735107421876,-0.2012016773223877,0.1744369268417358,-0.4978775978088379
2024-12-07 16:18:28.271762400,8.870762451171874,-0.2257027328014373,0.1499358564615249,-0.5266396999359131
2024-12-07 16:18:28.281790000,8.8807900390625,-0.262986958026886,0.1169126853346824,-0.547944962978363
2024-12-07 16:18:28.291817500,8.8908173828125,-0.3013364672660827,0.0689758211374282,-0.5532712936401367
2024-12-07 16:18:28.301844700,8.9008447265625,-0.3322291076183319,0.0199736934155225,-0.5404881238937378
2024-12-07 16:18:28.311872300,8.910872314453124,-0.3599259555339813,-0.013049479573965,-0.5138565301895142
2024-12-07 16:18:28.321899800,8.920899658203124,-0.3897533416748047,-0.0332894884049892,-0.4904207587242126
2024-12-07 16:18:28.331927300,8.93092724609375,-0.3908185958862304,-0.0364852808415889,-0.4563323259353637
2024-12-07 16:18:28.341954600,8.94095458984375,-0.3801659643650055,-0.0162452701479196,-0.4328965246677398
2024-12-07 16:18:28.351982000,8.950982177734375,-0.3695133328437805,0.0348873846232891,-0.4318312406539917
2024-12-07 16:18:28.362009600,8.961009521484375,-0.3503385782241821,0.1094558387994766,-0.4499407410621643
2024-12-07 16:18:28.372036900,8.971036865234375,-0.3332943618297577,0.1893506050109863,-0.4755070507526397
2024-12-07 16:18:28.382064400,8.981064453125,-0.3151848912239074,0.2724411785602569,-0.4989428520202636
2024-12-07 16:18:28.392092000,8.991091796875,-0.3045322299003601,0.3619233071804046,-0.5202481150627136
2024-12-07 16:18:28.402119400,9.001119384765625,-0.2821617126464844,0.4311654567718506,-0.5362271070480347
2024-12-07 16:18:28.412146700,9.011146728515625,-0.2246374636888504,0.4652538895606994,-0.5543365478515625
2024-12-07 16:18:28.422174200,9.02117431640625,-0.1639174371957779,0.5142560005187988,-0.5884249806404114
2024-12-07 16:18:28.432201700,9.03120166015625,-0.0882837250828743,0.5898897647857666,-0.6363618969917297
2024-12-07 16:18:28.442229000,9.04122900390625,-0.0062584239058196,0.6900244951248169,-0.6949513554573059
2024-12-07 16:18:28.452256500,9.051256591796877,0.0778974071145057,0.8380961418151855,-0.7567366361618042
2024-12-07 16:18:28.462284000,9.061283935546877,0.1322258561849594,0.9829720258712769,-0.8068040609359741
2024-12-07 16:18:28.472311600,9.0713115234375,0.1418132185935974,1.0554099082946775,-0.8313050866127014
2024-12-07 16:18:28.482338800,9.0813388671875,0.1045289933681488,1.0436919927597046,-0.8078693151473999
2024-12-07 16:18:28.492366300,9.091366455078123,0.019307903945446,0.99468994140625,-0.7301050424575806
2024-12-07 16:18:28.502393900,9.101393798828123,-0.102132149040699,0.9041424989700316,-0.5788376331329346
2024-12-07 16:18:28.512421400,9.11142138671875,-0.2257027328014373,0.7635276913642883,-0.350871205329895
2024-12-07 16:18:28.522448600,9.12144873046875,-0.2661827504634857,0.6229129433631897,-0.0749679282307624
2024-12-07 16:18:28.532476200,9.13147607421875,-0.240616425871849,0.5206475853919983,0.1540637612342834
2024-12-07 16:18:28.542503700,9.141503662109375,-0.1767006069421768,0.4386222958564758,0.2659164369106293
2024-12-07 16:18:28.552531000,9.151531005859376,-0.1223721578717231,0.3800328075885772,0.3032006621360779
2024-12-07 16:18:28.562558500,9.161558349609376,-0.0712395086884498,0.3001380264759063,0.3660512268543243
2024-12-07 16:18:28.572586000,9.1715859375,0.0395479127764701,0.1872200816869735,0.466185986995697
2024-12-07 16:18:28.582613500,9.181613525390626,0.2067943066358566,0.1009337306022644,0.524775505065918
2024-12-07 16:18:28.592640800,9.191640869140626,0.2707101106643677,0.1051947847008705,0.5013396739959717
2024-12-07 16:18:28.602668300,9.201668212890626,0.2600574791431427,0.1211737394332885,0.5301018357276917
2024-12-07 16:18:28.612695800,9.21169580078125,0.1940111368894577,0.0977379381656646,0.6803039908409119
2024-12-07 16:18:28.622723000,9.22172314453125,0.0821584612131118,0.0892158299684524,0.9093356728553772
2024-12-07 16:18:28.632750600,9.23175048828125,-0.0286289602518081,0.1328916400671005,1.152215838432312
2024-12-07 16:18:28.642778000,9.241778076171874,-0.1085237339138984,0.247940108180046,1.3428980112075806
2024-12-07 16:18:28.652805600,9.2518056640625,-0.1617869138717651,0.4002728164196014,1.4813822507858276
2024-12-07 16:18:28.662833000,9.2618330078125,-0.1894837766885757,0.5334307551383972,1.6038875579833984
2024-12-07 16:18:28.672860400,9.2718603515625,-0.1980058848857879,0.6314350366592407,1.7295886278152466
2024-12-07 16:18:28.682888000,9.281887939453124,-0.2043974548578262,0.6964160799980164,1.8542245626449585
2024-12-07 16:18:28.692915200,9.291915283203124,-0.2043974548578262,0.7166560888290405,1.9596856832504272
2024-12-07 16:18:28.702942700,9.301942626953124,-0.1916143000125885,0.70174241065979,2.03425407409668
2024-12-07 16:18:28.712970200,9.31197021484375,-0.1511342823505401,0.6601971387863159,2.0811257362365723
2024-12-07 16:18:28.722997800,9.321997802734376,-0.0872184634208679,0.571780264377594,2.0800604820251465
2024-12-07 16:18:28.733025000,9.33202490234375,-0.0254331696778535,0.4577970504760742,2.0204057693481445
2024-12-07 16:18:28.743052500,9.342052490234376,0.035286858677864,0.4077296555042267,1.916009783744812
2024-12-07 16:18:28.753080000,9.352080078125,0.1226384788751602,0.5217128396034241,1.790308713912964
2024-12-07 16:18:28.763107300,9.362107421875,0.223838523030281,0.7432876825332642,1.635845422744751
2024-12-07 16:18:28.773134800,9.372134765625,0.367649108171463,0.9829720258712769,1.40574848651886
2024-12-07 16:18:28.783162400,9.382162353515625,0.4550007283687591,1.3504879474639893,1.1341062784194946
2024-12-07 16:18:28.793190000,9.39218994140625,0.5103944540023804,1.497494339942932,0.7910913825035095
2024-12-07 16:18:28.803217200,9.402217041015623,0.566853404045105,1.3994901180267334,0.5087965726852417
2024-12-07 16:18:28.813244700,9.41224462890625,0.6179860830307007,1.216264724731445,0.3745733201503753
2024-12-07 16:18:28.823272200,9.422272216796877,0.6605966091156006,0.8796414732933044,0.3117227852344513
2024-12-07 16:18:28.833299700,9.4322998046875,0.7245124578475952,0.4716454744338989,0.2723080217838287
2024-12-07 16:18:28.843327000,9.442326904296875,0.7831019163131714,0.138217955827713,0.2595248520374298
2024-12-07 16:18:28.853354500,9.4523544921875,0.8107987642288208,-0.1440769135951995,0.2850911915302276
2024-12-07 16:18:28.863382000,9.462382080078124,0.8342345952987671,-0.3976096510887146,0.3830954432487488
2024-12-07 16:18:28.873409300,9.4724091796875,0.8598009347915649,-0.6159886717796326,0.54181969165802
2024-12-07 16:18:28.883436800,9.482436767578124,0.8789756894111633,-0.8088014125823975,0.7143924236297607
2024-12-07 16:18:28.893464300,9.49246435546875,0.8949546217918396,-1.019723653793335,0.8560724854469299
2024-12-07 16:18:28.903491800,9.502491943359376,0.8416914343833923,-1.09855318069458,0.9178577661514282
2024-12-07 16:18:28.913519000,9.51251904296875,0.7820366621017456,-1.0825741291046145,0.9050745964050292
2024-12-07 16:18:28.923546600,9.522546630859376,0.6861629486083984,-0.9281109571456908,0.8251798748970032
2024-12-07 16:18:28.933574100,9.53257421875,0.6371608376502991,-0.6862961053848267,0.7325019240379333
2024-12-07 16:18:28.943601400,9.542601318359376,0.6179860830307007,-0.4615254700183868,0.6483460664749146
2024-12-07 16:18:28.953629000,9.55262890625,0.5998765826225281,-0.3028011918067932,0.5556681752204895
2024-12-07 16:18:28.963656400,9.562656494140626,0.5593965649604797,-0.3177148699760437,0.4672512710094452
2024-12-07 16:18:28.973684000,9.57268408203125,0.489089161157608,-0.4263717830181122,0.3511375188827514
2024-12-07 16:18:28.983711200,9.582711181640626,0.356996476650238,-0.4721781015396118,0.2137185186147689
2024-12-07 16:18:28.993738800,9.59273876953125,0.2302301079034805,-0.5307676196098328,0.0986700430512428
2024-12-07 16:18:29.003766300,9.602766357421874,0.1322258561849594,-0.5211802124977112,0.0283626448363065
2024-12-07 16:18:29.013793500,9.61279345703125,0.0363521203398704,-0.4327633678913116,-0.018508955836296
2024-12-07 16:18:29.023821000,9.622821044921874,-0.0541952885687351,-0.3070622384548187,-0.0536626577377319
2024-12-07 16:18:29.033848600,9.6328486328125,-0.1213068962097168,-0.1547295451164245,-0.0749679282307624
2024-12-07 16:18:29.043876000,9.6428759765625,-0.1767006069421768,-0.0279631707817316,-0.0994689911603927
2024-12-07 16:18:29.053903400,9.6529033203125,-0.2278332561254501,0.0668452903628349,-0.1218395307660102
2024-12-07 16:18:29.063931000,9.662930908203125,-0.2768353819847107,0.1051947847008705,-0.1399490088224411
2024-12-07 16:18:29.073958400,9.67295849609375,-0.3258375227451324,0.0828242450952529,-0.1729721873998642
2024-12-07 16:18:29.083985700,9.682985595703125,-0.3780354261398315,0.0018642114009708,-0.2155827283859253
2024-12-07 16:18:29.094013200,9.69301318359375,-0.4344944059848785,-0.1025316268205642,-0.2464753687381744
2024-12-07 16:18:29.104040700,9.703040771484376,-0.4792354702949524,-0.1866874545812606,-0.264584869146347
2024-12-07 16:18:29.114068200,9.713068115234377,-0.5197154879570007,-0.2410158962011337,-0.2794985473155975
2024-12-07 16:18:29.124095500,9.723095458984377,-0.5633913278579712,-0.2580601274967193,-0.296542763710022
2024-12-07 16:18:29.134123000,9.733123046875,-0.5964145064353943,-0.2303632646799087,-0.3146522343158722
2024-12-07 16:18:29.144150500,9.743150634765623,-0.610262930393219,-0.1483379602432251,-0.3221091032028198
2024-12-07 16:18:29.154178000,9.753177978515623,-0.6081323623657227,-0.0727042406797409,-0.3231743574142456
2024-12-07 16:18:29.164205300,9.763205322265623,-0.5793702602386475,-0.066312663257122,-0.2954775094985962
2024-12-07 16:18:29.174232800,9.77323291015625,-0.5261070728302002,-0.1536642760038375,-0.2230395674705505
2024-12-07 16:18:29.184260400,9.78326025390625,-0.4547344148159027,-0.3336938321590423,-0.1154479458928108
2024-12-07 16:18:29.194287600,9.79328759765625,-0.3641870021820068,-0.5371592044830322,-0.0057257921434938
2024-12-07 16:18:29.204315100,9.803315185546875,-0.2203764170408249,-0.6937529444694519,0.0731037184596061
2024-12-07 16:18:29.214342700,9.8133427734375,-0.0328900143504142,-0.7257108688354492,0.0858868807554245
2024-12-07 16:18:29.224370200,9.8233701171875,0.1641837656497955,-0.6340981721878052,0.0379500165581703
2024-12-07 16:18:29.234397400,9.8333974609375,0.356996476650238,-0.5137233734130859,-0.0195742193609476
2024-12-07 16:18:29.244425000,9.843425048828124,0.5199818015098572,-0.4689823091030121,-0.0494015999138355
2024-12-07 16:18:29.254452500,9.853452392578124,0.6328997611999512,-0.471112847328186,-0.0568584464490413
2024-12-07 16:18:29.264479700,9.863479736328124,0.6755102872848511,-0.4647212624549866,-0.068576343357563
2024-12-07 16:18:29.274507300,9.87350732421875,0.6382260918617249,-0.4157191216945648,-0.0834900364279747
2024-12-07 16:18:29.284534800,9.88353466796875,0.5348954796791077,-0.3837612271308899,-0.0994689911603927
2024-12-07 16:18:29.294562300,9.893562255859376,0.40280282497406,-0.4455465078353882,-0.1047953143715858
2024-12-07 16:18:29.304589600,9.903589599609376,0.2824280261993408,-0.5520728826522827,-0.0866858288645744
2024-12-07 16:18:29.314617000,9.9136171875,0.180162712931633,-0.6319676637649536,-0.068576343357563
2024-12-07 16:18:29.324644600,9.92364453125,0.0715058222413063,-0.6554034352302551,-0.0643152892589569
2024-12-07 16:18:29.334672000,9.933671875,-0.0371510684490203,-0.6692518591880798,-0.1026647835969924
2024-12-07 16:18:29.344699400,9.943699462890624,-0.1628521829843521,-0.705470860004425,-0.1878858804702758
2024-12-07 16:18:29.354727000,9.953726806640624,-0.3055975139141083,-0.7139929533004761,-0.3103911876678467
2024-12-07 16:18:29.364754400,9.96375439453125,-0.4206459820270538,-0.5605949759483337,-0.4563323259353637
2024-12-07 16:18:29.374781700,9.97378173828125,-0.4504733681678772,-0.2633864283561706,-0.5873597264289856
2024-12-07 16:18:29.384809200,9.983809326171874,-0.3673827946186065,-0.0599210783839225,-0.6299703121185303
2024-12-07 16:18:29.394836700,9.993836669921874,-0.240616425871849,-0.1035968884825706,-0.5543365478515625
2024-12-07 16:18:29.404864000,10.003864013671874,-0.2022669315338134,-0.3113232851028442,-0.4595280885696411
2024-12-07 16:18:29.414891500,10.0138916015625,-0.1713742911815643,-0.4647212624549866,-0.4243744015693664
2024-12-07 16:18:29.424919000,10.0239189453125,-0.140481635928154,-0.4199801981449127,-0.4733765423297882
2024-12-07 16:18:29.434946600,10.033946533203125,-0.1490037590265274,-0.1930790394544601,-0.5809681415557861
2024-12-07 16:18:29.444973800,10.043973876953125,-0.2086585164070129,0.1797632426023483,-0.6938861012458801
2024-12-07 16:18:29.455001300,10.05400146484375,-0.2992059290409088,0.6133255362510681,-0.782302975654602
2024-12-07 16:18:29.465028900,10.06402880859375,-0.3599259555339813,0.9989509582519532,-0.8558061718940735
2024-12-07 16:18:29.475056000,10.07405615234375,-0.4004059731960296,1.2492879629135132,-0.9420925378799438
2024-12-07 16:18:29.485083600,10.084083740234377,-0.4643217921257019,1.3664668798446655,-0.9953557252883912
2024-12-07 16:18:29.495111200,10.094111083984377,-0.5303681492805481,1.3281174898147583,-0.9261136054992676
2024-12-07 16:18:29.505138700,10.104138671875,-0.5506081581115723,1.061801552772522,-0.7450187802314758
2024-12-07 16:18:29.515166000,10.114166015625,-0.4941491782665252,0.5440834164619446,-0.5149217844009399
2024-12-07 16:18:29.525193500,10.124193359375,-0.3908185958862304,-0.0300936978310346,-0.3370227813720703
2024-12-07 16:18:29.535221000,10.134220947265623,-0.2683132886886596,-0.4721781015396118,-0.2709764242172241
2024-12-07 16:18:29.545248500,10.14424853515625,-0.1436774283647537,-0.6639255881309509,-0.3039996027946472
2024-12-07 16:18:29.555275800,10.15427587890625,-0.022237379103899,-0.6117276549339294,-0.3806985914707184
2024-12-07 16:18:29.565303300,10.16430322265625,0.0693752914667129,-0.3954791128635406,-0.4456796646118164
2024-12-07 16:18:29.575330800,10.174330810546875,0.114116370677948,-0.1419463753700256,-0.4818986356258392
2024-12-07 16:18:29.585358000,10.184358154296875,0.1396826952695846,0.0434094928205013,-0.4808333814144134
2024-12-07 16:18:29.595385600,10.194385498046875,0.1663142889738083,0.1030642539262771,-0.4595280885696411
2024-12-07 16:18:29.605413000,10.2044130859375,0.1844237744808197,0.044474758207798,-0.4478102028369903
2024-12-07 16:18:29.615440600,10.214440673828124,0.1908153444528579,-0.0972053036093711,-0.4467449486255646
2024-12-07 16:18:29.625468000,10.224468017578126,0.1844237744808197,-0.303866446018219,-0.4478102028369903
2024-12-07 16:18:29.635495400,10.234495361328126,0.1737711280584335,-0.5339633822441101,-0.4510059952735901
2024-12-07 16:18:29.645523000,10.24452294921875,0.1780321896076202,-0.7331677079200745,-0.4680502116680145
2024-12-07 16:18:29.655550200,10.25455029296875,0.1950764060020446,-0.906805694103241,-0.4872249662876129
2024-12-07 16:18:29.665577700,10.26457763671875,0.2185122072696685,-1.0484857559204102,-0.5074649453163147
2024-12-07 16:18:29.675605200,10.274605224609376,0.23662169277668,-1.1560773849487305,-0.5287702679634094
2024-12-07 16:18:29.685632800,10.2846328125,0.2557964324951172,-1.1965574026107788,-0.5362271070480347
2024-12-07 16:18:29.695660000,10.294659912109376,0.2589922249317169,-1.1369025707244873,-0.5181176066398621
2024-12-07 16:18:29.705687600,10.3046875,0.2494048476219177,-1.029310941696167,-0.4733765423297882
2024-12-07 16:18:29.715715000,10.314715087890624,0.2440785318613052,-0.8918919563293457,-0.3881554305553436
2024-12-07 16:18:29.725742300,10.324742431640624,0.2398174703121185,-0.7139929533004761,-0.2805638015270233
2024-12-07 16:18:29.735769900,10.334769775390624,0.2387522161006927,-0.5041360259056091,-0.1825595498085022
2024-12-07 16:18:29.745797400,10.34479736328125,0.2291648387908935,-0.2974748611450195,-0.1282311081886291
2024-12-07 16:18:29.755825000,10.354824951171874,0.2142511457204818,-0.1238368973135948,-0.1026647835969924
2024-12-07 16:18:29.765852200,10.36485205078125,0.1982721984386444,0.0071905297227203,-0.0866858288645744
2024-12-07 16:18:29.775879700,10.374879638671874,0.168444812297821,0.0796284601092338,-0.0770984590053558
2024-12-07 16:18:29.785907200,10.3849072265625,0.1354216337203979,0.1041295230388641,-0.0888163596391677
2024-12-07 16:18:29.795934500,10.3949345703125,0.113051101565361,0.0743021368980407,-0.1324921697378158
2024-12-07 16:18:29.805962000,10.4049619140625,0.0981374159455299,-0.0482031814754009,-0.2038648277521133
2024-12-07 16:18:29.815989500,10.414989501953125,0.0896153002977371,-0.2314285188913345,-0.283759593963623
2024-12-07 16:18:29.826017000,10.42501708984375,0.0821584612131118,-0.4189149141311645,-0.3636543750762939
2024-12-07 16:18:29.836044300,10.435044189453125,0.0704405605792999,-0.5872265696525574,-0.4318312406539917
2024-12-07 16:18:29.846071800,10.44507177734375,0.060853186994791,-0.7416898012161255,-0.4787028431892395
2024-12-07 16:18:29.856099300,10.455099365234377,0.0363521203398704,-0.8269109129905701,-0.5106607675552368
2024-12-07 16:18:29.866126800,10.465126953125,0.0225036945194005,-0.8194540739059448,-0.5287702679634094
2024-12-07 16:18:29.876154000,10.475154052734377,0.0118510583415627,-0.7555382251739502,-0.5468797087669373
2024-12-07 16:18:29.886181600,10.485181640625,0.0086552668362855,-0.659664511680603,-0.560728132724762
2024-12-07 16:18:29.896209200,10.495209228515623,0.0150468489155173,-0.5307676196098328,-0.5532712936401367
2024-12-07 16:18:29.906236400,10.505236328125,0.019307903945446,-0.3624559640884399,-0.5319660305976868
2024-12-07 16:18:29.916264000,10.515263916015623,0.019307903945446,-0.1984053552150726,-0.5106607675552368
2024-12-07 16:18:29.926291500,10.52529150390625,0.0065247397869825,-0.0950747802853584,-0.4957470595836639
2024-12-07 16:18:29.936319000,10.535319091796875,-0.0211721155792474,-0.0812263563275337,-0.4861596822738647
2024-12-07 16:18:29.946346200,10.54534619140625,-0.0659131854772567,-0.1355548053979873,-0.4808333814144134
2024-12-07 16:18:29.956373800,10.555373779296875,-0.1223721578717231,-0.2218411564826965,-0.4765723347663879
2024-12-07 16:18:29.966401300,10.5654013671875,-0.186287984251976,-0.2942790687084198,-0.4765723347663879
2024-12-07 16:18:29.976428500,10.575428466796875,-0.250203788280487,-0.3166496157646179,-0.4840291738510132
2024-12-07 16:18:29.986456000,10.5854560546875,-0.3130543529987335,-0.3155843615531921,-0.4797681272029876
2024-12-07 16:18:29.996483600,10.595483642578126,-0.3652522563934326,-0.284691721200943,-0.461658626794815
2024-12-07 16:18:30.006511000,10.605510986328126,-0.3993407189846039,-0.226102203130722,-0.4499407410621643
2024-12-07 16:18:30.016538400,10.615538330078126,-0.4227765202522278,-0.1515337526798248,-0.4659196734428406
2024-12-07 16:18:30.026566000,10.62556591796875,-0.430233359336853,-0.0727042406797409,-0.5106607675552368
2024-12-07 16:18:30.036593400,10.635593505859376,-0.4344944059848785,-0.0151800066232681,-0.576707124710083
2024-12-07 16:18:30.046620700,10.64562060546875,-0.4451470375061035,0.032756857573986,-0.6502103209495544
2024-12-07 16:18:30.056648200,10.655648193359376,-0.4312986135482788,0.0647147670388221,-0.6874945163726807
2024-12-07 16:18:30.066675700,10.66567578125,-0.3865575492382049,0.1009337306022644,-0.673646092414856
2024-12-07 16:18:30.076703200,10.675703125,-0.3237069845199585,0.1744369268417358,-0.6235787272453308
2024-12-07 16:18:30.086730500,10.68573046875,-0.2427469491958618,0.2926811873912811,-0.5617933869361877
2024-12-07 16:18:30.096758000,10.695758056640624,-0.1458079665899276,0.450340211391449,-0.5255744457244873
2024-12-07 16:18:30.106785500,10.70578564453125,-0.0296942237764596,0.6154560446739197,-0.5340965390205383
2024-12-07 16:18:30.116812800,10.715812744140624,0.085354246199131,0.7677887678146362,-0.5926860570907593
2024-12-07 16:18:30.126840300,10.72584033203125,0.1599227041006088,0.8594014644622803,-0.6896250247955322
2024-12-07 16:18:30.136867800,10.735867919921876,0.1737711280584335,0.8540751338005066,-0.7652587890625
2024-12-07 16:18:30.146895400,10.745895263671876,0.1205079481005668,0.7954856157302856,-0.7162566184997559
2024-12-07 16:18:30.156922600,10.755922607421876,0.0800279304385185,0.7326350808143616,-0.4776375889778137
2024-12-07 16:18:30.166950100,10.7659501953125,0.0715058222413063,0.6719150543212891,-0.1314269006252288
2024-12-07 16:18:30.176977700,10.775977783203125,0.0597879216074943,0.5249086618423462,0.1572595387697219
2024-12-07 16:18:30.187005000,10.7860048828125,0.047004759311676,0.238352745771408,0.2701774835586548
2024-12-07 16:18:30.197032400,10.796032470703125,0.0512658134102821,-0.0801610872149467,0.2627206444740295
2024-12-07 16:18:30.207060000,10.80606005859375,0.0885500386357307,-0.2878875136375427,0.3021354079246521
2024-12-07 16:18:30.217087500,10.81608740234375,0.1631184965372085,-0.3560643792152405,0.4203796684741974
2024-12-07 16:18:30.227114800,10.82611474609375,0.2760364413261413,-0.3241064548492431,0.5311670899391174
2024-12-07 16:18:30.237142300,10.836142333984377,0.3452785909175873,-0.2218411564826965,0.5748428702354431
2024-12-07 16:18:30.247169800,10.846169677734377,0.3655185997486114,-0.1153147891163826,0.6291713118553162
2024-12-07 16:18:30.257197300,10.856197265625,0.3303648829460144,-0.0290284343063831,0.7367629408836365
2024-12-07 16:18:30.267224600,10.866224609375,0.2504701018333435,0.0402137041091918,0.8954872488975525
2024-12-07 16:18:30.277252000,10.876252197265623,0.1354216337203979,0.0700410827994346,1.0765820741653442
2024-12-07 16:18:30.287279600,10.886279541015623,0.0065247397869825,0.098803199827671,1.2651337385177612
2024-12-07 16:18:30.297307000,10.896306884765623,-0.1053279414772987,0.1392832249403,1.4366412162780762
2024-12-07 16:18:30.307334400,10.90633447265625,-0.1884185075759887,0.1669800728559494,1.5857781171798706
2024-12-07 16:18:30.317362000,10.91636181640625,-0.2491385340690612,0.1360874325037002,1.693369746208191
2024-12-07 16:18:30.327389400,10.926389404296875,-0.2810964286327362,0.0103863207623362,1.7658076286315918
2024-12-07 16:18:30.337416700,10.936416748046875,-0.2864227592945099,-0.160055860877037,1.8233318328857424
2024-12-07 16:18:30.347444200,10.9464443359375,-0.2725743353366852,-0.3091927766799927,1.861681342124939
2024-12-07 16:18:30.357471700,10.9564716796875,-0.2448774725198745,-0.4764391779899597,1.8584855794906616
2024-12-07 16:18:30.367499000,10.9664990234375,-0.1980058848857879,-0.6181192398071289,1.830788731575012
2024-12-07 16:18:30.377526500,10.976526611328126,-0.1521995365619659,-0.6564686894416809,1.7764602899551392
2024-12-07 16:18:30.387554000,10.986553955078126,-0.1213068962097168,-0.6032055616378784,1.697630763053894
2024-12-07 16:18:30.397581600,10.99658154296875,-0.0936100408434867,-0.5211802124977112,1.5900391340255735
2024-12-07 16:18:30.407608800,11.00660888671875,-0.0691089779138565,-0.3912180662155151,1.4558159112930298
2024-12-07 16:18:30.417636400,11.01663623046875,-0.0733700320124626,-0.2133190482854843,1.308809518814087
2024-12-07 16:18:30.427664000,11.026663818359374,-0.091479517519474,-0.1280979514122009,1.186304211616516
2024-12-07 16:18:30.437691100,11.036691162109374,-0.128763735294342,-0.1462074369192123,1.1245189905166626
2024-12-07 16:18:30.447718700,11.04671875,-0.1767006069421768,-0.2516685426235199,1.1042789220809937
2024-12-07 16:18:30.457746200,11.05674609375,-0.2214416861534118,-0.4221107065677643,1.094691514968872
2024-12-07 16:18:30.467773700,11.066773681640624,-0.2587259113788605,-0.6085318326950073,1.0723210573196411
2024-12-07 16:18:30.477801000,11.076801025390624,-0.2779006659984588,-0.7768434882164001,1.0318410396575928
2024-12-07 16:18:30.487828500,11.086828369140624,-0.2704437971115112,-0.8769782781600952,0.968990445137024
2024-12-07 16:18:30.497856000,11.09685595703125,-0.229963794350624,-0.8876309394836426,0.8965525031089783
2024-12-07 16:18:30.507883300,11.10688330078125,-0.1798963993787765,-0.8013445734977722,0.81346195936203
2024-12-07 16:18:30.517910800,11.116910888671876,-0.130894273519516,-0.743820309638977,0.730371356010437
2024-12-07 16:18:30.527938300,11.126938232421876,-0.0648479238152504,-0.7629950642585754,0.6419544816017151
2024-12-07 16:18:30.537965800,11.1369658203125,0.0235689580440521,-0.8290414214134216,0.5428850054740906
2024-12-07 16:18:30.547993000,11.1469931640625,0.1119858399033546,-0.9089362025260924,0.4427502155303955
2024-12-07 16:18:30.558020600,11.1570205078125,0.1865542978048324,-0.9941573143005372,0.3617901504039764
2024-12-07 16:18:30.568048000,11.167048095703125,0.234491154551506,-1.0143972635269165,0.3042659163475036
2024-12-07 16:18:30.578075600,11.17707568359375,0.2664490640163421,-0.9547425508499146,0.2616553902626037
2024-12-07 16:18:30.588103000,11.18710302734375,0.29201540350914,-0.8535425066947937,0.2222406268119812
2024-12-07 16:18:30.598130400,11.19713037109375,0.3218427896499634,-0.7342329621315002,0.1806953400373459
2024-12-07 16:18:30.608158000,11.207157958984377,0.3516701459884643,-0.6042708158493042,0.1295626908540725
2024-12-07 16:18:30.618185200,11.217185302734377,0.3729754388332367,-0.4743086397647857,0.0709731876850128
2024-12-07 16:18:30.628212700,11.227212646484375,0.3964112401008606,-0.3624559640884399,0.0166447442024946
2024-12-07 16:18:30.638240300,11.237240234375,0.421977549791336,-0.2761695981025696,-0.0472710728645324
2024-12-07 16:18:30.648267800,11.247267822265623,0.4539354741573334,-0.1920137703418731,-0.1250353157520294
2024-12-07 16:18:30.658295000,11.257294921875,0.4933502376079559,-0.0961400419473648,-0.2038648277521133
2024-12-07 16:18:30.668322600,11.267322509765624,0.5221123695373535,-0.0087884254753589,-0.2709764242172241
2024-12-07 16:18:30.678350000,11.27735009765625,0.5391565561294556,0.0487358123064041,-0.3135869801044464
2024-12-07 16:18:30.688377300,11.28737744140625,0.5412870645523071,0.088150568306446,-0.331696480512619
2024-12-07 16:18:30.698404900,11.29740478515625,0.5285038948059082,0.1392832249403,-0.3167827725410461
2024-12-07 16:18:30.708432400,11.307432373046876,0.4922849535942077,0.126500055193901,-0.2507364153861999
2024-12-07 16:18:30.718460000,11.3174599609375,0.4368912577629089,0.0434094928205013,-0.1484711170196533
2024-12-07 16:18:30.728487200,11.327487060546876,0.3740406930446625,-0.0279631707817316,-0.0387489646673202
2024-12-07 16:18:30.738514700,11.3375146484375,0.3079943358898163,-0.0737695097923278,0.0475373901426792
2024-12-07 16:18:30.748542200,11.347542236328126,0.2408827394247055,-0.1249021589756012,0.1050616279244422
2024-12-07 16:18:30.758569500,11.357569580078126,0.180162712931633,-0.1536642760038375,0.1295626908540725
2024-12-07 16:18:30.768597000,11.367596923828126,0.1300953179597854,-0.1419463753700256,0.1316932141780853
2024-12-07 16:18:30.778624500,11.37762451171875,0.0917458310723304,-0.1067926809191703,0.1210405826568603
2024-12-07 16:18:30.788652000,11.387652099609374,0.0619184486567974,-0.0684431865811348,0.0954742506146431
2024-12-07 16:18:30.798679300,11.39767919921875,0.0384826473891735,-0.0322242267429828,0.054994236677885
2024-12-07 16:18:30.808706800,11.407706787109374,0.0288952756673097,-0.0034621069207787,-0.0110521102324128
2024-12-07 16:18:30.818734300,11.417734375,0.0406131781637668,0.0018642114009708,-0.0866858288645744
2024-12-07 16:18:30.828761600,11.42776171875,0.073636345565319,-0.0173105336725711,-0.1431448012590408
2024-12-07 16:18:30.838789000,11.4377890625,0.1183774247765541,-0.0460726507008075,-0.1559279710054397
2024-12-07 16:18:30.848816600,11.447816650390624,0.1620532274246215,-0.024767380207777,-0.1175784766674041
2024-12-07 16:18:30.858844200,11.45784423828125,0.2035985141992569,0.058323185890913,-0.0344879105687141
2024-12-07 16:18:30.868871400,11.467871337890625,0.2451438009738922,0.1808284968137741,0.0720384567975997
2024-12-07 16:18:30.878899000,11.47789892578125,0.2739059031009674,0.3129211962223053,0.1721732318401336
2024-12-07 16:18:30.888926500,11.487926513671876,0.2930806577205658,0.4418180882930755,0.2478069514036178
2024-12-07 16:18:30.898954000,11.4979541015625,0.3047985732555389,0.5153213143348694,0.2893522381782532
2024-12-07 16:18:30.908981200,11.507981201171877,0.29201540350914,0.4993423223495483,0.2968090772628784
2024-12-07 16:18:30.919008800,11.5180087890625,0.2483395934104919,0.4002728164196014,0.2659164369106293
2024-12-07 16:18:30.929036300,11.528036376953125,0.1886848211288452,0.2724411785602569,0.1892174482345581
2024-12-07 16:18:30.939063600,11.5380634765625,0.1237037405371666,0.1648495495319366,0.0784300342202186
2024-12-07 16:18:30.949091000,11.548091064453123,0.0640489757061004,0.099868468940258,-0.0515321269631385
2024-12-07 16:18:30.959118600,11.55811865234375,0.0225036945194005,0.0434094928205013,-0.1814942955970764
2024-12-07 16:18:30.969146000,11.56814599609375,-0.0019973693415522,-0.0258326437324285,-0.3178480267524719
