time,seconds_elapsed,z,y,x
2024-12-07 16:10:00.597247200,0.161247314453125,-0.0097205303609371,-0.130894273519516,-0.2189116775989532
2024-12-07 16:10:00.607284500,0.171284423828125,-0.005459476262331,-0.1628521829843521,-0.1912148296833038
2024-12-07 16:10:00.617325800,0.181325927734375,-0.0171773768961429,-0.1607216447591781,-0.1518000662326812
2024-12-07 16:10:00.627370500,0.19137060546875,-0.0171773768961429,-0.1394163817167282,-0.1145158410072326
2024-12-07 16:10:00.637417700,0.201417724609375,-0.005459476262331,-0.1521995365619659,-0.088949516415596
2024-12-07 16:10:00.647466800,0.211466796875,0.010519478470087,-0.1777658760547638,-0.076166346669197
2024-12-07 16:10:00.657516800,0.221516845703125,0.0169110596179962,-0.1884185075759887,-0.0623179227113723
2024-12-07 16:10:00.667566600,0.231566650390625,0.0158457960933446,-0.2118543088436126,-0.0921453014016151
2024-12-07 16:10:00.677595100,0.24159521484375,0.0296942237764596,-0.2438122183084488,-0.1358211189508438
2024-12-07 16:10:00.687623700,0.251623779296875,0.0318247526884079,-0.2257027328014373,-0.1358211189508438
2024-12-07 16:10:00.697652200,0.26165234375,0.0147805325686931,-0.1926795542240142,-0.1390169113874435
2024-12-07 16:10:00.707680800,0.2716806640625,0.0254331696778535,-0.1617869138717651,-0.1816274523735046
2024-12-07 16:10:00.717709300,0.281709228515625,0.0456731803715229,-0.195875346660614,-0.198671668767929
2024-12-07 16:10:00.727737600,0.291737548828125,0.0563258156180381,-0.1809616535902023,-0.1954758763313293
2024-12-07 16:10:00.737766100,0.30176611328125,0.0605868697166442,-0.1639174371957779,-0.198671668767929
2024-12-07 16:10:00.747794700,0.311794677734375,0.0563258156180381,-0.1628521829843521,-0.2221074700355529
2024-12-07 16:10:00.757823200,0.3218232421875,0.0616521313786506,-0.1426121741533279,-0.2561959028244018
2024-12-07 16:10:00.767851500,0.3318515625,0.0712395086884498,-0.0936100408434867,-0.2860232889652252
2024-12-07 16:10:00.777880000,0.341880126953125,0.074435293674469,-0.049934234470129,-0.3371559381484985
2024-12-07 16:10:00.787908600,0.35190869140625,0.0531300231814384,0.0086552668362855,-0.3840275406837463
2024-12-07 16:10:00.797937200,0.361937255859375,0.0179763231426477,0.1322258561849594,-0.3616569936275482
2024-12-07 16:10:00.807965700,0.371965576171875,-0.0086552668362855,0.3282343447208404,-0.3318296372890472
2024-12-07 16:10:00.817994000,0.381993896484375,-0.0395479127764701,0.4795017838478088,-0.3307643532752991
2024-12-07 16:10:00.828022500,0.3920224609375,-0.0565921291708946,0.5316997170448303,-0.3659180700778961
2024-12-07 16:10:00.838051000,0.402051025390625,-0.0715058222413063,0.4550007283687591,-0.3925496637821197
2024-12-07 16:10:00.848079600,0.41207958984375,-0.0938763618469238,0.3133206665515899,-0.3776359558105469
2024-12-07 16:10:00.858108200,0.422108154296875,-0.1109205782413482,0.2227732539176941,-0.341416984796524
2024-12-07 16:10:00.868136400,0.432136474609375,-0.1375521719455719,0.1886848211288452,-0.343547523021698
2024-12-07 16:10:00.878165000,0.4421650390625,-0.1876195520162582,0.1908153444528579,-0.4042675495147705
2024-12-07 16:10:00.888193500,0.452193603515625,-0.281362771987915,0.1620532274246215,-0.5118591785430908
2024-12-07 16:10:00.898222000,0.46222216796875,-0.3964112401008606,0.0246342215687036,-0.577905535697937
2024-12-07 16:10:00.908250400,0.47225048828125,-0.4858933687210083,-0.2874880135059356,-0.5683181285858154
2024-12-07 16:10:00.918279000,0.48227880859375,-0.5295692086219788,-0.6837661266326904,-0.4735096991062164
2024-12-07 16:10:00.928307500,0.492307373046875,-0.5636576414108276,-1.1013494729995728,-0.3446127772331238
2024-12-07 16:10:00.938336000,0.5023359375,-0.5412870645523071,-1.3197284936904907,-0.2370211631059646
2024-12-07 16:10:00.948364500,0.512364501953125,-0.5189165472984314,-1.3847095966339111,-0.1784316599369049
2024-12-07 16:10:00.958392800,0.522392822265625,-0.489089161157608,-1.330381155014038,-0.1209074258804321
2024-12-07 16:10:00.968421400,0.53242138671875,-0.4880239069461822,-1.3101410865783691,-0.0868189856410026
2024-12-07 16:10:00.978450000,0.542449951171875,-0.515720784664154,-1.355947494506836,-0.0857537239789962
2024-12-07 16:10:00.988478500,0.552478515625,-0.566853404045105,-1.4464948177337646,-0.087884247303009
2024-12-07 16:10:00.998507000,0.562507080078125,-0.6286386847496033,-1.4731264114379885,-0.076166346669197
2024-12-07 16:10:01.008535300,0.572535400390625,-0.7394261360168457,-1.501888632774353,-0.1038632020354271
2024-12-07 16:10:01.018563800,0.582563720703125,-0.8970851302146912,-1.602023363113403,-0.1677790284156799
2024-12-07 16:10:01.028592400,0.59259228515625,-0.98124098777771,-1.4369075298309326,-0.153930589556694
2024-12-07 16:10:01.038621000,0.602620849609375,-1.0941588878631592,-1.4294506311416626,-0.1581916511058807
2024-12-07 16:10:01.048649200,0.612649169921875,-1.3146685361862185,-1.3506211042404177,-0.1858884990215301
2024-12-07 16:10:01.058677800,0.622677734375,-1.4478265047073364,-1.2036147117614746,-0.1880190372467041
2024-12-07 16:10:01.068706300,0.632706298828125,-1.4403696060180664,-1.2121368646621704,-0.1667137593030929
2024-12-07 16:10:01.078734800,0.64273486328125,-1.3221253156661987,-1.1993536949157717,-0.1336905807256698
2024-12-07 16:10:01.088763400,0.652763427734375,-1.258209466934204,-1.2909663915634155,-0.1912148296833038
2024-12-07 16:10:01.098791700,0.662791748046875,-1.153813719749451,-1.1535474061965942,-0.2327601015567779
2024-12-07 16:10:01.108820200,0.6728203125,-1.1612704992294312,-1.2057453393936155,-0.2743053734302521
2024-12-07 16:10:01.118848800,0.682848876953125,-1.0835062265396118,-1.109871506690979,-0.2274337857961654
2024-12-07 16:10:01.128877300,0.692877197265625,-0.9428914785385132,-0.9948230981826782,-0.1603221744298935
2024-12-07 16:10:01.138905900,0.70290576171875,-0.7383608818054199,-0.828641951084137,-0.0953410938382148
2024-12-07 16:10:01.148934100,0.71293408203125,-0.5838976502418518,-0.5239765644073486,-0.0197073780000209
2024-12-07 16:10:01.158962700,0.722962646484375,-0.4411523044109344,-0.3141196072101593,0.0484694950282573
2024-12-07 16:10:01.168991200,0.7329912109375,-0.1386174261569976,-0.186287984251976,0.076166346669197
2024-12-07 16:10:01.179019800,0.743019775390625,0.1351553201675415,-0.3045322299003601,0.0804274082183837
2024-12-07 16:10:01.189048300,0.75304833984375,0.0147805325686931,-0.373774379491806,0.007989477366209
2024-12-07 16:10:01.199076600,0.76307666015625,-0.2536658942699432,-0.2597911655902862,-0.1475390195846557
2024-12-07 16:10:01.209105200,0.773105224609375,-0.1077247858047485,-0.2533995807170868,-0.1784316599369049
2024-12-07 16:10:01.219133700,0.7831337890625,0.0339552797377109,-0.2544648647308349,-0.267913818359375
2024-12-07 16:10:01.229162200,0.793162353515625,0.091479517519474,-0.2491385340690612,-0.3637875318527221
2024-12-07 16:10:01.239190500,0.8031904296875,0.1085237339138984,-0.1575258672237396,-0.3691138625144958
2024-12-07 16:10:01.249219000,0.813218994140625,0.2054627239704132,-0.0456731803715229,-0.297741174697876
2024-12-07 16:10:01.259247600,0.82324755859375,0.594283938407898,-0.0083889514207839,-0.1624527126550674
2024-12-07 16:10:01.269276200,0.833276123046875,0.5900229215621948,0.2217079997062683,-0.1368863731622696
2024-12-07 16:10:01.279304700,0.8433046875,0.4504733681678772,0.5008070468902588,-0.1528653353452682
2024-12-07 16:10:01.289333000,0.8533330078125,0.4025365114212036,0.6510092616081238,-0.1667137593030929
2024-12-07 16:10:01.299361500,0.863361572265625,0.5410207509994507,0.6403566002845764,-0.1656484901905059
2024-12-07 16:10:01.309390000,0.87339013671875,0.8211851119995117,0.4858933687210083,-0.2253032624721527
2024-12-07 16:10:01.319418600,0.883418701171875,1.1460905075073242,0.2717753946781158,-0.3712443709373474
2024-12-07 16:10:01.329447200,0.893447265625,1.3772526979446411,0.1109205782413482,-0.4607265293598175
2024-12-07 16:10:01.339475500,0.903475341796875,1.44010329246521,0.0406131781637668,-0.4926844239234924
2024-12-07 16:10:01.349504000,0.91350390625,1.6638087034225464,0.1002679392695427,-0.4500738978385925
2024-12-07 16:10:01.359532500,0.923532470703125,1.912015080451965,0.1822932362556457,-0.3882885873317718
2024-12-07 16:10:01.369561000,0.93356103515625,1.8449034690856936,0.1055942550301551,-0.3403517305850982
2024-12-07 16:10:01.379589400,0.94358935546875,1.498692750930786,-0.0051931603811681,-0.3137201368808746
2024-12-07 16:10:01.389618000,0.953617919921875,1.0853705406188965,0.0278300121426582,-0.3030675053596496
2024-12-07 16:10:01.399646500,0.963646484375,0.5229113101959229,0.2131858915090561,-0.297741174697876
2024-12-07 16:10:01.409675000,0.973675048828125,0.0478037074208259,0.4209122955799103,-0.2806969583034515
2024-12-07 16:10:01.419703600,0.98370361328125,0.1383511126041412,0.3868238627910614,-0.1496695429086685
2024-12-07 16:10:01.429731800,0.99373193359375,0.1617869138717651,0.2142511457204818,-0.0751010850071907
2024-12-07 16:10:01.439760400,1.003760498046875,0.2161153554916381,-0.0073236874304711,-0.0825579315423965
2024-12-07 16:10:01.449789000,1.013788818359375,0.229963794350624,-0.119176372885704,-0.1699095517396927
2024-12-07 16:10:01.459817500,1.0238173828125,0.250203788280487,-0.0446079149842262,-0.2689790725708008
2024-12-07 16:10:01.469846000,1.033845947265625,0.3471427857875824,0.0651142373681068,-0.2945453822612762
2024-12-07 16:10:01.479874300,1.043874267578125,0.9980188608169556,-0.1692437678575515,-0.1006674170494079
2024-12-07 16:10:01.489902800,1.05390283203125,1.3751221895217896,-0.6028060913085938,0.0623179227113723
2024-12-07 16:10:01.499931400,1.063931396484375,1.3751221895217896,-0.6986798048019409,0.1123853176832199
2024-12-07 16:10:01.509960000,1.0739599609375,1.302684307098389,-0.5889576077461243,0.1901495605707168
2024-12-07 16:10:01.519988500,1.083988525390625,1.0832399129867554,-0.4632565379142761,0.3392864763736725
2024-12-07 16:10:01.530016800,1.094016845703125,0.6496776342391968,-0.3556649088859558,0.5544697046279907
2024-12-07 16:10:01.540045300,1.10404541015625,-0.0011984215816482,-0.0765658244490623,0.7536740303039551
2024-12-07 16:10:01.550073900,1.114073974609375,-0.1876195520162582,0.047004759311676,1.0604699850082395
2024-12-07 16:10:01.560102400,1.124102294921875,-0.1812279820442199,-0.0478037074208259,1.4301164150238037
2024-12-07 16:10:01.570130700,1.134130615234375,-0.1961416751146316,-0.091479517519474,1.7369123697280884
2024-12-07 16:10:01.580159200,1.1441591796875,-0.1908153444528579,-0.0531300231814384,1.947834610939026
2024-12-07 16:10:01.590187800,1.154187744140625,-0.0576573945581913,-0.0179763231426477,2.02453351020813
2024-12-07 16:10:01.600216300,1.16421630859375,0.1479384899139404,0.0768321380019187,1.9680745601654053
2024-12-07 16:10:01.610244900,1.174244873046875,0.3045322299003601,0.2025332450866699,1.9212030172348025
2024-12-07 16:10:01.620273200,1.184273193359375,0.5218459963798523,0.1418132185935974,2.057556629180908
2024-12-07 16:10:01.630301700,1.1943017578125,0.6709829568862915,-0.010519478470087,2.203497886657715
2024-12-07 16:10:01.640330200,1.204330322265625,0.4813660085201263,0.0619184486567974,2.103363037109375
2024-12-07 16:10:01.650358800,1.21435888671875,0.1735048145055771,0.1567269116640091,1.8498302698135376
2024-12-07 16:10:01.660387300,1.22438720703125,-0.0374173857271671,0.0150468489155173,1.4631396532058716
2024-12-07 16:10:01.670415600,1.23441552734375,-0.1109205782413482,-0.3375554084777832,0.9582046270370485
2024-12-07 16:10:01.680444200,1.244444091796875,-0.0938763618469238,-0.627307116985321,0.5416865348815918
2024-12-07 16:10:01.690472700,1.25447265625,-0.0981374159455299,-0.7434208393096924,0.2444780021905899
2024-12-07 16:10:01.700501200,1.264501220703125,-0.1087900474667549,-0.9596694111824036,0.0154463229700922
2024-12-07 16:10:01.710529500,1.274529541015625,-0.0672447681427002,-1.087501049041748,-0.1262337416410446
2024-12-07 16:10:01.720558000,1.28455810546875,0.0350205413997173,-0.9894967675209044,-0.2327601015567779
2024-12-07 16:10:01.730586600,1.294586669921875,0.2363553643226623,-0.6550039649009705,-0.2338253706693649
2024-12-07 16:10:01.740615200,1.304615234375,0.495214432477951,-0.4376901984214782,-0.1667137593030929
2024-12-07 16:10:01.750643700,1.314643798828125,0.6177197694778442,-0.2331595867872238,0.1272990107536316
2024-12-07 16:10:01.760672000,1.324672119140625,0.5697829127311707,-0.3556649088859558,0.4181159734725952
2024-12-07 16:10:01.770700500,1.334700439453125,0.4664523303508758,-0.8808398842811584,0.4735096991062164
2024-12-07 16:10:01.780729000,1.34472900390625,0.3972101807594299,-1.268595814704895,0.4138549268245697
2024-12-07 16:10:01.790757600,1.354757568359375,0.3396859467029571,-1.2494211196899414,0.3403517305850982
2024-12-07 16:10:01.800786200,1.3647861328125,0.2331595867872238,-1.1482210159301758,0.2157158851623535
2024-12-07 16:10:01.810814500,1.374814453125,0.1223721578717231,-1.180178999900818,0.0591221302747726
2024-12-07 16:10:01.820843000,1.384843017578125,0.0541952885687351,-1.1929621696472168,-0.0623179227113723
2024-12-07 16:10:01.830871600,1.39487158203125,-0.0001331579551333,-1.1365031003952026,-0.1454084813594818
2024-12-07 16:10:01.840900000,1.404900146484375,-0.0480700209736824,-1.0725873708724976,-0.1752358675003051
2024-12-07 16:10:01.850928400,1.414928466796875,-0.0970721468329429,-1.0438252687454224,-0.1677790284156799
2024-12-07 16:10:01.860957000,1.42495703125,-0.1450090110301971,-1.0406293869018557,-0.1475390195846557
2024-12-07 16:10:01.870985500,1.4349853515625,-0.2025332450866699,-0.974583089351654,-0.1145158410072326
2024-12-07 16:10:01.881014000,1.445013916015625,-0.2866890728473663,-0.8382292985916138,-0.1177116334438324
2024-12-07 16:10:01.891042600,1.45504248046875,-0.3761712312698364,-0.7072018980979919,-0.1901495605707168
2024-12-07 16:10:01.901070800,1.46507080078125,-0.4624575674533844,-0.6017407774925232,-0.2860232889652252
2024-12-07 16:10:01.911099400,1.475099365234375,-0.5700492262840271,-0.5612607598304749,-0.3254380524158478
2024-12-07 16:10:01.921128000,1.4851279296875,-0.7021418809890747,-0.6230461001396179,-0.2806969583034515
2024-12-07 16:10:01.931156500,1.495156494140625,-0.8065377473831177,-0.7455514073371887,-0.1869537681341171
2024-12-07 16:10:01.941185000,1.50518505859375,-0.8640619516372681,-0.8360987901687622,-0.088949516415596
2024-12-07 16:10:01.951213300,1.51521337890625,-0.8789756894111633,-0.8595346212387085,-0.0090547408908605
2024-12-07 16:10:01.961241900,1.525241943359375,-0.8416914343833923,-0.8147935271263123,0.0633831843733787
2024-12-07 16:10:01.971270400,1.5352705078125,-0.7479482293128967,-0.664591372013092,0.154995858669281
2024-12-07 16:10:01.981299000,1.545298828125,-0.6275734305381775,-0.4067975580692291,0.2647180259227752
2024-12-07 16:10:01.991327500,1.555327392578125,-0.4550007283687591,-0.1415469050407409,0.354200154542923
2024-12-07 16:10:02.001355800,1.565355712890625,-0.235556423664093,0.0118510583415627,0.3691138625144958
2024-12-07 16:10:02.011384300,1.57538427734375,-0.0022636852227151,0.0821584612131118,0.3254380524158478
2024-12-07 16:10:02.021412900,1.585412841796875,0.2065279930830001,0.1002679392695427,0.2423474788665771
2024-12-07 16:10:02.031441400,1.59544140625,0.3695133328437805,0.0725710839033126,0.1113200485706329
2024-12-07 16:10:02.041470000,1.605469970703125,0.4685828387737274,0.0107857948169112,-0.0314252786338329
2024-12-07 16:10:02.051498500,1.61549853515625,0.5165197253227234,-0.0701742395758628,-0.1411474347114563
2024-12-07 16:10:02.061527000,1.625527099609375,0.5367597341537476,-0.1213068962097168,-0.1912148296833038
2024-12-07 16:10:02.071555600,1.6355556640625,0.551673412322998,-0.0978710949420929,-0.198671668767929
2024-12-07 16:10:02.081584000,1.645584228515625,0.5687175989151001,-0.0201068520545959,-0.1976063996553421
2024-12-07 16:10:02.091612700,1.65561279296875,0.5612607598304749,0.0086552668362855,-0.221042200922966
2024-12-07 16:10:02.101641200,1.66564111328125,0.4920186400413513,-0.0978710949420929,-0.2924148738384247
2024-12-07 16:10:02.111669800,1.675669677734375,0.373774379491806,-0.2768353819847107,-0.3829622864723205
2024-12-07 16:10:02.121698300,1.6856982421875,0.2161153554916381,-0.4366249442100525,-0.4862928390502929
2024-12-07 16:10:02.131726800,1.695726806640625,0.0158457960933446,-0.4653870463371277,-0.5949497222900391
2024-12-07 16:10:02.141755400,1.70575537109375,-0.235556423664093,-0.2992059290409088,-0.6929540038108826
2024-12-07 16:10:02.151784000,1.715783935546875,-0.5114597082138062,0.062983714044094,-0.7813708782196045
2024-12-07 16:10:02.161812500,1.7258125,-0.746882975101471,0.5721797347068787,-0.842090904712677
2024-12-07 16:10:02.171841000,1.735841064453125,-0.8395609259605408,0.9855020046234132,-0.8165245652198792
2024-12-07 16:10:02.181869600,1.74586962890625,-0.658466100692749,0.8970851302146912,-0.6578003168106079
2024-12-07 16:10:02.191898000,1.755898193359375,-0.2110553532838821,0.2781669795513153,-0.3914843797683716
2024-12-07 16:10:02.201926700,1.7659267578125,0.0392815954983234,-0.4078628122806549,-0.1113200485706329
2024-12-07 16:10:02.211955200,1.775955078125,-0.0267647486180067,-0.6603302955627441,0.1475390195846557
2024-12-07 16:10:02.221983700,1.785983642578125,-0.0810931921005249,-0.4504733681678772,0.2838927507400512
2024-12-07 16:10:02.232012300,1.79601220703125,-0.0810931921005249,0.085354246199131,0.267913818359375
2024-12-07 16:10:02.242040800,1.806040771484375,-0.0981374159455299,0.6467481851577759,0.1741705983877182
2024-12-07 16:10:02.252069400,1.8160693359375,-0.1524658650159835,0.9759146571159364,0.0537958145141601
2024-12-07 16:10:02.262098000,1.826097900390625,-0.1620532274246215,1.0078725814819336,-0.1102547869086265
2024-12-07 16:10:02.272126500,1.83612646484375,-0.1439437568187713,0.8065377473831177,-0.3051980435848236
2024-12-07 16:10:02.282155000,1.846155029296875,-0.1311605870723724,0.5391565561294556,-0.462857037782669
2024-12-07 16:10:02.292183300,1.856183349609375,-0.1173121556639671,0.2579269707202911,-0.5310339331626892
2024-12-07 16:10:02.302211800,1.8662119140625,-0.0715058222413063,0.0150468489155173,-0.5768402814865112
2024-12-07 16:10:02.312240400,1.876240478515625,-0.0118510583415627,-0.2257027328014373,-0.65353924036026
2024-12-07 16:10:02.322269000,1.88626904296875,-0.0086552668362855,-0.4526038765907287,-0.750478208065033
2024-12-07 16:10:02.332297500,1.89629736328125,-0.047004759311676,-0.5474123358726501,-0.7984151244163513
2024-12-07 16:10:02.342325800,1.90632568359375,-0.0864195153117179,-0.4366249442100525,-0.7281076908111572
2024-12-07 16:10:02.352354300,1.916354248046875,-0.0768321380019187,-0.1777658760547638,-0.5640571117401123
2024-12-07 16:10:02.362382800,1.9263828125,0.0201068520545959,0.1354216337203979,-0.3691138625144958
2024-12-07 16:10:02.372411400,1.936411376953125,0.1703090220689773,0.4017375409603119,-0.1933453530073166
2024-12-07 16:10:02.382440000,1.94643994140625,0.2821617126464844,0.5657881498336792,-0.061252661049366
2024-12-07 16:10:02.392468200,1.95646826171875,0.3343596160411834,0.5934849977493286,0.0015978955198079
2024-12-07 16:10:02.402496800,1.966496826171875,0.3503385782241821,0.4656533598899841,-0.0047936863265931
2024-12-07 16:10:02.412525300,1.976525390625,0.319445937871933,0.2515353858470917,-0.0665789768099784
2024-12-07 16:10:02.422553900,1.986553955078125,0.2352901101112365,0.0533963404595851,-0.1272990107536316
2024-12-07 16:10:02.432582100,1.99658203125,0.1213068962097168,-0.1245026886463165,-0.1613874435424804
2024-12-07 16:10:02.442610700,2.006610595703125,-0.0043942127376794,-0.2832269668579101,-0.2082590460777282
2024-12-07 16:10:02.452639200,2.01663916015625,-0.1066595241427421,-0.4057323038578033,-0.2572611570358276
2024-12-07 16:10:02.462667800,2.026667724609375,-0.1854890286922454,-0.4941491782665252,-0.3158506751060486
2024-12-07 16:10:02.472696300,2.0366962890625,-0.2142511457204818,-0.5175849795341492,-0.3723096549510956
2024-12-07 16:10:02.482724600,2.046724609375,-0.1865542978048324,-0.4568649530410766,-0.4213117659091949
2024-12-07 16:10:02.492753200,2.056753173828125,-0.0992026776075363,-0.317315399646759,-0.4585959911346435
2024-12-07 16:10:02.502781700,2.06678173828125,0.0328900143504142,-0.1607216447591781,-0.4809665381908417
2024-12-07 16:10:02.512810200,2.076810302734375,0.1681784987449646,-0.063782662153244,-0.4820317924022674
2024-12-07 16:10:02.522838800,2.0868388671875,0.2800311744213104,0.0246342215687036,-0.4820317924022674
2024-12-07 16:10:02.532867000,2.0968671875,0.363121747970581,0.113051101565361,-0.4937497079372406
2024-12-07 16:10:02.542895600,2.1068955078125,0.4099933505058288,0.1247690021991729,-0.4969455003738403
2024-12-07 16:10:02.552924200,2.116924072265625,0.3854922652244568,0.101333200931549,-0.4639223217964172
2024-12-07 16:10:02.562952700,2.12695263671875,0.3375554084777832,0.047004759311676,-0.4170507192611694
2024-12-07 16:10:02.572981000,2.13698095703125,0.3055975139141083,-0.0328900143504142,-0.3914843797683716
2024-12-07 16:10:02.583009500,2.147009521484375,0.2757701277732849,-0.0861531943082809,-0.3957454562187195
2024-12-07 16:10:02.593038000,2.1570380859375,0.2267680019140243,-0.1042626798152923,-0.4117243885993957
2024-12-07 16:10:02.603066600,2.167066650390625,0.1980058848857879,-0.0776310861110687,-0.4117243885993957
2024-12-07 16:10:02.613095200,2.17709521484375,0.1692437678575515,-0.0254331696778535,-0.4074633419513702
2024-12-07 16:10:02.623123500,2.18712353515625,0.1202416345477104,0.0086552668362855,-0.4032022953033447
2024-12-07 16:10:02.633152000,2.197152099609375,0.0403468608856201,0.0065247397869825,-0.3840275406837463
2024-12-07 16:10:02.643180500,2.2071806640625,-0.0384826473891735,-0.0147805325686931,-0.332894891500473
2024-12-07 16:10:02.653209000,2.217208984375,-0.1055942550301551,-0.0733700320124626,-0.276435911655426
2024-12-07 16:10:02.663237600,2.227237548828125,-0.1929458826780319,-0.1543300747871399,-0.2434127479791641
2024-12-07 16:10:02.673266000,2.237265869140625,-0.2451438009738922,-0.2374206334352493,-0.2295643091201782
2024-12-07 16:10:02.683294500,2.24729443359375,-0.2653838098049164,-0.3226417303085327,-0.2348906397819519
2024-12-07 16:10:02.693323000,2.257322998046875,-0.2568616867065429,-0.4163849353790283,-0.2583264410495758
2024-12-07 16:10:02.703351600,2.2673515625,-0.29201540350914,-0.4249070286750793,-0.276435911655426
2024-12-07 16:10:02.713379800,2.2773798828125,-0.281362771987915,-0.3641870021820068,-0.2561959028244018
2024-12-07 16:10:02.723408400,2.287408447265625,-0.2398174703121185,-0.3077280223369598,-0.2498043179512024
2024-12-07 16:10:02.733437000,2.29743701171875,-0.2174469381570816,-0.241681694984436,-0.265783280134201
2024-12-07 16:10:02.743465500,2.307465576171875,-0.1854890286922454,-0.1490037590265274,-0.2881538271903991
2024-12-07 16:10:02.753494000,2.317493896484375,-0.1524658650159835,-0.0573910772800445,-0.311589628458023
2024-12-07 16:10:02.763522300,2.327522216796875,-0.1322258561849594,0.0267647486180067,-0.3265033066272735
2024-12-07 16:10:02.773550800,2.33755078125,-0.1290300637483596,0.1066595241427421,-0.3233075141906738
2024-12-07 16:10:02.783579400,2.347579345703125,-0.1279647946357727,0.1822932362556457,-0.2945453822612762
2024-12-07 16:10:02.793608000,2.35760791015625,-0.1226384788751602,0.2099900990724563,-0.2668485343456268
2024-12-07 16:10:02.803636500,2.367636474609375,-0.1066595241427421,0.1641837656497955,-0.2785664498806
2024-12-07 16:10:02.813664800,2.377664794921875,-0.0928110927343368,0.0672447681427002,-0.3243727684020996
2024-12-07 16:10:02.823693300,2.387693359375,-0.0949416235089302,-0.0318247526884079,-0.3755054473876953
2024-12-07 16:10:02.833721900,2.397721923828125,-0.1194426864385604,-0.0818921402096748,-0.4053328037261963
2024-12-07 16:10:02.843750400,2.40775048828125,-0.1588574349880218,-0.0616521313786506,-0.4042675495147705
2024-12-07 16:10:02.853779000,2.417779052734375,-0.1876195520162582,0.0256994850933551,-0.387223333120346
2024-12-07 16:10:02.863807200,2.42780712890625,-0.1982721984386444,0.168444812297821,-0.3755054473876953
2024-12-07 16:10:02.873835800,2.437835693359375,-0.1982721984386444,0.3282343447208404,-0.3850927948951721
2024-12-07 16:10:02.883864300,2.4478642578125,-0.1950764060020446,0.480567067861557,-0.3989412188529968
2024-12-07 16:10:02.893892900,2.457892822265625,-0.2099900990724563,0.6403566002845764,-0.4181159734725952
2024-12-07 16:10:02.903921200,2.467921142578125,-0.2067943066358566,0.7777756452560425,-0.4266380965709686
2024-12-07 16:10:02.913949700,2.47794970703125,-0.1908153444528579,0.8416914343833923,-0.4426170289516449
2024-12-07 16:10:02.923978200,2.487978271484375,-0.180162712931633,0.8576703667640686,-0.456465482711792
2024-12-07 16:10:02.934006800,2.4980068359375,-0.1780321896076202,0.8257125020027161,-0.4596612751483917
2024-12-07 16:10:02.944035300,2.508035400390625,-0.1833585053682327,0.7820366621017456,-0.4490086138248443
2024-12-07 16:10:02.954063600,2.518063720703125,-0.2025332450866699,0.704272449016571,-0.4170507192611694
2024-12-07 16:10:02.964092200,2.528092041015625,-0.224903792142868,0.6179860830307007,-0.3605917394161224
2024-12-07 16:10:02.974120700,2.53812060546875,-0.2408827394247055,0.5135902166366577,-0.3009369671344757
2024-12-07 16:10:02.984149200,2.548149169921875,-0.224903792142868,0.3410175144672394,-0.2530001103878021
2024-12-07 16:10:02.994177800,2.558177734375,-0.223838523030281,0.1908153444528579,-0.2157158851623535
2024-12-07 16:10:03.004206000,2.5682060546875,-0.1908153444528579,0.1045289933681488,-0.2157158851623535
2024-12-07 16:10:03.014234600,2.578234619140625,-0.1407479643821716,0.0693752914667129,-0.2284990549087524
2024-12-07 16:10:03.024263200,2.58826318359375,-0.1066595241427421,0.035286858677864,-0.1763011366128921
2024-12-07 16:10:03.034291700,2.598291748046875,-0.0960068851709365,-0.0435426495969295,-0.0708400309085846
2024-12-07 16:10:03.044320000,2.608320068359375,-0.0597879216074943,-0.1340900659561157,0.087884247303009
2024-12-07 16:10:03.054348500,2.6183486328125,-0.0043942127376794,-0.1894837766885757,0.1901495605707168
2024-12-07 16:10:03.064377000,2.628377197265625,0.052064761519432,-0.2150501012802124,0.2284990549087524
2024-12-07 16:10:03.074405600,2.638405517578125,0.0701742395758628,-0.2193111479282379,0.2380864173173904
2024-12-07 16:10:03.084434200,2.64843408203125,0.0446079149842262,-0.1798963993787765,0.2924148738384247
2024-12-07 16:10:03.094462500,2.65846240234375,0.0307594873011112,-0.140481635928154,0.3946801722049713
2024-12-07 16:10:03.104491000,2.668490966796875,0.0254331696778535,-0.0765658244490623,0.4969455003738403
2024-12-07 16:10:03.114519600,2.67851953125,0.0201068520545959,-0.0179763231426477,0.5789707899093628
2024-12-07 16:10:03.124548000,2.688548095703125,0.0126500055193901,0.021438430994749,0.6609960794448853
2024-12-07 16:10:03.134576600,2.69857666015625,0.0147805325686931,0.0374173857271671,0.7739140391349792
2024-12-07 16:10:03.144605000,2.70860498046875,0.0211721155792474,0.0150468489155173,0.9134635925292968
2024-12-07 16:10:03.154633500,2.718633544921875,0.0328900143504142,-0.038216333836317,1.0615352392196655
2024-12-07 16:10:03.164662000,2.728662109375,0.0573910772800445,-0.0989363640546798,1.197888970375061
2024-12-07 16:10:03.174690600,2.738690673828125,0.0968058332800865,-0.1521995365619659,1.3225247859954834
2024-12-07 16:10:03.184719000,2.748718994140625,0.1532648056745529,-0.1937448233366012,1.4471606016159058
2024-12-07 16:10:03.194747400,2.758747314453125,0.2161153554916381,-0.2182458937168121,1.5717965364456177
2024-12-07 16:10:03.204776000,2.76877587890625,0.298140674829483,-0.2310290485620498,1.6900407075881958
2024-12-07 16:10:03.214804500,2.778804443359375,0.3812312185764313,-0.2491385340690612,1.7859145402908323
2024-12-07 16:10:03.224833000,2.7888330078125,0.4611259996891022,-0.2597911655902862,1.8466345071792605
2024-12-07 16:10:03.234861300,2.798861328125,0.5218459963798523,-0.2288985252380371,1.855156660079956
2024-12-07 16:10:03.244889900,2.808889892578125,0.5367597341537476,-0.130894273519516,1.7944365739822388
2024-12-07 16:10:03.254918400,2.81891845703125,0.5165197253227234,0.0672447681427002,1.7049545049667358
2024-12-07 16:10:03.264947000,2.828947021484375,0.4994754791259765,0.2877543270587921,1.6154723167419434
2024-12-07 16:10:03.274975500,2.8389755859375,0.4771049618721008,0.4613923132419586,1.5387732982635498
2024-12-07 16:10:03.285003800,2.849003662109375,0.4174501895904541,0.5775060653686523,1.4748575687408447
2024-12-07 16:10:03.295032300,2.8590322265625,0.3226417303085327,0.6254429221153259,1.427985906600952
2024-12-07 16:10:03.305060900,2.869060791015625,0.2043974548578262,0.537026047706604,1.3651353120803833
2024-12-07 16:10:03.315089400,2.87908935546875,0.1127847880125045,0.2739059031009674,1.2671310901641846
2024-12-07 16:10:03.325118000,2.889117919921875,0.0989363640546798,-0.1053279414772987,1.1584742069244385
2024-12-07 16:10:03.335146200,2.899146240234375,0.0978710949420929,-0.3876228034496307,1.076448917388916
2024-12-07 16:10:03.345174800,2.9091748046875,0.0850879326462745,-0.4866923391819,1.034903645515442
2024-12-07 16:10:03.355203300,2.919203369140625,0.1127847880125045,-0.4206459820270538,1.009337306022644
2024-12-07 16:10:03.365231900,2.92923193359375,0.1937448233366012,-0.2864227592945099,0.9614004492759703
2024-12-07 16:10:03.375260200,2.93926025390625,0.3215764760971069,-0.1521995365619659,0.89641934633255
2024-12-07 16:10:03.385288700,2.949288818359375,0.4792354702949524,-0.0733700320124626,0.8570045828819275
2024-12-07 16:10:03.395317200,2.959317138671875,0.6219807863235474,-0.0946753025054931,0.8463519811630249
2024-12-07 16:10:03.405345800,2.969345703125,0.7295724153518677,-0.1980058848857879,0.842090904712677
2024-12-07 16:10:03.415374300,2.979374267578125,0.7924230098724365,-0.3524691164493561,0.7973498106002808
2024-12-07 16:10:03.425402600,2.989402587890625,0.7998798489570618,-0.5527386665344238,0.7089329361915588
2024-12-07 16:10:03.435431200,2.99943115234375,0.7689871788024902,-0.7828356027603149,0.6141244769096375
2024-12-07 16:10:03.445459700,3.009459716796875,0.6933534741401672,-0.9436904191970824,0.5438171029090881
2024-12-07 16:10:03.455488300,3.01948828125,0.6060018539428711,-1.038498878479004,0.5118591785430908
2024-12-07 16:10:03.465516800,3.029516845703125,0.5410207509994507,-1.0566083192825315,0.5001412630081177
2024-12-07 16:10:03.475545000,3.039545166015625,0.495214432477951,-1.0267809629440308,0.4830970466136932
2024-12-07 16:10:03.485573600,3.04957373046875,0.4675175845623016,-1.0065410137176514,0.454334944486618
2024-12-07 16:10:03.495602200,3.059602294921875,0.3961449265480041,-0.9341030716896056,0.387223333120346
2024-12-07 16:10:03.505630700,3.069630615234375,0.3258375227451324,-0.8542082905769348,0.2860232889652252
2024-12-07 16:10:03.515659000,3.079658935546875,0.306662768125534,-0.7966840267181396,0.1603221744298935
2024-12-07 16:10:03.525687600,3.0896875,0.3375554084777832,-0.7764440178871155,0.0292947497218847
2024-12-07 16:10:03.535716000,3.099716064453125,0.3141196072101593,-0.6997450590133667,-0.0868189856410026
2024-12-07 16:10:03.545744600,3.10974462890625,0.2938795983791351,-0.6123934388160706,-0.1518000662326812
2024-12-07 16:10:03.555773200,3.119773193359375,0.3151848912239074,-0.4664523303508758,-0.1677790284156799
2024-12-07 16:10:03.565801500,3.129801513671875,0.3450122475624084,-0.2864227592945099,-0.132625326514244
2024-12-07 16:10:03.575830000,3.139830078125,0.363121747970581,-0.1063932031393051,-0.0655137151479721
2024-12-07 16:10:03.585858600,3.149858642578125,0.3791007101535797,0.062983714044094,0.0090547408908605
2024-12-07 16:10:03.595887000,3.15988720703125,0.3865575492382049,0.1748363971710205,0.0729705616831779
2024-12-07 16:10:03.605915600,3.16991552734375,0.3748396337032318,0.224903792142868,0.1102547869086265
2024-12-07 16:10:03.615944000,3.17994384765625,0.373774379491806,0.1972069293260574,0.1272990107536316
2024-12-07 16:10:03.625972500,3.189972412109375,0.3396859467029571,0.180162712931633,0.1187768951058387
2024-12-07 16:10:03.636001000,3.2000009765625,0.2693785429000854,0.2185122072696685,0.0910800397396087
2024-12-07 16:10:03.646029600,3.210029541015625,0.2278332561254501,0.2142511457204818,0.0740358233451843
2024-12-07 16:10:03.656058000,3.22005810546875,0.1809616535902023,0.2142511457204818,0.0559263415634632
2024-12-07 16:10:03.666086400,3.23008642578125,0.1010668873786926,0.2259690463542938,0.0271642226725816
2024-12-07 16:10:03.676115000,3.240114990234375,0.0179763231426477,0.2834932804107666,-0.0005326318205334
2024-12-07 16:10:03.686143500,3.2501435546875,-0.074701614677906,0.348474383354187,-0.0271642226725816
2024-12-07 16:10:03.696172000,3.260172119140625,-0.1769669204950332,0.3846933245658874,-0.0580568686127662
2024-12-07 16:10:03.706200600,3.27020068359375,-0.2621880173683166,0.40280282497406,-0.0900147780776023
2024-12-07 16:10:03.716229000,3.28022900390625,-0.3261038362979889,0.3740406930446625,-0.1230379492044448
2024-12-07 16:10:03.726257700,3.290257568359375,-0.367649108171463,0.2834932804107666,-0.1518000662326812
2024-12-07 16:10:03.736286200,3.3002861328125,-0.3964112401008606,0.1471395343542099,-0.1784316599369049
2024-12-07 16:10:03.746314800,3.310314697265625,-0.40280282497406,-0.0094542149454355,-0.2061285078525543
2024-12-07 16:10:03.756343300,3.32034326171875,-0.3846933245658874,-0.1521995365619659,-0.2380864173173904
2024-12-07 16:10:03.766371800,3.330371826171875,-0.3559312224388122,-0.2480732649564743,-0.2711096107959747
2024-12-07 16:10:03.776400400,3.340400390625,-0.311190128326416,-0.3332943618297577,-0.3169159293174743
2024-12-07 16:10:03.786429000,3.350428955078125,-0.2504701018333435,-0.3620564937591553,-0.3531349003314972
2024-12-07 16:10:03.796457500,3.36045751953125,-0.169510081410408,-0.363121747970581,-0.3765707015991211
2024-12-07 16:10:03.806486000,3.370486083984375,-0.0885500386357307,-0.3492733240127563,-0.3850927948951721
2024-12-07 16:10:03.816514600,3.3805146484375,-0.0395479127764701,-0.3141196072101593,-0.3680485785007477
2024-12-07 16:10:03.826543000,3.390543212890625,0.0019973693415522,-0.2864227592945099,-0.3563306927680969
2024-12-07 16:10:03.836571600,3.400571533203125,0.0723047703504562,-0.2960101366043091,-0.3669833242893219
2024-12-07 16:10:03.846600200,3.41060009765625,0.1170458421111106,-0.3332943618297577,-0.3605917394161224
2024-12-07 16:10:03.856628700,3.420628662109375,0.1447426974773407,-0.4217112362384796,-0.3243727684020996
2024-12-07 16:10:03.866657300,3.4306572265625,0.1521995365619659,-0.5165197253227234,-0.287088543176651
2024-12-07 16:10:03.876685800,3.440685791015625,0.1511342823505401,-0.6006755232810974,-0.2636527419090271
2024-12-07 16:10:03.886714400,3.45071435546875,0.1436774283647537,-0.6901576519012451,-0.2519348561763763
2024-12-07 16:10:03.896743000,3.460742919921875,0.1245026886463165,-0.7966840267181396,-0.2647180259227752
2024-12-07 16:10:03.906771500,3.470771484375,0.0872184634208679,-0.8787093162536621,-0.3105243444442749
2024-12-07 16:10:03.916800000,3.480800048828125,0.0350205413997173,-0.9234504103660583,-0.38935387134552
2024-12-07 16:10:03.926828500,3.49082861328125,-0.0203731674700975,-0.9511472582817078,-0.4799012839794159
2024-12-07 16:10:03.936857000,3.500857177734375,-0.0778974071145057,-0.9351683259010316,-0.5661876201629639
2024-12-07 16:10:03.946885600,3.5108857421875,-0.1300953179597854,-0.828641951084137,-0.6290381550788879
2024-12-07 16:10:03.956914200,3.5209140625,-0.1780321896076202,-0.6262418627738953,-0.6599308252334595
2024-12-07 16:10:03.966942700,3.530942626953125,-0.2302301079034805,-0.373774379491806,-0.6695181727409363
2024-12-07 16:10:03.976971300,3.54097119140625,-0.2866890728473663,-0.1383511126041412,-0.6684529185295105
2024-12-07 16:10:03.986999800,3.550999755859375,-0.3154512047767639,0.0011984215816482,-0.6418213248252869
2024-12-07 16:10:03.997028400,3.5610283203125,-0.2834932804107666,-0.010519478470087,-0.5736444592475891
2024-12-07 16:10:04.007057000,3.571056884765625,-0.1886848211288452,-0.1660479754209518,-0.4340949356555938
2024-12-07 16:10:04.017085400,3.58108544921875,-0.0725710839033126,-0.3886880576610565,-0.2316948473453521
2024-12-07 16:10:04.027114000,3.591114013671875,-0.0086552668362855,-0.6028060913085938,-0.0633831843733787
2024-12-07 16:10:04.037142500,3.601142578125,0.0584563426673412,-0.6805703043937683,0.0474042333662509
2024-12-07 16:10:04.047171000,3.611171142578125,0.1340900659561157,-0.5985450148582458,0.115581102669239
2024-12-07 16:10:04.057199900,3.621199951171875,0.1767006069421768,-0.4142543971538543,0.1272990107536316
2024-12-07 16:10:04.067228400,3.631228515625,0.1553953289985656,-0.1596563905477523,0.0474042333662509
2024-12-07 16:10:04.077257000,3.641257080078125,0.1138500496745109,0.1098553165793418,-0.0836231932044029
2024-12-07 16:10:04.087285500,3.651285400390625,0.0552605502307415,0.3079943358898163,-0.2178464084863662
2024-12-07 16:10:04.097314000,3.66131396484375,-0.0235689580440521,0.3974764943122864,-0.3605917394161224
2024-12-07 16:10:04.107342800,3.6713427734375,-0.1247690021991729,0.4368912577629089,-0.4852275848388672
2024-12-07 16:10:04.117371400,3.681371337890625,-0.2025332450866699,0.5050681233406067,-0.5811012983322144
2024-12-07 16:10:04.127400000,3.69139990234375,-0.2707101106643677,0.5423523783683777,-0.6567350625991821
2024-12-07 16:10:04.137428500,3.701428466796875,-0.3346259295940399,0.5796365737915039,-0.7057371735572815
2024-12-07 16:10:04.147457000,3.71145703125,-0.348474383354187,0.6552702784538269,-0.7227813601493835
2024-12-07 16:10:04.157485800,3.72148583984375,-0.3708449006080627,0.6936197876930237,-0.7483476996421814
2024-12-07 16:10:04.167514400,3.731514404296875,-0.4411523044109344,0.7170555591583252,-0.7781751155853271
2024-12-07 16:10:04.177543000,3.74154296875,-0.5071986317634583,0.7522093057632446,-0.7845667004585266
2024-12-07 16:10:04.187571500,3.751571533203125,-0.558331310749054,0.7607313990592957,-0.7632613778114319
2024-12-07 16:10:04.197600000,3.76160009765625,-0.604137659072876,0.7500787377357483,-0.7014760971069336
2024-12-07 16:10:04.207628500,3.771628662109375,-0.6169208288192749,0.7372955679893494,-0.5906887054443359
2024-12-07 16:10:04.217657300,3.7816572265625,-0.5785713195800781,0.6893587112426758,-0.4713791608810425
2024-12-07 16:10:04.227686000,3.791685791015625,-0.508263885974884,0.5817670822143555,-0.3904191255569458
2024-12-07 16:10:04.237714400,3.80171435546875,-0.413455456495285,0.4464786350727081,-0.3850927948951721
2024-12-07 16:10:04.247743000,3.811742919921875,-0.300537496805191,0.2930806577205658,-0.4596612751483917
2024-12-07 16:10:04.257771500,3.821771484375,-0.1929458826780319,0.1087900474667549,-0.5715139508247375
2024-12-07 16:10:04.267800300,3.83180029296875,-0.074701614677906,-0.0254331696778535,-0.6322339773178101
2024-12-07 16:10:04.277828900,3.841828857421875,0.0030626328662037,-0.0584563426673412,-0.5981455445289612
2024-12-07 16:10:04.287857400,3.851857421875,0.0030626328662037,-0.0456731803715229,-0.5278381109237671
2024-12-07 16:10:04.297886000,3.861885986328125,-0.0225036945194005,-0.0925447791814804,-0.4703139066696167
2024-12-07 16:10:04.307914500,3.87191455078125,-0.007590003311634,-0.2012016773223877,-0.4490086138248443
2024-12-07 16:10:04.317943300,3.881943359375,0.0264984332025051,-0.2619217038154602,-0.4362254738807678
2024-12-07 16:10:04.327971800,3.891971923828125,0.0456731803715229,-0.2139848321676254,-0.4308991432189941
2024-12-07 16:10:04.338000400,3.90200048828125,0.0786963477730751,-0.0712395086884498,-0.4468781054019928
2024-12-07 16:10:04.348029000,3.91202880859375,0.1394163817167282,0.1290300637483596,-0.4639223217964172
2024-12-07 16:10:04.358057500,3.922057373046875,0.1884185075759887,0.3154512047767639,-0.4735096991062164
2024-12-07 16:10:04.368086300,3.932086181640625,0.2171806246042251,0.4177165031433105,-0.4745749533176422
2024-12-07 16:10:04.378114800,3.94211474609375,0.2171806246042251,0.3825628161430359,-0.4617917835712433
2024-12-07 16:10:04.388143400,3.952143310546875,0.1990711390972137,0.2451438009738922,-0.4298338890075683
2024-12-07 16:10:04.398172000,3.962171875,0.1767006069421768,0.0576573945581913,-0.3829622864723205
2024-12-07 16:10:04.408200400,3.972200439453125,0.1532648056745529,-0.1394163817167282,-0.3307643532752991
2024-12-07 16:10:04.418229200,3.982229248046875,0.1340900659561157,-0.3109238147735595,-0.2806969583034515
2024-12-07 16:10:04.428257800,3.9922578125,0.1170458421111106,-0.4376901984214782,-0.2466085255146026
2024-12-07 16:10:04.438286300,4.002286376953125,0.1117195263504982,-0.4984102249145508,-0.2295643091201782
2024-12-07 16:10:04.448315000,4.01231494140625,0.1213068962097168,-0.4941491782665252,-0.2370211631059646
2024-12-07 16:10:04.458343400,4.022343505859375,0.1245026886463165,-0.4451470375061035,-0.2636527419090271
2024-12-07 16:10:04.468372200,4.032372314453125,0.1319595277309417,-0.3716438412666321,-0.2881538271903991
2024-12-07 16:10:04.478400800,4.04240087890625,0.1575258672237396,-0.2896185517311096,-0.2924148738384247
2024-12-07 16:10:04.488429300,4.05242919921875,0.1809616535902023,-0.2257027328014373,-0.2934801280498504
2024-12-07 16:10:04.498457900,4.062457763671875,0.2012016773223877,-0.2022669315338134,-0.2945453822612762
2024-12-07 16:10:04.508486400,4.072486328125,0.2150501012802124,-0.1980058848857879,-0.287088543176651
2024-12-07 16:10:04.518515200,4.08251513671875,0.2171806246042251,-0.1798963993787765,-0.2934801280498504
2024-12-07 16:10:04.528543700,4.092543701171875,0.2107890397310257,-0.184157446026802,-0.3126548826694488
2024-12-07 16:10:04.538572300,4.102572265625,0.1884185075759887,-0.2161153554916381,-0.332894891500473
2024-12-07 16:10:04.548600800,4.112600830078125,0.1532648056745529,-0.2427469491958618,-0.3499391078948974
2024-12-07 16:10:04.558629400,4.12262939453125,0.091479517519474,-0.3226417303085327,-0.3573959469795227
2024-12-07 16:10:04.568658000,4.132657958984375,0.0275636967271566,-0.440885990858078,-0.3531349003314972
2024-12-07 16:10:04.578686700,4.142686767578125,-0.0438089668750762,-0.4994754791259765,-0.3478085696697235
2024-12-07 16:10:04.588715300,4.15271533203125,-0.1119858399033546,-0.5026713013648987,-0.3403517305850982
2024-12-07 16:10:04.598743800,4.162743896484375,-0.1588574349880218,-0.4419512450695038,-0.3233075141906738
2024-12-07 16:10:04.608772400,4.1727724609375,-0.1812279820442199,-0.3524691164493561,-0.3051980435848236
2024-12-07 16:10:04.618801000,4.18280078125,-0.1908153444528579,-0.2619217038154602,-0.3041327595710754
2024-12-07 16:10:04.628829700,4.19282958984375,-0.1940111368894577,-0.1894837766885757,-0.3169159293174743
2024-12-07 16:10:04.638858200,4.202858154296875,-0.2057290375232696,-0.1394163817167282,-0.332894891500473
2024-12-07 16:10:04.648886800,4.21288671875,-0.2142511457204818,-0.1159805804491043,-0.341416984796524
2024-12-07 16:10:04.658915300,4.222915283203125,-0.2131858915090561,-0.1330247968435287,-0.335025429725647
2024-12-07 16:10:04.668944000,4.23294384765625,-0.2131858915090561,-0.1575258672237396,-0.3339601457118988
2024-12-07 16:10:04.678972700,4.24297265625,-0.2089248299598693,-0.1788311302661895,-0.3424822688102722
2024-12-07 16:10:04.689001200,4.253001220703125,-0.2067943066358566,-0.1873532384634018,-0.3510043621063232
2024-12-07 16:10:04.699029800,4.26302978515625,-0.2046637833118438,-0.184157446026802,-0.3510043621063232
2024-12-07 16:10:04.709058300,4.273058349609375,-0.1993374526500702,-0.1649827063083648,-0.3424822688102722
2024-12-07 16:10:04.719086800,4.2830869140625,-0.1961416751146316,-0.128763735294342,-0.3339601457118988
2024-12-07 16:10:04.729115600,4.29311572265625,-0.1993374526500702,-0.090414248406887,-0.3307643532752991
2024-12-07 16:10:04.739144200,4.303144287109375,-0.2035985141992569,-0.0531300231814384,-0.3233075141906738
2024-12-07 16:10:04.749172700,4.3131728515625,-0.2046637833118438,0.0001331579551333,-0.3190464675426483
2024-12-07 16:10:04.759201300,4.323201171875,-0.1940111368894577,0.0725710839033126,-0.3286338448524475
2024-12-07 16:10:04.769229800,4.333229736328125,-0.1769669204950332,0.1482048034667968,-0.3510043621063232
2024-12-07 16:10:04.779258600,4.343258544921875,-0.1609879732131958,0.2099900990724563,-0.3850927948951721
2024-12-07 16:10:04.789287200,4.353287109375,-0.1450090110301971,0.2664490640163421,-0.4159854650497436
2024-12-07 16:10:04.799315700,4.363315673828125,-0.1396826952695846,0.2984069883823395,-0.4415517747402191
2024-12-07 16:10:04.809344300,4.37334423828125,-0.1492700725793838,0.2984069883823395,-0.464987576007843
2024-12-07 16:10:04.819372800,4.383372802734375,-0.1759016513824463,0.2824280261993408,-0.4852275848388672
2024-12-07 16:10:04.829401600,4.393401611328125,-0.223838523030281,0.2739059031009674,-0.5033370852470398
2024-12-07 16:10:04.839430100,4.40343017578125,-0.2856238186359405,0.2888196110725403,-0.5139896869659424
2024-12-07 16:10:04.849458700,4.413458740234375,-0.3580617308616638,0.3324954211711883,-0.5278381109237671
2024-12-07 16:10:04.859487200,4.4234873046875,-0.3580617308616638,0.5274386405944824,-0.4980107545852661
2024-12-07 16:10:04.869515800,4.433515869140625,-0.3016027808189392,0.746882975101471,-0.4767054915428161
2024-12-07 16:10:04.879544300,4.44354443359375,-0.234491154551506,0.9024114608764648,-0.4905539155006408
2024-12-07 16:10:04.889573000,4.453572998046875,-0.1545963883399963,0.90986829996109,-0.4916191697120666
2024-12-07 16:10:04.899601700,4.4636015625,-0.0842889845371246,0.8342345952987671,-0.4745749533176422
2024-12-07 16:10:04.909630200,4.473630126953125,-0.0661795064806938,0.8352998495101929,-0.4767054915428161
2024-12-07 16:10:04.919658800,4.48365869140625,-0.019307903945446,0.7543398141860962,-0.4426170289516449
2024-12-07 16:10:04.929687300,4.493687255859375,0.0605868697166442,0.5679186582565308,-0.3925496637821197
2024-12-07 16:10:04.939716000,4.503716064453125,0.1479384899139404,0.4049333333969116,-0.3243727684020996
2024-12-07 16:10:04.949744600,4.51374462890625,0.2267680019140243,0.2472743242979049,-0.2743053734302521
2024-12-07 16:10:04.959773200,4.523773193359375,0.2533995807170868,0.1737711280584335,-0.2316948473453521
2024-12-07 16:10:04.969801700,4.5338017578125,0.2459427416324615,0.1854890286922454,-0.1976063996553421
2024-12-07 16:10:04.979830300,4.543830322265625,0.2352901101112365,0.1993374526500702,-0.1784316599369049
2024-12-07 16:10:04.989859000,4.553859130859375,0.2182458937168121,0.1609879732131958,-0.1869537681341171
2024-12-07 16:10:04.999887600,4.5638876953125,0.2182458937168121,0.0970721468329429,-0.1954758763313293
2024-12-07 16:10:05.009916200,4.573916259765625,0.1809616535902023,0.1055942550301551,-0.2071937769651413
2024-12-07 16:10:05.019944700,4.58394482421875,0.1330247968435287,0.1972069293260574,-0.1688442826271057
2024-12-07 16:10:05.029973200,4.59397314453125,0.0755005627870559,0.3037332892417907,-0.0644484534859657
2024-12-07 16:10:05.040002000,4.604001953125,-0.0107857948169112,0.3985417485237121,0.0644484534859657
2024-12-07 16:10:05.050030600,4.614030517578125,-0.1237037405371666,0.4731102287769317,0.1890842914581298
2024-12-07 16:10:05.060059100,4.62405908203125,-0.2259690463542938,0.515720784664154,0.3233075141906738
2024-12-07 16:10:05.070087700,4.634087646484375,-0.300537496805191,0.575375497341156,0.4447475671768188
2024-12-07 16:10:05.080116200,4.6441162109375,-0.346343845129013,0.6542050242424011,0.5352949500083923
2024-12-07 16:10:05.090145000,4.65414501953125,-0.3687143921852112,0.6946850419044495,0.6141244769096375
2024-12-07 16:10:05.100173600,4.664173583984375,-0.3708449006080627,0.68829345703125,0.690823495388031
2024-12-07 16:10:05.110202000,4.6742021484375,-0.359127014875412,0.649944007396698,0.7675224542617798
2024-12-07 16:10:05.120230700,4.684230712890625,-0.3250385820865631,0.5881586670875549,0.8410256505012512
2024-12-07 16:10:05.130259200,4.69425927734375,-0.2824280261993408,0.5316997170448303,0.9134635925292968
2024-12-07 16:10:05.140288000,4.7042880859375,-0.2280995845794677,0.4858933687210083,0.9986846446990968
2024-12-07 16:10:05.150316500,4.714316650390625,-0.1663142889738083,0.4475438892841339,1.0945583581924438
2024-12-07 16:10:05.160345000,4.724344970703125,-0.102398470044136,0.4358259737491607,1.1872363090515137
2024-12-07 16:10:05.170373600,4.73437353515625,-0.0384826473891735,0.4624575674533844,1.2799142599105835
2024-12-07 16:10:05.180402200,4.744402099609375,0.0158457960933446,0.489089161157608,1.3885711431503296
2024-12-07 16:10:05.190431000,4.754430908203125,0.0616521313786506,0.5306344628334045,1.5110764503479004
2024-12-07 16:10:05.200459500,4.76445947265625,0.0978710949420929,0.6020070910453796,1.6271902322769165
2024-12-07 16:10:05.210488000,4.774488037109375,0.128763735294342,0.6914892792701721,1.721998691558838
2024-12-07 16:10:05.220516600,4.7845166015625,0.1543300747871399,0.7767103314399719,1.7965670824050903
2024-12-07 16:10:05.230545200,4.794545166015625,0.1735048145055771,0.8651272058486938,1.847699761390686
2024-12-07 16:10:05.240573700,4.80457373046875,0.1809616535902023,0.9855020046234132,1.8636786937713623
2024-12-07 16:10:05.250602500,4.8146025390625,0.1905490309000015,1.0888326168060305,1.842373490333557
2024-12-07 16:10:05.260631000,4.824631103515625,0.2012016773223877,1.1207904815673828,1.797632336616516
2024-12-07 16:10:05.270659600,4.83465966796875,0.2257027328014373,1.015329360961914,1.7369123697280884
2024-12-07 16:10:05.280688000,4.844688232421875,0.2427469491958618,0.8885630369186401,1.647430181503296
2024-12-07 16:10:05.290716700,4.854716552734375,0.2374206334352493,0.8779103755950928,1.5366427898406982
2024-12-07 16:10:05.300745500,4.864745361328125,0.2278332561254501,0.792689323425293,1.337438464164734
2024-12-07 16:10:05.310774000,4.87477392578125,0.2374206334352493,0.4741754829883575,1.0849710702896118
2024-12-07 16:10:05.320802600,4.884802490234375,0.3045322299003601,0.1727058738470077,0.9060067534446716
2024-12-07 16:10:05.330831000,4.8948310546875,0.4206459820270538,0.1482048034667968,0.833568811416626
2024-12-07 16:10:05.340859600,4.904859619140625,0.551673412322998,0.2110553532838821,0.7344992756843567
2024-12-07 16:10:05.350888400,4.914888427734375,0.7306377291679382,0.246209055185318,0.6034718751907349
2024-12-07 16:10:05.360917000,4.9249169921875,0.9617999196052552,0.2877543270587921,0.4617917835712433
2024-12-07 16:10:05.370945500,4.934945556640625,1.1759178638458252,0.3165164589881897,0.3243727684020996
2024-12-07 16:10:05.380974300,4.944974365234375,1.2899011373519895,0.2398174703121185,0.211454838514328
2024-12-07 16:10:05.391003000,4.9550029296875,1.313336968421936,0.0374173857271671,0.1624527126550674
2024-12-07 16:10:05.401031700,4.96503173828125,1.251551628112793,-0.1713742911815643,0.1858884990215301
2024-12-07 16:10:05.411060200,4.975060302734375,1.179113745689392,-0.3993407189846039,0.2530001103878021
2024-12-07 16:10:05.421088800,4.9850888671875,1.1258505582809448,-0.5761744976043701,0.3371559381484985
2024-12-07 16:10:05.431117600,4.99511767578125,1.0938925743103027,-0.7253113985061646,0.4149201810359955
2024-12-07 16:10:05.441146000,5.00514599609375,1.038498878479004,-0.7785745859146118,0.4415517747402191
2024-12-07 16:10:05.451175000,5.0151748046875,0.9820399284362792,-0.7476819157600403,0.4255728125572204
2024-12-07 16:10:05.461203500,5.025203369140625,0.9703220129013062,-0.7221155762672424,0.3861580789089203
2024-12-07 16:10:05.471232000,5.03523193359375,0.9341030716896056,-0.6827008128166199,0.3318296372890472
2024-12-07 16:10:05.481260800,5.0452607421875,0.8403598666191101,-0.7093324065208435,0.2775011658668518
2024-12-07 16:10:05.491289300,5.055289306640625,0.731702983379364,-0.8318377733230591,0.2508696019649505
2024-12-07 16:10:05.501318100,5.065318115234375,0.6283723711967468,-0.9671262502670288,0.2498043179512024
2024-12-07 16:10:05.511346700,5.0753466796875,0.514389157295227,-0.9266462326049804,0.2359558939933776
2024-12-07 16:10:05.521375200,5.085375244140625,0.4462123215198517,-0.8669914603233337,0.1944106072187423
2024-12-07 16:10:05.531404000,5.095404052734375,0.3801659643650055,-0.7487471699714661,0.1283642649650573
2024-12-07 16:10:05.541432600,5.1054326171875,0.2917490899562835,-0.5910881757736206,0.0782968774437904
2024-12-07 16:10:05.551461400,5.11546142578125,0.1990711390972137,-0.4707133769989013,0.0665789768099784
2024-12-07 16:10:05.561490000,5.125489990234375,0.1223721578717231,-0.4238417744636535,0.0697747692465782
2024-12-07 16:10:05.571518500,5.1355185546875,0.074435293674469,-0.4270375669002533,0.0697747692465782
2024-12-07 16:10:05.581547300,5.14554736328125,0.0371510684490203,-0.438755452632904,0.0740358233451843
2024-12-07 16:10:05.591575800,5.155575927734375,-0.0097205303609371,-0.4462123215198517,0.0793621391057968
2024-12-07 16:10:05.601604600,5.1656044921875,-0.0768321380019187,-0.4185154438018799,0.088949516415596
2024-12-07 16:10:05.611633200,5.175633056640625,-0.157792180776596,-0.3450122475624084,0.0985368862748146
2024-12-07 16:10:05.621661700,5.18566162109375,-0.235556423664093,-0.240616425871849,0.1006674170494079
2024-12-07 16:10:05.631690500,5.1956904296875,-0.3101248741149902,-0.1330247968435287,0.1006674170494079
2024-12-07 16:10:05.641719000,5.205718994140625,-0.3687143921852112,-0.0509994961321353,0.1027979403734207
2024-12-07 16:10:05.651747800,5.215747802734375,-0.4145207107067108,0.0033289489801973,0.1113200485706329
2024-12-07 16:10:05.661776400,5.2257763671875,-0.4454133510589599,0.0246342215687036,0.1251684725284576
2024-12-07 16:10:05.671805000,5.235804931640625,-0.4613923132419586,0.019307903945446,0.1272990107536316
2024-12-07 16:10:05.681833700,5.245833740234375,-0.4624575674533844,0.0107857948169112,0.1123853176832199
2024-12-07 16:10:05.691862300,5.2558623046875,-0.4550007283687591,0.0171773768961429,0.0814926698803901
2024-12-07 16:10:05.701891000,5.26589111328125,-0.4177165031433105,-0.0019973693415522,0.0367515943944454
2024-12-07 16:10:05.711919600,5.275919677734375,-0.359127014875412,-0.0318247526884079,0.0026631590444594
2024-12-07 16:10:05.721948200,5.2859482421875,-0.2707101106643677,-0.107458472251892,-0.0186421144753694
2024-12-07 16:10:05.731977000,5.29597705078125,-0.1599227041006088,-0.2054627239704132,-0.0314252786338329
2024-12-07 16:10:05.742005500,5.306005615234375,-0.0118510583415627,-0.3226417303085327,-0.0324905402958393
2024-12-07 16:10:05.752034300,5.316034423828125,0.1564605981111526,-0.4089280664920807,-0.0207726415246725
2024-12-07 16:10:05.762062800,5.326062744140625,0.2906838059425354,-0.4323638677597046,-0.0154463229700922
2024-12-07 16:10:05.772091400,5.33609130859375,0.3801659643650055,-0.4185154438018799,-0.0154463229700922
2024-12-07 16:10:05.782120200,5.3461201171875,0.4462123215198517,-0.3876228034496307,-0.0165115855634212
2024-12-07 16:10:05.792148700,5.356148681640625,0.5016059875488281,-0.3599259555339813,0.0015978955198079
2024-12-07 16:10:05.802177500,5.366177490234375,0.5697829127311707,-0.3801659643650055,0.037816859781742
2024-12-07 16:10:05.812206000,5.3762060546875,0.6528734564781189,-0.4760396778583526,0.0814926698803901
2024-12-07 16:10:05.822234600,5.386234619140625,0.7210503220558167,-0.5953491926193237,0.1059937328100204
2024-12-07 16:10:05.832263400,5.396263427734375,0.7551387548446655,-0.6933534741401672,0.0996021479368209
2024-12-07 16:10:05.842292000,5.4062919921875,0.7508777379989624,-0.7540735006332397,0.061252661049366
2024-12-07 16:10:05.852320800,5.41632080078125,0.7178545594215393,-0.7956187725067139,-0.0143810594454407
2024-12-07 16:10:05.862349300,5.426349365234375,0.664591372013092,-0.8094671964645386,-0.1102547869086265
2024-12-07 16:10:05.872377900,5.4363779296875,0.5868270993232727,-0.8020103573799133,-0.211454838514328
2024-12-07 16:10:05.882406700,5.44640673828125,0.4845618009567261,-0.7860314249992371,-0.3126548826694488
2024-12-07 16:10:05.892435200,5.456435302734375,0.363121747970581,-0.7732482552528381,-0.4095938801765442
2024-12-07 16:10:05.902464000,5.466464111328125,0.2288985252380371,-0.7562040090560913,-0.4916191697120666
2024-12-07 16:10:05.912492500,5.476492431640625,0.0786963477730751,-0.7231808304786682,-0.5661876201629639
2024-12-07 16:10:05.922521000,5.48652099609375,-0.0778974071145057,-0.6454166173934937,-0.6418213248252869
2024-12-07 16:10:05.932550000,5.4965498046875,-0.2259690463542938,-0.5335639119148254,-0.7238466143608093
2024-12-07 16:10:05.942578400,5.506578369140625,-0.3527354300022125,-0.3716438412666321,-0.8048067092895508
2024-12-07 16:10:05.952607000,5.51660693359375,-0.4507396817207336,-0.1671132296323776,-0.8900277614593506
2024-12-07 16:10:05.962635800,5.5266357421875,-0.5231776237487793,0.0651142373681068,-0.9731183648109436
2024-12-07 16:10:05.972664300,5.536664306640625,-0.5934849977493286,0.2653838098049164,-1.0327731370925903
2024-12-07 16:10:05.982693000,5.546693115234375,-0.642487108707428,0.3825628161430359,-1.0444910526275637
2024-12-07 16:10:05.992721700,5.5567216796875,-0.6414218544960022,0.4454133510589599,-1.0125330686569214
2024-12-07 16:10:06.002750200,5.566750244140625,-0.5881586670875549,0.3868238627910614,-0.9315730333328248
2024-12-07 16:10:06.012779000,5.576779052734375,-0.4858933687210083,0.1716406047344207,-0.720650851726532
2024-12-07 16:10:06.022807600,5.5868076171875,-0.3580617308616638,-0.1319595277309417,-0.341416984796524
2024-12-07 16:10:06.032836400,5.59683642578125,-0.2014679908752441,-0.4717786312103271,0.0474042333662509
2024-12-07 16:10:06.042865000,5.606864990234375,-0.101333200931549,-0.5921534299850464,0.2540653645992279
2024-12-07 16:10:06.052893400,5.6168935546875,-0.0992026776075363,-0.3450122475624084,0.2796317040920257
2024-12-07 16:10:06.062922200,5.626922119140625,-0.1620532274246215,0.0150468489155173,0.1901495605707168
2024-12-07 16:10:06.072950800,5.63695068359375,-0.2845585644245147,0.3378217220306396,0.0580568686127662
2024-12-07 16:10:06.082979600,5.6469794921875,-0.4273038804531097,0.6360955238342285,-0.0910800397396087
2024-12-07 16:10:06.093008100,5.657008056640625,-0.5338302254676819,0.8587356805801392,-0.2625874876976013
2024-12-07 16:10:06.103036700,5.66703662109375,-0.6137250065803528,0.9301083087921144,-0.4394212663173675
2024-12-07 16:10:06.113065500,5.6770654296875,-0.6648576855659485,0.8214514255523682,-0.5842971205711365
2024-12-07 16:10:06.123094000,5.687093994140625,-0.6531397700309753,0.604137659072876,-0.7057371735572815
2024-12-07 16:10:06.133122800,5.697122802734375,-0.5807018280029297,0.4017375409603119,-0.8282424807548523
2024-12-07 16:10:06.143151400,5.7071513671875,-0.4464786350727081,0.311190128326416,-0.9496825337409972
2024-12-07 16:10:06.153180000,5.717179931640625,-0.2771016955375671,0.3708449006080627,-1.0189247131347656
2024-12-07 16:10:06.163208700,5.727208740234375,-0.1205079481005668,0.5657881498336792,-1.0231857299804688
2024-12-07 16:10:06.173237200,5.7372373046875,0.0318247526884079,0.7692534923553467,-0.96779203414917
2024-12-07 16:10:06.183266000,5.74726611328125,0.2043974548578262,0.8917587995529175,-0.8655267357826233
2024-12-07 16:10:06.193294600,5.757294677734375,0.373774379491806,0.9205209612846376,-0.7398256063461304
2024-12-07 16:10:06.203323100,5.7673232421875,0.4909533858299255,0.9578051567077636,-0.6119939684867859
2024-12-07 16:10:06.213352000,5.77735205078125,0.4994754791259765,1.0440915822982788,-0.5171855092048645
2024-12-07 16:10:06.223380500,5.78738037109375,0.3961449265480041,1.17405366897583,-0.4490086138248443
2024-12-07 16:10:06.233409300,5.7974091796875,0.2683132886886596,1.2528831958770752,-0.3989412188529968
2024-12-07 16:10:06.243437800,5.807437744140625,0.1458079665899276,1.1378346681594849,-0.3467433154582977
2024-12-07 16:10:06.253466400,5.81746630859375,0.0584563426673412,0.7617966532707214,-0.2817622423171997
2024-12-07 16:10:06.263495200,5.8274951171875,0.0009321057004854,0.2259690463542938,-0.2274337857961654
2024-12-07 16:10:06.273524000,5.83752392578125,-0.1098553165793418,-0.1351553201675415,-0.1890842914581298
2024-12-07 16:10:06.283552500,5.847552490234375,-0.3058638274669647,-0.1926795542240142,-0.1496695429086685
2024-12-07 16:10:06.293581300,5.857581298828125,-0.5295692086219788,-0.1511342823505401,-0.1336905807256698
2024-12-07 16:10:06.303609900,5.86760986328125,-0.7138597965240479,-0.1830921918153762,-0.1699095517396927
2024-12-07 16:10:06.313638700,5.877638671875,-0.8406261801719666,-0.3705785870552063,-0.2082590460777282
2024-12-07 16:10:06.323667500,5.88766748046875,-0.9045419692993164,-0.6805703043937683,-0.209324300289154
2024-12-07 16:10:06.333696000,5.897696044921875,-0.8704535365104675,-1.0022798776626587,-0.1613874435424804
2024-12-07 16:10:06.343724800,5.907724853515625,-0.7372955679893494,-1.3516863584518433,-0.1102547869086265
2024-12-07 16:10:06.353753300,5.91775341796875,-0.5327649712562561,-1.5455644130706787,-0.1336905807256698
2024-12-07 16:10:06.363782100,5.9277822265625,-0.2877543270587921,-1.4113411903381348,-0.2689790725708008
2024-12-07 16:10:06.373811000,5.93781103515625,0.0030626328662037,-1.0640652179718018,-0.4607265293598175
2024-12-07 16:10:06.383839500,5.947839599609375,0.3300985693931579,-0.631568193435669,-0.6013413071632385
2024-12-07 16:10:06.393868300,5.957868408203125,0.5878923535346985,-0.2161153554916381,-0.6641919016838074
2024-12-07 16:10:06.403896800,5.967896728515625,0.7668566703796387,0.1428784877061844,-0.6791055798530579
2024-12-07 16:10:06.413925600,5.977925537109375,0.8637956380844116,0.3229080438613891,-0.6567350625991821
2024-12-07 16:10:06.423954400,5.987954345703125,0.8637956380844116,0.4177165031433105,-0.5928192138671875
2024-12-07 16:10:06.433983000,5.99798291015625,0.7839008569717407,0.4017375409603119,-0.4937497079372406
2024-12-07 16:10:06.444011800,6.00801171875,0.6443513631820679,0.3133206665515899,-0.3712443709373474
2024-12-07 16:10:06.454040300,6.018040283203125,0.4589954614639282,0.1897500902414322,-0.2487390637397766
2024-12-07 16:10:06.464069000,6.028069091796875,0.2533995807170868,0.0395479127764701,-0.1528653353452682
2024-12-07 16:10:06.474098000,6.038097900390625,0.0648479238152504,-0.0605868697166442,-0.087884247303009
2024-12-07 16:10:06.484126500,6.04812646484375,-0.0970721468329429,-0.0723047703504562,-0.0633831843733787
2024-12-07 16:10:06.494155300,6.0581552734375,-0.2110553532838821,-0.0254331696778535,-0.0591221302747726
2024-12-07 16:10:06.504183800,6.068183837890625,-0.2696448564529419,0.0480700209736824,-0.0719052925705909
2024-12-07 16:10:06.514212600,6.078212646484375,-0.2930806577205658,0.1002679392695427,-0.1059937328100204
2024-12-07 16:10:06.524241400,6.088241455078125,-0.2717753946781158,0.0757668763399124,-0.1347558498382568
2024-12-07 16:10:06.534270000,6.09827001953125,-0.2280995845794677,0.0225036945194005,-0.1677790284156799
2024-12-07 16:10:06.544298800,6.108298828125,-0.1641837656497955,0.0011984215816482,-0.211454838514328
2024-12-07 16:10:06.554327300,6.118327392578125,-0.062983714044094,-0.0190415866672992,-0.2838927507400512
2024-12-07 16:10:06.564356000,6.128356201171875,0.0190415866672992,-0.0158457960933446,-0.3659180700778961
2024-12-07 16:10:06.574385000,6.138385009765625,0.0701742395758628,0.0235689580440521,-0.4170507192611694
2024-12-07 16:10:06.584413400,6.148413330078125,0.091479517519474,0.0555268675088882,-0.4404865205287933
2024-12-07 16:10:06.594442200,6.158442138671875,0.079761616885662,0.0438089668750762,-0.4458128213882446
2024-12-07 16:10:06.604470800,6.168470703125,0.049934234470129,-0.0254331696778535,-0.4404865205287933
2024-12-07 16:10:06.614499600,6.17849951171875,0.0126500055193901,-0.0829574093222618,-0.4245075583457947
2024-12-07 16:10:06.624528400,6.1885283203125,-0.021438430994749,-0.129829004406929,-0.4095938801765442
2024-12-07 16:10:06.634557000,6.198556884765625,-0.0555268675088882,-0.1617869138717651,-0.4010717570781708
2024-12-07 16:10:06.644585700,6.208585693359375,-0.0864195153117179,-0.1617869138717651,-0.3946801722049713
2024-12-07 16:10:06.654614300,6.2186142578125,-0.1162468940019607,-0.1149153187870979,-0.3882885873317718
2024-12-07 16:10:06.664643000,6.22864306640625,-0.1332911103963852,-0.0435426495969295,-0.3808317482471466
2024-12-07 16:10:06.674671900,6.238671875,-0.1503353267908096,0.0097205303609371,-0.3776359558105469
2024-12-07 16:10:06.684700400,6.248700439453125,-0.169510081410408,0.0235689580440521,-0.3797664940357208
2024-12-07 16:10:06.694729200,6.258729248046875,-0.1993374526500702,0.0118510583415627,-0.38935387134552
2024-12-07 16:10:06.704757800,6.2687578125,-0.2312953621149063,-0.0169110596179962,-0.3914843797683716
2024-12-07 16:10:06.714786600,6.27878662109375,-0.2696448564529419,-0.052064761519432,-0.3840275406837463
2024-12-07 16:10:06.724815400,6.2888154296875,-0.3058638274669647,-0.0829574093222618,-0.3669833242893219
2024-12-07 16:10:06.734844000,6.298843994140625,-0.3282343447208404,-0.1149153187870979,-0.3446127772331238
2024-12-07 16:10:06.744872700,6.308872802734375,-0.3314301371574402,-0.1468732208013534,-0.3286338448524475
2024-12-07 16:10:06.754901200,6.3189013671875,-0.3271690905094147,-0.1500690132379531,-0.3179811835289001
2024-12-07 16:10:06.764930000,6.328929931640625,-0.29201540350914,-0.1415469050407409,-0.3147853910923004
2024-12-07 16:10:06.774958800,6.338958740234375,-0.2046637833118438,-0.174570083618164,-0.3286338448524475
2024-12-07 16:10:06.784987400,6.3489873046875,-0.1418132185935974,-0.1788311302661895,-0.3776359558105469
2024-12-07 16:10:06.795016200,6.35901611328125,-0.0960068851709365,-0.1085237339138984,-0.4575307369232178
2024-12-07 16:10:06.805044700,6.369044677734375,-0.0715058222413063,-0.063782662153244,-0.5033370852470398
2024-12-07 16:10:06.815073500,6.379073486328125,-0.073636345565319,-0.0414121225476264,-0.4958802163600921
2024-12-07 16:10:06.825102300,6.389102294921875,-0.0821584612131118,0.0225036945194005,-0.475640207529068
2024-12-07 16:10:06.835131000,6.399130859375,-0.0842889845371246,0.1322258561849594,-0.443682312965393
2024-12-07 16:10:06.845159700,6.40915966796875,-0.0842889845371246,0.2494048476219177,-0.4255728125572204
2024-12-07 16:10:06.855188500,6.4191884765625,-0.0885500386357307,0.3207775056362152,-0.4298338890075683
2024-12-07 16:10:06.865217000,6.429217041015625,-0.1002679392695427,0.300537496805191,-0.4362254738807678
2024-12-07 16:10:06.875245800,6.439245849609375,-0.1322258561849594,0.2866890728473663,-0.4522044062614441
2024-12-07 16:10:06.885274400,6.4492744140625,-0.167379543185234,0.2941459119319916,-0.4607265293598175
2024-12-07 16:10:06.895303200,6.45930322265625,-0.2035985141992569,0.2941459119319916,-0.4532696902751922
2024-12-07 16:10:06.905331700,6.469331787109375,-0.2174469381570816,0.2834932804107666,-0.4404865205287933
2024-12-07 16:10:06.915360300,6.4793603515625,-0.2206427305936813,0.2717753946781158,-0.4426170289516449
2024-12-07 16:10:06.925389000,6.48938916015625,-0.1886848211288452,0.3207775056362152,-0.4330296814441681
2024-12-07 16:10:06.935417600,6.49941748046875,-0.1535311192274093,0.3474090993404388,-0.4490086138248443
2024-12-07 16:10:06.945446100,6.509446044921875,-0.1055942550301551,0.3601922690868377,-0.4745749533176422
2024-12-07 16:10:06.955475000,6.519474853515625,-0.0502005480229854,0.3868238627910614,-0.4681833684444427
2024-12-07 16:10:06.965503500,6.52950341796875,0.0190415866672992,0.3708449006080627,-0.4223770201206207
2024-12-07 16:10:06.975532300,6.5395322265625,0.0818921402096748,0.3367564678192138,-0.3712443709373474
2024-12-07 16:10:06.985560800,6.549560791015625,0.1703090220689773,0.2685796022415161,-0.3467433154582977
2024-12-07 16:10:06.995589400,6.55958935546875,0.2491385340690612,0.1876195520162582,-0.3755054473876953
2024-12-07 16:10:07.005618200,6.5696181640625,0.3119890987873077,0.1631184965372085,-0.3946801722049713
2024-12-07 16:10:07.015646700,6.579646728515625,0.3375554084777832,0.1194426864385604,-0.4106591343879699
2024-12-07 16:10:07.025675500,6.589675537109375,0.3258375227451324,0.0906805694103241,-0.4010717570781708
2024-12-07 16:10:07.035704000,6.5997041015625,0.2544648647308349,0.0704405605792999,-0.3744401633739471
2024-12-07 16:10:07.045732600,6.609732666015625,0.1372858583927154,0.0800279304385185,-0.3020022511482239
2024-12-07 16:10:07.055761400,6.619761474609375,0.0201068520545959,0.1300953179597854,-0.1731053441762924
2024-12-07 16:10:07.065790000,6.6297900390625,-0.0896153002977371,0.1663142889738083,-0.0399473868310451
2024-12-07 16:10:07.075818800,6.63981884765625,-0.1844237744808197,0.1716406047344207,0.061252661049366
2024-12-07 16:10:07.085847300,6.649847412109375,-0.2632532715797424,0.2174469381570816,0.1304948031902313
2024-12-07 16:10:07.095875800,6.659875732421875,-0.3186469972133636,0.3069290816783905,0.1858884990215301
2024-12-07 16:10:07.105904600,6.669904541015625,-0.348474383354187,0.3814975321292877,0.2253032624721527
2024-12-07 16:10:07.115933200,6.67993310546875,-0.3644533157348633,0.4304996728897095,0.2530001103878021
2024-12-07 16:10:07.125962000,6.6899619140625,-0.359127014875412,0.4720449447631836,0.2892190814018249
2024-12-07 16:10:07.135990500,6.699990478515625,-0.3388870060443878,0.5242428779602051,0.3318296372890472
2024-12-07 16:10:07.146019000,6.71001904296875,-0.3016027808189392,0.5743102431297302,0.3776359558105469
2024-12-07 16:10:07.156048000,6.7200478515625,-0.2547311782836914,0.6105292439460754,0.4308991432189941
2024-12-07 16:10:07.166076700,6.73007666015625,-0.1993374526500702,0.6297039985656738,0.4862928390502929
2024-12-07 16:10:07.176105200,6.740105224609375,-0.1343563795089721,0.6414218544960022,0.5470128655433655
2024-12-07 16:10:07.186134000,6.750134033203125,-0.0693752914667129,0.6456829309463501,0.6130592226982117
2024-12-07 16:10:07.196162600,6.76016259765625,-0.0022636852227151,0.6382260918617249,0.6897581815719604
2024-12-07 16:10:07.206191400,6.77019140625,0.0605868697166442,0.6073334217071533,0.7803056240081787
2024-12-07 16:10:07.216220200,6.78022021484375,0.119176372885704,0.5476786494255066,0.8825709223747253
2024-12-07 16:10:07.226248700,6.790248779296875,0.1681784987449646,0.4773712754249573,0.9837709665298462
2024-12-07 16:10:07.236277500,6.800277587890625,0.2065279930830001,0.4091944098472595,1.0796446800231934
2024-12-07 16:10:07.246306300,6.810306396484375,0.2352901101112365,0.3655185997486114,1.1744531393051147
2024-12-07 16:10:07.256335000,6.820335205078125,0.2544648647308349,0.3601922690868377,1.2681963443756104
2024-12-07 16:10:07.266364000,6.830364013671875,0.2683132886886596,0.3814975321292877,1.3651353120803833
2024-12-07 16:10:07.276392400,6.840392333984375,0.2715090811252594,0.4326302111148834,1.4610090255737305
2024-12-07 16:10:07.286421200,6.850421142578125,0.2725743353366852,0.5146554708480835,1.5494259595870972
2024-12-07 16:10:07.296450000,6.860449951171875,0.2715090811252594,0.6435524225234985,1.6282554864883425
2024-12-07 16:10:07.306478800,6.870478759765625,0.2587259113788605,0.8257125020027161,1.6911060810089111
2024-12-07 16:10:07.316507600,6.880507568359375,0.239551156759262,1.0004156827926636,1.7518260478973389
2024-12-07 16:10:07.326536400,6.890536376953125,0.2171806246042251,1.0888326168060305,1.813611388206482
2024-12-07 16:10:07.336565000,6.90056494140625,0.186287984251976,1.0376999378204346,1.8445039987564087
2024-12-07 16:10:07.346593800,6.91059375,0.1660479754209518,0.847017765045166,1.8189376592636108
2024-12-07 16:10:07.356622600,6.92062255859375,0.1564605981111526,0.5998765826225281,1.7166723012924194
2024-12-07 16:10:07.366651400,6.9306513671875,0.1521995365619659,0.3932154476642608,1.579253315925598
2024-12-07 16:10:07.376680200,6.94068017578125,0.1340900659561157,0.3165164589881897,1.487640619277954
2024-12-07 16:10:07.386708700,6.950708740234375,0.1127847880125045,0.3101248741149902,1.4439648389816284
2024-12-07 16:10:07.396737500,6.960737548828125,0.0872184634208679,0.2611227631568908,1.382179617881775
2024-12-07 16:10:07.406766300,6.970766357421875,0.1053279414772987,0.1119858399033546,1.259674310684204
2024-12-07 16:10:07.416795100,6.980795166015625,0.1703090220689773,-0.0446079149842262,1.0966888666152954
2024-12-07 16:10:07.426824000,6.990823974609375,0.2459427416324615,-0.1415469050407409,0.942225694656372
2024-12-07 16:10:07.436852500,7.0008525390625,0.3322291076183319,-0.1543300747871399,0.8474172353744507
2024-12-07 16:10:07.446881300,7.01088134765625,0.4323638677597046,-0.128763735294342,0.8218508958816528
2024-12-07 16:10:07.456910000,7.02091015625,0.5367597341537476,-0.128763735294342,0.8442214131355286
2024-12-07 16:10:07.466939000,7.03093896484375,0.6294376254081726,-0.2182458937168121,0.8815056681632996
2024-12-07 16:10:07.476967700,7.0409677734375,0.6901576519012451,-0.4046670198440552,0.9155941009521484
2024-12-07 16:10:07.486996200,7.050996337890625,0.7348987460136414,-0.627307116985321,0.9379646182060242
2024-12-07 16:10:07.497025000,7.06102490234375,0.7775092720985413,-0.8062714338302612,0.9368993639945984
2024-12-07 16:10:07.507053800,7.0710537109375,0.8041408658027649,-0.891492486000061,0.8889625072479248
2024-12-07 16:10:07.517082400,7.081082275390625,0.8030756115913391,-0.9053409099578856,0.7941540479660034
2024-12-07 16:10:07.527111200,7.091111083984375,0.7764440178871155,-0.8978840708732605,0.683366596698761
2024-12-07 16:10:07.537140000,7.101139892578125,0.7189198136329651,-0.8872314691543579,0.5842971205711365
2024-12-07 16:10:07.547168500,7.11116845703125,0.6528734564781189,-0.8872314691543579,0.5139896869659424
2024-12-07 16:10:07.557197300,7.121197265625,0.594283938407898,-0.8957535624504089,0.4703139066696167
2024-12-07 16:10:07.567225900,7.131225830078125,0.5506081581115723,-0.9191893935203552,0.4426170289516449
2024-12-07 16:10:07.577254700,7.141254638671875,0.5165197253227234,-0.9159935712814332,0.4063980877399444
2024-12-07 16:10:07.587283500,7.151283447265625,0.4888228476047516,-0.8701872229576111,0.3605917394161224
2024-12-07 16:10:07.597312000,7.16131201171875,0.4611259996891022,-0.7966840267181396,0.3083938360214233
2024-12-07 16:10:07.607340800,7.1713408203125,0.4270375669002533,-0.7231808304786682,0.2466085255146026
2024-12-07 16:10:07.617369300,7.181369384765625,0.4281028211116791,-0.6613955497741699,0.2008021920919418
2024-12-07 16:10:07.627398100,7.191398193359375,0.4206459820270538,-0.6123934388160706,0.1720400750637054
2024-12-07 16:10:07.637427000,7.201427001953125,0.395079642534256,-0.5878923535346985,0.1528653353452682
2024-12-07 16:10:07.647455500,7.21145556640625,0.3609912097454071,-0.5868270993232727,0.1272990107536316
2024-12-07 16:10:07.657484300,7.221484375,0.3641870021820068,-0.6145239472389221,0.116646371781826
2024-12-07 16:10:07.667512800,7.231512939453125,0.2555301189422607,-0.4174501895904541,0.0687095075845718
2024-12-07 16:10:07.677541600,7.241541748046875,0.1980058848857879,-0.2139848321676254,0.0335558056831359
2024-12-07 16:10:07.687570400,7.2515703125,0.1607216447591781,-0.0478037074208259,0.0260989591479301
2024-12-07 16:10:07.697599000,7.261598876953125,0.1223721578717231,0.021438430994749,0.0463389679789543
2024-12-07 16:10:07.707627800,7.271627685546875,0.0946753025054931,0.0011984215816482,0.0836231932044029
2024-12-07 16:10:07.717656300,7.28165625,0.0573910772800445,-0.049934234470129,0.115581102669239
2024-12-07 16:10:07.727685000,7.29168505859375,0.0083889514207839,-0.0946753025054931,0.1251684725284576
2024-12-07 16:10:07.737714000,7.3017138671875,-0.033156331628561,-0.128763735294342,0.1059937328100204
2024-12-07 16:10:07.747742500,7.311742431640625,-0.0715058222413063,-0.130894273519516,0.049534760415554
2024-12-07 16:10:07.757771300,7.321771240234375,-0.1055942550301551,-0.1202416345477104,-0.0282294861972332
2024-12-07 16:10:07.767799800,7.3317998046875,-0.1407479643821716,-0.1202416345477104,-0.1070589944720268
2024-12-07 16:10:07.777828600,7.34182861328125,-0.1844237744808197,-0.1511342823505401,-0.1667137593030929
2024-12-07 16:10:07.787857400,7.351857421875,-0.2334259003400802,-0.2150501012802124,-0.1976063996553421
2024-12-07 16:10:07.797886000,7.361885986328125,-0.2781669795513153,-0.3141196072101593,-0.2039979845285415
2024-12-07 16:10:07.807914800,7.371914794921875,-0.3175817131996155,-0.430233359336853,-0.1794969290494918
2024-12-07 16:10:07.817943300,7.381943359375,-0.3367564678192138,-0.5495429039001465,-0.1283642649650573
2024-12-07 16:10:07.827972000,7.39197216796875,-0.3271690905094147,-0.6720482110977173,-0.0591221302747726
2024-12-07 16:10:07.838001000,7.4020009765625,-0.2877543270587921,-0.7338334918022156,0.0037284228019416
2024-12-07 16:10:07.848029400,7.412029541015625,-0.1908153444528579,-0.6550039649009705,0.023968432098627
2024-12-07 16:10:07.858058200,7.422058349609375,-0.0363521203398704,-0.451538622379303,-0.0122505314648151
2024-12-07 16:10:07.868086800,7.432086669921875,0.1245026886463165,-0.1756353378295898,-0.0900147780776023
2024-12-07 16:10:07.878115600,7.442115478515625,0.2491385340690612,0.0906805694103241,-0.1486042737960815
2024-12-07 16:10:07.888144400,7.452144287109375,0.3876228034496307,0.2760364413261413,-0.1688442826271057
2024-12-07 16:10:07.898173000,7.4621728515625,0.5495429039001465,0.3495396375656128,-0.1805621832609176
2024-12-07 16:10:07.908201700,7.47220166015625,0.6475471258163452,0.2696448564529419,-0.1944106072187423
2024-12-07 16:10:07.918230300,7.482230224609375,0.6795050501823425,0.0704405605792999,-0.2050632536411285
2024-12-07 16:10:07.928259000,7.492259033203125,0.6613955497741699,-0.1830921918153762,-0.2135853618383407
2024-12-07 16:10:07.938287900,7.502287841796875,0.5846965909004211,-0.449408084154129,-0.2157158851623535
2024-12-07 16:10:07.948316400,7.51231640625,0.4568649530410766,-0.7008103132247925,-0.2082590460777282
2024-12-07 16:10:07.958345200,7.52234521484375,0.3215764760971069,-0.8137282729148865,-0.211454838514328
2024-12-07 16:10:07.968373800,7.532373779296875,0.1713742911815643,-0.7966840267181396,-0.2540653645992279
2024-12-07 16:10:07.978402600,7.542402587890625,-0.0043942127376794,-0.7306377291679382,-0.3275685608386993
2024-12-07 16:10:07.988431400,7.552431396484375,-0.1865542978048324,-0.6816355586051941,-0.4138549268245697
2024-12-07 16:10:07.998460000,7.5624599609375,-0.3378217220306396,-0.6613955497741699,-0.5182507634162903
2024-12-07 16:10:08.008488700,7.57248876953125,-0.4656533598899841,-0.6454166173934937,-0.6471476554870605
2024-12-07 16:10:08.018517200,7.582517333984375,-0.6233124136924744,-0.5761744976043701,-0.787762463092804
2024-12-07 16:10:08.028546000,7.592546142578125,-0.7884282469749451,-0.4856270551681518,-0.9060067534446716
2024-12-07 16:10:08.038574800,7.602574951171875,-0.9024114608764648,-0.3961449265480041,-0.9922930598258972
2024-12-07 16:10:08.048603400,7.612603271484375,-0.9024114608764648,-0.3620564937591553,-1.0178594589233398
2024-12-07 16:10:08.058632200,7.622632080078125,-0.7671229839324951,-0.4589954614639282,-0.89641934633255
2024-12-07 16:10:08.068660700,7.63266064453125,-0.604137659072876,-0.7008103132247925,-0.561926543712616
2024-12-07 16:10:08.078689500,7.642689453125,-0.4283691346645355,-1.0693914890289309,-0.0804274082183837
2024-12-07 16:10:08.088718300,7.65271826171875,-0.157792180776596,-1.3687306642532349,0.2892190814018249
2024-12-07 16:10:08.098747000,7.662746826171875,0.0893489867448806,-1.1620694398880005,0.387223333120346
2024-12-07 16:10:08.108775700,7.672775634765625,0.196940615773201,-0.5048018097877502,0.3126548826694488
2024-12-07 16:10:08.118804200,7.68280419921875,0.1564605981111526,0.1567269116640091,0.1507348120212555
2024-12-07 16:10:08.128833000,7.6928330078125,0.022237379103899,0.6371608376502991,-0.0516652874648571
2024-12-07 16:10:08.138861800,7.70286181640625,-0.1268995255231857,0.9450219869613647,-0.2061285078525543
2024-12-07 16:10:08.148890400,7.712890380859375,-0.2653838098049164,1.035569429397583,-0.3265033066272735
2024-12-07 16:10:08.158919200,7.722919189453125,-0.3996070325374603,0.9737841486930848,-0.5033370852470398
2024-12-07 16:10:08.168947700,7.73294775390625,-0.491219699382782,0.8502135276794434,-0.7558045387268066
2024-12-07 16:10:08.178976500,7.7429765625,-0.5071986317634583,0.5977460741996765,-1.016794204711914
2024-12-07 16:10:08.189005300,7.75300537109375,-0.4560659825801849,0.2547311782836914,-1.1616699695587158
2024-12-07 16:10:08.199033900,7.763033935546875,-0.3836280703544616,0.0235689580440521,-1.1403647661209106
2024-12-07 16:10:08.209062700,7.773062744140625,-0.3271690905094147,-0.1213068962097168,-1.0423604249954224
2024-12-07 16:10:08.219091200,7.78309130859375,-0.2643185555934906,-0.229963794350624,-0.9528783559799194
2024-12-07 16:10:08.229120000,7.7931201171875,-0.1844237744808197,-0.2235722094774246,-0.8399603962898254
2024-12-07 16:10:08.239148800,7.803148681640625,-0.0970721468329429,-0.0488689690828323,-0.6823013424873352
2024-12-07 16:10:08.249177300,7.81317724609375,0.0126500055193901,0.2664490640163421,-0.5033370852470398
2024-12-07 16:10:08.259206100,7.8232060546875,0.1319595277309417,0.6233124136924744,-0.3318296372890472
2024-12-07 16:10:08.269234700,7.833234619140625,0.2384859025478363,0.9247819781303406,-0.1837579756975174
2024-12-07 16:10:08.279263500,7.843263427734375,0.319445937871933,1.1687273979187012,-0.077231615781784
2024-12-07 16:10:08.289292300,7.853292236328125,0.3577954173088074,1.2869716882705688,-0.0474042333662509
2024-12-07 16:10:08.299320800,7.86332080078125,0.3514038324356079,1.2049462795257568,-0.1209074258804321
2024-12-07 16:10:08.309349600,7.873349609375,0.3109238147735595,0.9407609701156616,-0.2519348561763763
2024-12-07 16:10:08.319378200,7.883378173828125,0.240616425871849,0.5817670822143555,-0.3691138625144958
2024-12-07 16:10:08.329407000,7.893406982421875,0.1415469050407409,0.2035985141992569,-0.4330296814441681
2024-12-07 16:10:08.339435800,7.903435791015625,0.0115847419947385,-0.1681784987449646,-0.462857037782669
2024-12-07 16:10:08.349464300,7.91346435546875,-0.1215732097625732,-0.5005407333374023,-0.4841623306274414
2024-12-07 16:10:08.359493000,7.9234931640625,-0.2142511457204818,-0.7370292544364929,-0.5118591785430908
2024-12-07 16:10:08.369521700,7.933521728515625,-0.2866890728473663,-0.8137282729148865,-0.5480781197547913
2024-12-07 16:10:08.379550500,7.943550537109375,-0.3037332892417907,-0.7945535182952881,-0.6002760529518127
2024-12-07 16:10:08.389579300,7.953579345703125,-0.2430132627487182,-0.6880271434783936,-0.6546044945716858
2024-12-07 16:10:08.399607800,7.96360791015625,-0.1268995255231857,-0.451538622379303,-0.6865624189376831
2024-12-07 16:10:08.409636600,7.97363671875,0.0030626328662037,-0.1777658760547638,-0.6929540038108826
2024-12-07 16:10:08.419665400,7.98366552734375,0.1234374269843101,0.1482048034667968,-0.6684529185295105
2024-12-07 16:10:08.429694000,7.99369384765625,0.2033322006464004,0.4049333333969116,-0.6226465702056885
2024-12-07 16:10:08.439722800,8.00372265625,0.229963794350624,0.537026047706604,-0.5725792050361633
2024-12-07 16:10:08.449751300,8.013751220703124,0.2171806246042251,0.5700492262840271,-0.5012065172195435
2024-12-07 16:10:08.459780000,8.023780029296875,0.1681784987449646,0.5444828867912292,-0.4032022953033447
2024-12-07 16:10:08.469809000,8.033808837890625,0.0957405716180801,0.5050681233406067,-0.3030675053596496
2024-12-07 16:10:08.479837400,8.04383740234375,0.0264984332025051,0.4496744275093078,-0.2178464084863662
2024-12-07 16:10:08.489866200,8.0538662109375,-0.0288952756673097,0.4123901724815368,-0.1592569202184677
2024-12-07 16:10:08.499894800,8.063894775390626,-0.0587226599454879,0.3687143921852112,-0.1379516422748565
2024-12-07 16:10:08.509923600,8.073923583984374,-0.0619184486567974,0.3239732980728149,-0.1368863731622696
2024-12-07 16:10:08.519952400,8.083952392578125,-0.035286858677864,0.2643185555934906,-0.1518000662326812
2024-12-07 16:10:08.529981000,8.09398095703125,-0.0171773768961429,0.2206427305936813,-0.1794969290494918
2024-12-07 16:10:08.540009700,8.104009765625,0.0115847419947385,0.1641837656497955,-0.2178464084863662
2024-12-07 16:10:08.550038300,8.114038330078126,0.0446079149842262,0.0842889845371246,-0.287088543176651
2024-12-07 16:10:08.560067000,8.124067138671874,0.0850879326462745,-0.0062584239058196,-0.3723096549510956
2024-12-07 16:10:08.570095900,8.134095947265624,0.1042626798152923,-0.102132149040699,-0.4468781054019928
2024-12-07 16:10:08.580124400,8.14412451171875,0.1000016257166862,-0.1884185075759887,-0.4894886314868927
2024-12-07 16:10:08.590153200,8.1541533203125,0.0765658244490623,-0.2747048735618591,-0.5044023394584656
2024-12-07 16:10:08.600181800,8.164181640625,0.0286289602518081,-0.3450122475624084,-0.5075981020927429
2024-12-07 16:10:08.610210600,8.17421044921875,-0.033156331628561,-0.3727091252803802,-0.4894886314868927
2024-12-07 16:10:08.620239400,8.1842392578125,-0.0949416235089302,-0.3482080399990082,-0.4585959911346435
2024-12-07 16:10:08.630268000,8.194267822265624,-0.1482048034667968,-0.3237069845199585,-0.4383559823036194
2024-12-07 16:10:08.640296700,8.204296630859375,-0.1961416751146316,-0.3215764760971069,-0.4340949356555938
2024-12-07 16:10:08.650325200,8.2143251953125,-0.2312953621149063,-0.3002711832523346,-0.4415517747402191
2024-12-07 16:10:08.660354000,8.22435400390625,-0.2675143182277679,-0.2576606571674347,-0.4554001986980438
2024-12-07 16:10:08.670382800,8.2343828125,-0.2739059031009674,-0.2182458937168121,-0.443682312965393
2024-12-07 16:10:08.680411400,8.244411376953124,-0.2717753946781158,-0.2001364082098007,-0.4149201810359955
2024-12-07 16:10:08.690440200,8.254440185546875,-0.2739059031009674,-0.196940615773201,-0.3936149179935455
2024-12-07 16:10:08.700468700,8.26446875,-0.2653838098049164,-0.2310290485620498,-0.3882885873317718
2024-12-07 16:10:08.710497500,8.27449755859375,-0.2504701018333435,-0.2842922210693359,-0.387223333120346
2024-12-07 16:10:08.720526300,8.2845263671875,-0.23662169277668,-0.2736395895481109,-0.3733749091625213
2024-12-07 16:10:08.730555000,8.294554931640626,-0.2174469381570816,-0.1884185075759887,-0.3478085696697235
2024-12-07 16:10:08.740583700,8.304583740234374,-0.1886848211288452,-0.0509994961321353,-0.3265033066272735
2024-12-07 16:10:08.750612200,8.3146123046875,-0.1524658650159835,0.1109205782413482,-0.3233075141906738
2024-12-07 16:10:08.760641000,8.32464111328125,-0.1183774247765541,0.2621880173683166,-0.3478085696697235
2024-12-07 16:10:08.770669800,8.334669921875,-0.1045289933681488,0.3772364854812622,-0.3829622864723205
2024-12-07 16:10:08.780698400,8.344698486328125,-0.0981374159455299,0.4613923132419586,-0.4149201810359955
2024-12-07 16:10:08.790727200,8.35472705078125,-0.0981374159455299,0.4976112842559814,-0.4468781054019928
2024-12-07 16:10:08.800755700,8.364755615234374,-0.1034637317061424,0.4976112842559814,-0.4809665381908417
2024-12-07 16:10:08.810784500,8.374784423828125,-0.1194426864385604,0.4677838981151581,-0.5075981020927429
2024-12-07 16:10:08.820813300,8.384813232421875,-0.1535311192274093,0.3655185997486114,-0.5299686789512634
2024-12-07 16:10:08.830841900,8.394841796875,-0.2035985141992569,0.2025332450866699,-0.5523391962051392
2024-12-07 16:10:08.840870700,8.40487060546875,-0.2728406488895416,0.0544616021215915,-0.5448823571205139
2024-12-07 16:10:08.850899200,8.414899169921876,-0.3495396375656128,-0.0158457960933446,-0.5044023394584656
2024-12-07 16:10:08.860928000,8.424927978515624,-0.3825628161430359,0.0022636852227151,-0.4788359999656677
2024-12-07 16:10:08.870956800,8.434956787109375,-0.3836280703544616,0.0427437052130699,-0.4745749533176422
2024-12-07 16:10:08.880985300,8.4449853515625,-0.3612575232982635,0.1567269116640091,-0.4713791608810425
2024-12-07 16:10:08.891014100,8.45501416015625,-0.3165164589881897,0.2749711871147156,-0.4820317924022674
2024-12-07 16:10:08.901042700,8.465042724609376,-0.2494048476219177,0.3175817131996155,-0.5075981020927429
2024-12-07 16:10:08.911071500,8.475071533203124,-0.1482048034667968,0.3037332892417907,-0.5193160176277161
2024-12-07 16:10:08.921100300,8.485100341796874,0.0137152690440416,0.2398174703121185,-0.5065328478813171
2024-12-07 16:10:08.931128800,8.49512890625,0.2054627239704132,0.1364869028329849,-0.4894886314868927
2024-12-07 16:10:08.941157600,8.50515771484375,0.3641870021820068,-0.0233026426285505,-0.5182507634162903
2024-12-07 16:10:08.951186200,8.515186279296875,0.4728438854217529,-0.1671132296323776,-0.5491434335708618
2024-12-07 16:10:08.961215000,8.525215087890626,0.5154544711112976,-0.2374206334352493,-0.5395560264587402
2024-12-07 16:10:08.971243500,8.535243408203126,0.4600607454776764,-0.2118543088436126,-0.4681833684444427
2024-12-07 16:10:08.981272000,8.54527197265625,0.3577954173088074,-0.1213068962097168,-0.3648527860641479
2024-12-07 16:10:08.991300900,8.55530078125,0.2310290485620498,0.0161121133714914,-0.2231727391481399
2024-12-07 16:10:09.001329400,8.565329345703125,0.1234374269843101,0.1993374526500702,-0.0250336956232786
2024-12-07 16:10:09.011358200,8.575358154296875,0.0456731803715229,0.3772364854812622,0.198671668767929
2024-12-07 16:10:09.021386800,8.58538671875,-0.0086552668362855,0.5285038948059082,0.3882885873317718
2024-12-07 16:10:09.031415300,8.595415283203126,-0.0502005480229854,0.696815550327301,0.4777707457542419
2024-12-07 16:10:09.041444000,8.605444091796874,-0.0906805694103241,0.8608661890029907,0.4926844239234924
2024-12-07 16:10:09.051472600,8.61547265625,-0.1332911103963852,0.9386304020881652,0.5225118398666382
2024-12-07 16:10:09.061501400,8.62550146484375,-0.168444812297821,0.9886978268623352,0.5949497222900391
2024-12-07 16:10:09.071530000,8.635530029296875,-0.1972069293260574,1.0622010231018066,0.6801708340644836
2024-12-07 16:10:09.081558500,8.64555859375,-0.2206427305936813,1.106942057609558,0.7760445475578308
2024-12-07 16:10:09.091587300,8.65558740234375,-0.234491154551506,1.0888326168060305,0.8857667446136475
2024-12-07 16:10:09.101615900,8.665615966796874,-0.23662169277668,0.9993504285812378,1.009337306022644
2024-12-07 16:10:09.111644700,8.675644775390625,-0.2302301079034805,0.8704535365104675,1.1350383758544922
2024-12-07 16:10:09.121673200,8.685673095703125,-0.2035985141992569,0.7458177208900452,1.2564784288406372
2024-12-07 16:10:09.131701800,8.69570166015625,-0.1641837656497955,0.6637924313545227,1.3715269565582275
2024-12-07 16:10:09.141730600,8.70573046875,-0.1205079481005668,0.6360955238342285,1.479118585586548
2024-12-07 16:10:09.151759000,8.715759033203126,-0.0874847769737243,0.6542050242424011,1.5739270448684692
2024-12-07 16:10:09.161788000,8.725787841796874,-0.0597879216074943,0.7127945423126221,1.6516913175582886
2024-12-07 16:10:09.171816400,8.73581640625,-0.0267647486180067,0.7937545776367188,1.7177376747131348
2024-12-07 16:10:09.181845000,8.745844970703125,0.0147805325686931,0.9130641222000122,1.7678049802780151
2024-12-07 16:10:09.191873800,8.755873779296875,0.063782662153244,1.0451568365097046,1.8093502521514893
2024-12-07 16:10:09.201902300,8.76590234375,0.1031974181532859,1.1239862442016602,1.8381123542785645
2024-12-07 16:10:09.211931100,8.77593115234375,0.1106542572379112,1.1122684478759766,1.806154489517212
2024-12-07 16:10:09.221959700,8.785959716796874,0.1223721578717231,0.9929588437080384,1.7124112844467163
2024-12-07 16:10:09.231988200,8.79598828125,0.1458079665899276,0.8321040868759155,1.5952322483062744
2024-12-07 16:10:09.242017000,8.80601708984375,0.1426121741533279,0.7447524666786194,1.4759228229522705
2024-12-07 16:10:09.252045600,8.816045654296875,0.1330247968435287,0.6179860830307007,1.3065458536148071
2024-12-07 16:10:09.262074000,8.82607421875,0.1255679577589035,0.4230428338050842,1.1073415279388428
2024-12-07 16:10:09.272103000,8.83610302734375,0.118111103773117,0.224903792142868,0.933703601360321
2024-12-07 16:10:09.282131500,8.84613134765625,0.1500690132379531,0.1396826952695846,0.7973498106002808
2024-12-07 16:10:09.292160300,8.85616015625,0.1948100924491882,0.1535311192274093,0.712128758430481
2024-12-07 16:10:09.302188800,8.866188720703125,0.2587259113788605,0.1908153444528579,0.6514087319374084
2024-12-07 16:10:09.312217300,8.87621728515625,0.3375554084777832,0.2163816839456558,0.5896234512329102
2024-12-07 16:10:09.322246100,8.88624609375,0.4270375669002533,0.1876195520162582,0.5139896869659424
2024-12-07 16:10:09.332274700,8.896274658203126,0.5111933946609497,0.1535311192274093,0.4394212663173675
2024-12-07 16:10:09.342303500,8.906303466796874,0.5751091837882996,0.1109205782413482,0.3744401633739471
2024-12-07 16:10:09.352332000,8.91633203125,0.6038713455200195,0.0299605391919612,0.3169159293174743
2024-12-07 16:10:09.362360600,8.926360595703125,0.6134586930274963,-0.0680437162518501,0.2615222334861755
2024-12-07 16:10:09.372389400,8.936389404296875,0.610262930393219,-0.1234374269843101,0.199736937880516
2024-12-07 16:10:09.382418000,8.94641796875,0.6081323623657227,-0.0925447791814804,0.132625326514244
2024-12-07 16:10:09.392446700,8.95644677734375,0.610262930393219,-0.0201068520545959,0.0729705616831779
2024-12-07 16:10:09.402475300,8.966475341796874,0.5868270993232727,0.0938763618469238,0.0005326318205334
2024-12-07 16:10:09.412503800,8.97650390625,0.5772397518157959,0.1194426864385604,-0.077231615781784
2024-12-07 16:10:09.422532600,8.98653271484375,0.5655218362808228,0.0512658134102821,-0.1464737504720688
2024-12-07 16:10:09.432561200,8.99656103515625,0.5601955056190491,-0.0275636967271566,-0.2071937769651413
2024-12-07 16:10:09.442590000,9.00658984375,0.5719134211540222,-0.0755005627870559,-0.2572611570358276
2024-12-07 16:10:09.452618500,9.016618408203126,0.6038713455200195,-0.0850879326462745,-0.2849580347537994
2024-12-07 16:10:09.462647000,9.02664697265625,0.631568193435669,-0.1085237339138984,-0.3041327595710754
2024-12-07 16:10:09.472675800,9.03667578125,0.6422207951545715,-0.129829004406929,-0.2838927507400512
2024-12-07 16:10:09.482704400,9.046704345703125,0.6528734564781189,-0.1479384899139404,-0.2050632536411285
2024-12-07 16:10:09.492733200,9.056733154296875,0.6230461001396179,-0.1394163817167282,-0.0964063629508018
2024-12-07 16:10:09.502761700,9.06676171875,0.5708481669425964,-0.1383511126041412,0.0090547408908605
2024-12-07 16:10:09.512790300,9.076790283203126,0.5388902425765991,-0.1617869138717651,0.1177116334438324
2024-12-07 16:10:09.522819000,9.086819091796874,0.4834965467453003,-0.1735048145055771,0.2253032624721527
2024-12-07 16:10:09.532847600,9.09684765625,0.4398207366466522,-0.1266332119703292,0.332894891500473
2024-12-07 16:10:09.542876400,9.10687646484375,0.3514038324356079,-0.0573910772800445,0.4106591343879699
2024-12-07 16:10:09.552905000,9.116905029296875,0.2555301189422607,-0.0190415866672992,0.4703139066696167
2024-12-07 16:10:09.562933500,9.12693359375,0.1639174371957779,-0.024367906153202,0.5310339331626892
2024-12-07 16:10:09.572962300,9.13696240234375,0.0680437162518501,-0.0733700320124626,0.5970802903175354
2024-12-07 16:10:09.582990800,9.146990966796874,-0.0182426404207944,-0.1639174371957779,0.6631265878677368
2024-12-07 16:10:09.593019600,9.15701953125,-0.0778974071145057,-0.2800311744213104,0.7099981904029846
2024-12-07 16:10:09.603048200,9.167048095703125,-0.1119858399033546,-0.3929491341114044,0.7270424365997314
2024-12-07 16:10:09.613076700,9.17707666015625,-0.1268995255231857,-0.4824312627315521,0.7068024277687073
2024-12-07 16:10:09.623105500,9.18710546875,-0.1226384788751602,-0.5356944799423218,0.6428865790367126
2024-12-07 16:10:09.633134000,9.197134033203126,-0.0992026776075363,-0.5612607598304749,0.5459476113319397
2024-12-07 16:10:09.643163000,9.207162841796874,-0.0651142373681068,-0.5538039207458496,0.4394212663173675
2024-12-07 16:10:09.653191400,9.21719140625,-0.0235689580440521,-0.5378249883651733,0.3371559381484985
2024-12-07 16:10:09.663220000,9.227219970703125,0.0137152690440416,-0.4877575933933258,0.2540653645992279
2024-12-07 16:10:09.673248800,9.237248779296875,0.0467384420335292,-0.4174501895904541,0.1880190372467041
2024-12-07 16:10:09.683277300,9.24727734375,0.0733700320124626,-0.3492733240127563,0.1304948031902313
2024-12-07 16:10:09.693306000,9.25730615234375,0.0968058332800865,-0.3002711832523346,0.0782968774437904
2024-12-07 16:10:09.703334700,9.267334716796874,0.118111103773117,-0.2832269668579101,0.035686332732439
2024-12-07 16:10:09.713363200,9.27736328125,0.130894273519516,-0.2917490899562835,0.0133157959207892
2024-12-07 16:10:09.723392000,9.28739208984375,0.1340900659561157,-0.3226417303085327,0.0090547408908605
2024-12-07 16:10:09.733420500,9.297420654296875,0.1330247968435287,-0.3535343706607818,0.0037284228019416
2024-12-07 16:10:09.743449300,9.307449462890624,0.1149153187870979,-0.373774379491806,-0.0058589498512446
2024-12-07 16:10:09.753478000,9.317477783203126,0.0925447791814804,-0.3833617568016052,-0.0111852679401636
2024-12-07 16:10:09.763506400,9.32750634765625,0.0850879326462745,-0.395079642534256,-0.0186421144753694
2024-12-07 16:10:09.773535200,9.33753515625,0.0936100408434867,-0.4067975580692291,-0.0367515943944454
2024-12-07 16:10:09.783563800,9.347563720703125,0.107458472251892,-0.4110586047172546,-0.0644484534859657
2024-12-07 16:10:09.793592600,9.357592529296875,0.1255679577589035,-0.4004059731960296,-0.1038632020354271
2024-12-07 16:10:09.803621000,9.36762109375,0.1330247968435287,-0.3748396337032318,-0.1603221744298935
2024-12-07 16:10:09.813649700,9.377649658203126,0.119176372885704,-0.3375554084777832,-0.2295643091201782
2024-12-07 16:10:09.823678500,9.387678466796874,0.0925447791814804,-0.3024017214775085,-0.3051980435848236
2024-12-07 16:10:09.833707000,9.39770703125,0.0595216043293476,-0.2619217038154602,-0.3744401633739471
2024-12-07 16:10:09.843735800,9.40773583984375,0.0275636967271566,-0.2257027328014373,-0.4351601898670196
2024-12-07 16:10:09.853764400,9.417764404296875,0.0009321057004854,-0.1990711390972137,-0.4905539155006408
2024-12-07 16:10:09.863793000,9.42779296875,-0.0203731674700975,-0.1905490309000015,-0.5395560264587402
2024-12-07 16:10:09.873821700,9.43782177734375,-0.0406131781637668,-0.2033322006464004,-0.5768402814865112
2024-12-07 16:10:09.883850200,9.447850341796874,-0.0480700209736824,-0.239551156759262,-0.599210798740387
2024-12-07 16:10:09.893879000,9.457879150390625,-0.0533963404595851,-0.2651174962520599,-0.6119939684867859
2024-12-07 16:10:09.903907600,9.467907470703125,-0.0597879216074943,-0.262986958026886,-0.6215813159942627
2024-12-07 16:10:09.913936100,9.47793603515625,-0.0704405605792999,-0.241681694984436,-0.6354297399520874
2024-12-07 16:10:09.923965000,9.48796484375,-0.0928110927343368,-0.2171806246042251,-0.662061333656311
2024-12-07 16:10:09.933993500,9.497993408203126,-0.1226384788751602,-0.1884185075759887,-0.6940192580223083
2024-12-07 16:10:09.944022300,9.508022216796874,-0.1641837656497955,-0.1458079665899276,-0.720650851726532
2024-12-07 16:10:09.954050800,9.51805078125,-0.1908153444528579,-0.0978710949420929,-0.7419561147689819
2024-12-07 16:10:09.964079400,9.528079345703125,-0.1908153444528579,-0.0488689690828323,-0.7547392845153809
2024-12-07 16:10:09.974108200,9.538108154296877,-0.1833585053682327,-0.0275636967271566,-0.7536740303039551
2024-12-07 16:10:09.984136700,9.54813671875,-0.168444812297821,-0.0850879326462745,-0.7526087760925293
2024-12-07 16:10:09.994165200,9.558165283203126,-0.1205079481005668,-0.2267680019140243,-0.7398256063461304
2024-12-07 16:10:10.004194000,9.568194091796874,-0.033156331628561,-0.3535343706607818,-0.6737792491912842
2024-12-07 16:10:10.014222600,9.57822265625,0.0723047703504562,-0.438755452632904,-0.5214465260505676
2024-12-07 16:10:10.024251100,9.588251220703125,0.1937448233366012,-0.4994754791259765,-0.2828274965286255
2024-12-07 16:10:10.034279700,9.59827978515625,0.3290333151817322,-0.5623260736465454,-0.0143810594454407
2024-12-07 16:10:10.044308200,9.60830810546875,0.4376901984214782,-0.6709829568862915,0.1922800838947296
2024-12-07 16:10:10.054336800,9.618336669921876,0.4898881316184997,-0.7338334918022156,0.3169159293174743
2024-12-07 16:10:10.064365600,9.628365478515626,0.4909533858299255,-0.7189198136329651,0.3882885873317718
2024-12-07 16:10:10.074394000,9.63839404296875,0.4419512450695038,-0.6709829568862915,0.4308991432189941
2024-12-07 16:10:10.084422700,9.648422607421876,0.3567301630973816,-0.5783050060272217,0.4596612751483917
2024-12-07 16:10:10.094451200,9.658451171875,0.2619217038154602,-0.4643217921257019,0.4511391520500183
2024-12-07 16:10:10.104479700,9.668479736328123,0.1649827063083648,-0.3599259555339813,0.3467433154582977
2024-12-07 16:10:10.114508500,9.678508544921876,0.0701742395758628,-0.2821617126464844,0.1486042737960815
2024-12-07 16:10:10.124537000,9.688537109375,-0.0256994850933551,-0.2640522122383117,-0.0964063629508018
2024-12-07 16:10:10.134565600,9.698565673828124,-0.1471395343542099,-0.2800311744213104,-0.3339601457118988
2024-12-07 16:10:10.144594200,9.70859423828125,-0.2526006400585174,-0.2789659202098846,-0.5129244327545166
2024-12-07 16:10:10.154622700,9.718622802734377,-0.3229080438613891,-0.2565953731536865,-0.6482129096984863
2024-12-07 16:10:10.164651500,9.728651611328123,-0.4113249182701111,-0.2118543088436126,-0.7483476996421814
2024-12-07 16:10:10.174680000,9.73868017578125,-0.5093291997909546,-0.1447426974773407,-0.7984151244163513
2024-12-07 16:10:10.184708600,9.74870849609375,-0.5785713195800781,-0.090414248406887,-0.7973498106002808
2024-12-07 16:10:10.194737200,9.758737060546874,-0.6115944981575012,-0.063782662153244,-0.7781751155853271
2024-12-07 16:10:10.204765700,9.768765625,-0.604137659072876,0.0033289489801973,-0.7536740303039551
2024-12-07 16:10:10.214794500,9.77879443359375,-0.558331310749054,0.1716406047344207,-0.7217161059379578
2024-12-07 16:10:10.224823000,9.788822998046877,-0.4816323220729828,0.3761712312698364,-0.6940192580223083
2024-12-07 16:10:10.234851600,9.7988515625,-0.3751059472560882,0.5338302254676819,-0.6929540038108826
2024-12-07 16:10:10.244880100,9.808880126953126,-0.2728406488895416,0.6137250065803528,-0.7025413513183594
2024-12-07 16:10:10.254908700,9.81890869140625,-0.2014679908752441,0.6552702784538269,-0.7302381992340088
2024-12-07 16:10:10.264937500,9.8289375,-0.1631184965372085,0.6840324401855469,-0.7888277173042297
2024-12-07 16:10:10.274966000,9.838966064453125,-0.1556616425514221,0.7181208729743958,-0.842090904712677
2024-12-07 16:10:10.284994600,9.84899462890625,-0.169510081410408,0.742621898651123,-0.8665919899940491
2024-12-07 16:10:10.295023000,9.859023193359375,-0.1897500902414322,0.7287734746932983,-0.850612998008728
2024-12-07 16:10:10.305051600,9.8690517578125,-0.2206427305936813,0.6605966091156006,-0.8058719635009766
2024-12-07 16:10:10.315080400,9.87908056640625,-0.2547311782836914,0.5466133952140808,-0.7419561147689819
2024-12-07 16:10:10.325109000,9.88910888671875,-0.2728406488895416,0.4528702199459076,-0.6588655710220337
2024-12-07 16:10:10.335137500,9.899137451171876,-0.2685796022415161,0.3687143921852112,-0.5789707899093628
2024-12-07 16:10:10.345166000,9.909166015625,-0.2376869469881057,0.2707101106643677,-0.5054675936698914
2024-12-07 16:10:10.355194600,9.919194580078123,-0.1929458826780319,0.1663142889738083,-0.4511391520500183
2024-12-07 16:10:10.365223400,9.929223388671875,-0.1418132185935974,0.102398470044136,-0.400006502866745
2024-12-07 16:10:10.375252000,9.939251953125,-0.102398470044136,0.0757668763399124,-0.354200154542923
2024-12-07 16:10:10.385280500,9.949280517578124,-0.0651142373681068,0.0576573945581913,-0.3137201368808746
2024-12-07 16:10:10.395309000,9.95930908203125,-0.0342215932905674,0.0757668763399124,-0.2668485343456268
2024-12-07 16:10:10.405337600,9.969337646484377,-0.0129163218662142,0.1652490198612213,-0.210389569401741
2024-12-07 16:10:10.415366100,9.9793662109375,0.010519478470087,0.2025332450866699,-0.1933453530073166
2024-12-07 16:10:10.425395000,9.98939501953125,0.0723047703504562,0.1183774247765541,-0.2338253706693649
2024-12-07 16:10:10.435423500,9.999423583984376,0.1468732208013534,0.0246342215687036,-0.3041327595710754
2024-12-07 16:10:10.445452000,10.0094521484375,0.184157446026802,-0.1127847880125045,-0.400006502866745
2024-12-07 16:10:10.455480600,10.01948046875,0.1809616535902023,-0.1617869138717651,-0.4554001986980438
2024-12-07 16:10:10.465509000,10.029509033203125,0.1458079665899276,-0.1788311302661895,-0.4799012839794159
2024-12-07 16:10:10.475538000,10.039537841796877,0.1117195263504982,-0.1980058848857879,-0.4884233772754669
2024-12-07 16:10:10.485566500,10.04956640625,0.0946753025054931,-0.1767006069421768,-0.4767054915428161
2024-12-07 16:10:10.495595000,10.059594970703126,0.091479517519474,-0.1426121741533279,-0.4490086138248443
2024-12-07 16:10:10.505623600,10.06962353515625,0.0968058332800865,-0.1660479754209518,-0.4042675495147705
2024-12-07 16:10:10.515652000,10.079652099609374,0.0968058332800865,-0.1521995365619659,-0.3424822688102722
2024-12-07 16:10:10.525681000,10.089680908203125,0.0712395086884498,-0.0808268785476684,-0.2849580347537994
2024-12-07 16:10:10.535709400,10.09970947265625,0.0605868697166442,0.0406131781637668,-0.221042200922966
2024-12-07 16:10:10.545738000,10.109738037109375,0.0488689690828323,0.1908153444528579,-0.1635179668664932
2024-12-07 16:10:10.555766500,10.1197666015625,0.0296942237764596,0.3218427896499634,-0.1347558498382568
2024-12-07 16:10:10.565795000,10.129795166015626,0.0094542149454355,0.4230428338050842,-0.1390169113874435
2024-12-07 16:10:10.575824000,10.139823974609374,-0.0011984215816482,0.4518049359321594,-0.1613874435424804
2024-12-07 16:10:10.585852400,10.149852294921876,-0.0022636852227151,0.3633880615234375,-0.1944106072187423
2024-12-07 16:10:10.595881000,10.159880859375,0.0051931603811681,0.2408827394247055,-0.2167811542749405
2024-12-07 16:10:10.605909500,10.169909423828123,0.0254331696778535,0.1066595241427421,-0.2476737946271896
2024-12-07 16:10:10.615938000,10.17993798828125,0.0563258156180381,-0.010519478470087,-0.2956106662750244
2024-12-07 16:10:10.625966800,10.189966796875,0.0872184634208679,-0.0946753025054931,-0.3510043621063232
2024-12-07 16:10:10.635995400,10.199995361328124,0.118111103773117,-0.1490037590265274,-0.3914843797683716
2024-12-07 16:10:10.646024000,10.21002392578125,0.1479384899139404,-0.1543300747871399,-0.4106591343879699
2024-12-07 16:10:10.656052500,10.220052490234377,0.1692437678575515,-0.1031974181532859,-0.4298338890075683
2024-12-07 16:10:10.666081000,10.2300810546875,0.1639174371957779,-0.038216333836317,-0.4511391520500183
2024-12-07 16:10:10.676109800,10.24010986328125,0.1372858583927154,-0.1085237339138984,-0.4394212663173675
2024-12-07 16:10:10.686138400,10.250138427734376,0.0850879326462745,-0.1735048145055771,-0.4298338890075683
2024-12-07 16:10:10.696167000,10.2601669921875,0.0307594873011112,-0.2533995807170868,-0.4159854650497436
2024-12-07 16:10:10.706195500,10.270195556640624,-0.019307903945446,-0.2842922210693359,-0.4053328037261963
2024-12-07 16:10:10.716224000,10.28022412109375,-0.062983714044094,-0.2842922210693359,-0.3968107104301452
2024-12-07 16:10:10.726252800,10.290252685546877,-0.102398470044136,-0.250203788280487,-0.4021370112895965
2024-12-07 16:10:10.736281300,10.30028125,-0.1098553165793418,-0.2075932472944259,-0.4042675495147705
2024-12-07 16:10:10.746310000,10.310309814453126,-0.0949416235089302,-0.195875346660614,-0.4010717570781708
2024-12-07 16:10:10.756338400,10.32033837890625,-0.102398470044136,-0.1351553201675415,-0.4223770201206207
2024-12-07 16:10:10.766367000,10.330366943359374,-0.1194426864385604,-0.0552605502307415,-0.462857037782669
2024-12-07 16:10:10.776395500,10.3403955078125,-0.1599227041006088,-0.0648479238152504,-0.4671181142330169
2024-12-07 16:10:10.786424300,10.35042431640625,-0.224903792142868,-0.0627174004912376,-0.4468781054019928
2024-12-07 16:10:10.796452900,10.360452880859375,-0.2930806577205658,-0.0041278963908553,-0.4255728125572204
2024-12-07 16:10:10.806481400,10.3704814453125,-0.3559312224388122,0.0576573945581913,-0.4032022953033447
2024-12-07 16:10:10.816510000,10.380510009765626,-0.40280282497406,0.1034637317061424,-0.3818970024585724
2024-12-07 16:10:10.826538500,10.39053857421875,-0.4315649271011352,0.1332911103963852,-0.3616569936275482
2024-12-07 16:10:10.836567300,10.4005673828125,-0.4411523044109344,0.1482048034667968,-0.3637875318527221
2024-12-07 16:10:10.846595800,10.410595947265625,-0.4336954653263092,0.1290300637483596,-0.4021370112895965
2024-12-07 16:10:10.856624400,10.420624267578123,-0.4113249182701111,0.0938763618469238,-0.4617917835712433
2024-12-07 16:10:10.866653000,10.43065283203125,-0.3814975321292877,0.0683100298047065,-0.5203812718391418
2024-12-07 16:10:10.876681500,10.440681396484376,-0.3516701459884643,0.0459394939243793,-0.5629918575286865
2024-12-07 16:10:10.886710300,10.450710205078124,-0.3271690905094147,0.0416784398257732,-0.5800360441207886
2024-12-07 16:10:10.896738800,10.46073876953125,-0.3037332892417907,0.062983714044094,-0.5661876201629639
2024-12-07 16:10:10.906767400,10.470767333984377,-0.2749711871147156,0.1045289933681488,-0.532099187374115
2024-12-07 16:10:10.916796000,10.4807958984375,-0.2824280261993408,0.1897500902414322,-0.4862928390502929
2024-12-07 16:10:10.926824400,10.490824462890624,-0.2483395934104919,0.2419480085372924,-0.4202465116977691
2024-12-07 16:10:10.936853200,10.500853271484376,-0.2419480085372924,0.3016027808189392,-0.3882885873317718
2024-12-07 16:10:10.946881800,10.5108818359375,-0.2398174703121185,0.3942807018756866,-0.3957454562187195
2024-12-07 16:10:10.956910300,10.520910400390624,-0.2153164148330688,0.4475438892841339,-0.4245075583457947
2024-12-07 16:10:10.966939000,10.53093896484375,-0.2014679908752441,0.4741754829883575,-0.4724444150924682
2024-12-07 16:10:10.976967400,10.540967529296877,-0.1886848211288452,0.4869586527347564,-0.5129244327545166
2024-12-07 16:10:10.986996200,10.550996337890624,-0.1897500902414322,0.5093291997909546,-0.5438171029090881
2024-12-07 16:10:10.997024800,10.561024658203126,-0.2025332450866699,0.5743102431297302,-0.532099187374115
2024-12-07 16:10:11.007053300,10.57105322265625,-0.2185122072696685,0.6819018721580505,-0.4820317924022674
2024-12-07 16:10:11.017081900,10.581081787109374,-0.2664490640163421,0.8203861713409424,-0.4202465116977691
2024-12-07 16:10:11.027110400,10.5911103515625,-0.3207775056362152,0.943956732749939,-0.3254380524158478
2024-12-07 16:10:11.037139200,10.60113916015625,-0.3474090993404388,0.9950894117355348,-0.1858884990215301
2024-12-07 16:10:11.047167700,10.611167724609375,-0.3079943358898163,0.935434639453888,-0.0537958145141601
2024-12-07 16:10:11.057196300,10.6211962890625,-0.2387522161006927,0.8331693410873413,0.0207726415246725
2024-12-07 16:10:11.067224800,10.631224853515626,-0.1759016513824463,0.7586008906364441,-0.0250336956232786
2024-12-07 16:10:11.077253400,10.64125341796875,-0.1972069293260574,0.7159903049468994,-0.0814926698803901
2024-12-07 16:10:11.087282200,10.6512822265625,-0.2664490640163421,0.6829671263694763,0.0399473868310451
2024-12-07 16:10:11.097310700,10.661310791015625,-0.3122554123401642,0.5892239809036255,0.3030675053596496
2024-12-07 16:10:11.107339300,10.67133935546875,-0.2451438009738922,0.42410808801651,0.4894886314868927
2024-12-07 16:10:11.117367800,10.681367919921875,-0.0885500386357307,0.2280995845794677,0.4788359999656677
2024-12-07 16:10:11.127396400,10.691396240234376,0.036085806787014,0.1652490198612213,0.3627222776412964
2024-12-07 16:10:11.137425000,10.7014248046875,0.1202416345477104,0.2664490640163421,0.3659180700778961
2024-12-07 16:10:11.147453700,10.71145361328125,0.1532648056745529,0.434760719537735,0.5012065172195435
2024-12-07 16:10:11.157482200,10.721482177734377,0.1340900659561157,0.554070234298706,0.6801708340644836
2024-12-07 16:10:11.167510800,10.7315107421875,0.0712395086884498,0.5764408111572266,0.8474172353744507
2024-12-07 16:10:11.177539300,10.741539306640624,-0.0043942127376794,0.5242428779602051,1.0072067975997925
2024-12-07 16:10:11.187567900,10.75156787109375,-0.0502005480229854,0.4901544451713562,1.1456910371780396
2024-12-07 16:10:11.197596700,10.7615966796875,-0.0565921291708946,0.491219699382782,1.2564784288406372
2024-12-07 16:10:11.207625200,10.771625244140624,-0.0246342215687036,0.489089161157608,1.3640700578689575
2024-12-07 16:10:11.217653800,10.78165380859375,0.0275636967271566,0.469914436340332,1.4844448566436768
2024-12-07 16:10:11.227682300,10.791682373046877,0.0989363640546798,0.4869586527347564,1.6261249780654907
2024-12-07 16:10:11.237710800,10.8017109375,0.1830921918153762,0.5242428779602051,1.7656744718551636
2024-12-07 16:10:11.247739600,10.81173974609375,0.2683132886886596,0.5348954796791077,1.8839187622070312
2024-12-07 16:10:11.257768200,10.821768310546876,0.3439469933509826,0.5508744716644287,1.98192298412323
2024-12-07 16:10:11.267796700,10.831796630859374,0.4089280664920807,0.5615270733833313,2.050099849700928
2024-12-07 16:10:11.277825300,10.8418251953125,0.4728438854217529,0.5551354885101318,2.093775749206543
2024-12-07 16:10:11.287853800,10.851853759765625,0.5261070728302002,0.5476786494255066,2.0969715118408203
2024-12-07 16:10:11.297882600,10.861882568359375,0.5548691749572754,0.6243776679039001,2.026664018630981
2024-12-07 16:10:11.307911200,10.8719111328125,0.5878923535346985,0.7532745599746704,1.914811372756958
2024-12-07 16:10:11.317939700,10.881939697265626,0.6262418627738953,0.779906153678894,1.780588150024414
2024-12-07 16:10:11.327968300,10.89196826171875,0.6613955497741699,0.7095987200737,1.6303859949111938
2024-12-07 16:10:11.337996800,10.901996826171874,0.6262418627738953,0.6893587112426758,1.502554416656494
2024-12-07 16:10:11.348025600,10.912025634765625,0.5388902425765991,0.5444828867912292,1.3406343460083008
2024-12-07 16:10:11.358054100,10.92205419921875,0.4547344148159027,0.3452785909175873,1.235173225402832
2024-12-07 16:10:11.368082700,10.932082763671875,0.4078628122806549,0.1375521719455719,1.205345869064331
2024-12-07 16:10:11.378111200,10.942111328125,0.3876228034496307,-0.0137152690440416,1.1723226308822632
2024-12-07 16:10:11.388139800,10.952139892578124,0.4025365114212036,-0.0786963477730751,1.119059443473816
2024-12-07 16:10:11.398168600,10.96216845703125,0.4536691606044769,-0.119176372885704,1.071122646331787
2024-12-07 16:10:11.408197000,10.972197021484376,0.497344970703125,-0.1394163817167282,1.0615352392196655
2024-12-07 16:10:11.418225700,10.9822255859375,0.5612607598304749,-0.1980058848857879,1.0796446800231934
2024-12-07 16:10:11.428254200,10.992254150390623,0.6390250325202942,-0.2896185517311096,1.1084067821502686
2024-12-07 16:10:11.438282800,11.00228271484375,0.7146587371826172,-0.4281028211116791,1.1350383758544922
2024-12-07 16:10:11.448311300,11.012311279296876,0.7721830010414124,-0.627307116985321,1.1371688842773438
2024-12-07 16:10:11.458339800,11.02233984375,0.8211851119995117,-0.8084019422531128,1.0977542400360107
2024-12-07 16:10:11.468368400,11.032368408203125,0.8414251208305359,-0.941559910774231,1.0285120010375977
2024-12-07 16:10:11.478397000,11.04239697265625,0.8701872229576111,-1.062999963760376,0.9518130421638488
2024-12-07 16:10:11.488425500,11.052425537109375,0.8723177909851074,-1.0864357948303225,0.8708530068397522
2024-12-07 16:10:11.498454000,11.0624541015625,0.8691219687461853,-1.055543065071106,0.7898929715156555
2024-12-07 16:10:11.508482600,11.072482666015626,0.88297039270401,-1.012932538986206,0.7153245210647583
2024-12-07 16:10:11.518511000,11.082510986328124,0.9298419952392578,-1.0097367763519287,0.6439518928527832
2024-12-07 16:10:11.528539600,11.09253955078125,0.9064062237739564,-0.9298419952392578,0.5342296957969666
2024-12-07 16:10:11.538568200,11.102568115234376,0.8307724595069885,-0.8499472141265869,0.3787012100219726
2024-12-07 16:10:11.548596700,11.1125966796875,0.7636608481407166,-0.7945535182952881,0.2061285078525543
2024-12-07 16:10:11.558625300,11.122625244140623,0.7178545594215393,-0.7721830010414124,0.0484694950282573
2024-12-07 16:10:11.568653800,11.13265380859375,0.6262418627738953,-0.7625955939292908,-0.0687095075845718
2024-12-07 16:10:11.578682400,11.142682373046876,0.4920186400413513,-0.7285071611404419,-0.1486042737960815
2024-12-07 16:10:11.588711000,11.1527109375,0.4131891429424286,-0.6976145505905151,-0.1837579756975174
2024-12-07 16:10:11.598739500,11.162739501953125,0.3428817391395569,-0.594283938407898,-0.2008021920919418
2024-12-07 16:10:11.608768000,11.17276806640625,0.2672480046749115,-0.4579302072525024,-0.210389569401741
2024-12-07 16:10:11.618796500,11.182796630859375,0.2075932472944259,-0.3801659643650055,-0.2167811542749405
2024-12-07 16:10:11.628825000,11.1928251953125,0.1703090220689773,-0.3567301630973816,-0.2082590460777282
2024-12-07 16:10:11.638853600,11.202853515625,0.1372858583927154,-0.3503385782241821,-0.1731053441762924
2024-12-07 16:10:11.648882200,11.212882080078124,0.102132149040699,-0.3396859467029571,-0.1177116334438324
2024-12-07 16:10:11.658910700,11.22291064453125,0.0755005627870559,-0.3332943618297577,-0.0729705616831779
2024-12-07 16:10:11.668939300,11.232939208984376,0.0509994961321353,-0.2874880135059356,-0.0591221302747726
2024-12-07 16:10:11.678967800,11.2429677734375,0.0190415866672992,-0.239551156759262,-0.0825579315423965
2024-12-07 16:10:11.688996400,11.252996337890623,-0.0225036945194005,-0.2235722094774246,-0.1177116334438324
2024-12-07 16:10:11.699025000,11.26302490234375,-0.0661795064806938,-0.2352901101112365,-0.1400821655988693
2024-12-07 16:10:11.709053400,11.273053466796876,-0.1087900474667549,-0.2810964286327362,-0.1507348120212555
2024-12-07 16:10:11.719082000,11.28308203125,-0.1364869028329849,-0.3471427857875824,-0.153930589556694
2024-12-07 16:10:11.729110500,11.293110595703125,-0.1428784877061844,-0.4217112362384796,-0.1400821655988693
2024-12-07 16:10:11.739139000,11.30313916015625,-0.1290300637483596,-0.4866923391819,-0.116646371781826
2024-12-07 16:10:11.749167600,11.313167724609375,-0.0992026776075363,-0.5293028950691223,-0.0921453014016151
2024-12-07 16:10:11.759196200,11.323196044921875,-0.0651142373681068,-0.564456582069397,-0.0782968774437904
2024-12-07 16:10:11.769224700,11.333224609375,-0.0267647486180067,-0.6017407774925232,-0.0814926698803901
2024-12-07 16:10:11.779253200,11.343253173828124,0.0126500055193901,-0.648612380027771,-0.0825579315423965
2024-12-07 16:10:11.789281800,11.35328173828125,0.052064761519432,-0.7082671523094177,-0.0687095075845718
2024-12-07 16:10:11.799310300,11.363310302734376,0.102132149040699,-0.7668566703796387,-0.0410126484930515
2024-12-07 16:10:11.809339000,11.3733388671875,0.1543300747871399,-0.7860314249992371,-0.010120004415512
2024-12-07 16:10:11.819367400,11.383367431640623,0.2054627239704132,-0.7625955939292908,0.0122505314648151
2024-12-07 16:10:11.829396000,11.39339599609375,0.2821617126464844,-0.7647261619567871,0.023968432098627
2024-12-07 16:10:11.839424500,11.403424560546876,0.3695133328437805,-0.7839008569717407,0.0346210673451423
2024-12-07 16:10:11.849453000,11.413453125,0.4728438854217529,-0.8499472141265869,0.0335558056831359
2024-12-07 16:10:11.859481600,11.423481689453125,0.564456582069397,-0.958604097366333,0.0111852679401636
2024-12-07 16:10:11.869510100,11.43351025390625,0.6177197694778442,-1.0108020305633545,-0.0346210673451423
2024-12-07 16:10:11.879538700,11.44353857421875,0.61878502368927,-0.9554083347320556,-0.1198421567678451
2024-12-07 16:10:11.889567000,11.45356689453125,0.5846965909004211,-0.8552735447883606,-0.2402169555425644
2024-12-07 16:10:11.899595500,11.463595458984376,0.5207807421684265,-0.7508777379989624,-0.3563306927680969
2024-12-07 16:10:11.909624000,11.4736240234375,0.4259723126888275,-0.669917643070221,-0.4351601898670196
2024-12-07 16:10:11.919652600,11.483652587890624,0.308793306350708,-0.6379597783088684,-0.4713791608810425
2024-12-07 16:10:11.929681200,11.49368115234375,0.2012016773223877,-0.6550039649009705,-0.4948149621486664
2024-12-07 16:10:11.939709700,11.503709716796877,0.118111103773117,-0.7093324065208435,-0.5289034247398376
2024-12-07 16:10:11.949738200,11.51373828125,0.0488689690828323,-0.7551387548446655,-0.5853623747825623
2024-12-07 16:10:11.959766800,11.523766845703124,-0.0225036945194005,-0.7519429922103882,-0.6641919016838074
2024-12-07 16:10:11.969795300,11.53379541015625,-0.102398470044136,-0.6454166173934937,-0.7419561147689819
2024-12-07 16:10:11.979823900,11.543823974609374,-0.1993374526500702,-0.4398207366466522,-0.8090677261352539
2024-12-07 16:10:11.989852400,11.553852294921874,-0.281362771987915,-0.1660479754209518,-0.863396167755127
