time,seconds_elapsed,z,y,x
2024-12-07 15:59:52.277661200,0.2156611328125,-0.5797697305679321,-0.1388837546110153,-0.3386206924915313
2024-12-07 15:59:52.287544000,0.2255439453125,-0.6585992574691772,-0.1537974327802658,-0.37590491771698
2024-12-07 15:59:52.297462300,0.235462158203125,-0.8098666667938232,-0.1953427195549011,-0.3822965025901794
2024-12-07 15:59:52.307418400,0.24541845703125,-1.2040141820907593,-0.3029343485832214,-0.3822965025901794
2024-12-07 15:59:52.317414100,0.2554140625,-1.5534206628799438,-0.2773680090904236,-0.419580727815628
2024-12-07 15:59:52.327448800,0.26544873046875,-1.6982965469360352,-0.2656501233577728,-0.3854922652244568
2024-12-07 15:59:52.337521000,0.27552099609375,-1.6897743940353394,-0.3189133107662201,-0.3609912097454071
2024-12-07 15:59:52.347627000,0.285626953125,-1.585378646850586,-0.3253048956394195,-0.308793306350708
2024-12-07 15:59:52.357762600,0.295762451171875,-1.3531510829925537,-0.2006690353155136,-0.1905490309000015
2024-12-07 15:59:52.367922000,0.305921875,-1.0559425354003906,-0.1452753245830536,-0.1447426974773407
2024-12-07 15:59:52.378099000,0.316098876953125,-0.8013445734977722,-0.1655153334140777,-0.1671132296323776
2024-12-07 15:59:52.388287200,0.326287353515625,-0.622380256652832,-0.1601890176534652,-0.1894837766885757
2024-12-07 15:59:52.398479400,0.336479248046875,-0.4956139028072357,-0.1250353157520294,-0.2022669315338134
2024-12-07 15:59:52.408606000,0.34660595703125,-0.3848264813423157,-0.0920121446251869,-0.2171806246042251
2024-12-07 15:59:52.418633200,0.35663330078125,-0.2921485602855682,-0.084555298089981,-0.2288985252380371
2024-12-07 15:59:52.428660500,0.366660400390625,-0.2026664018630981,-0.1079910993576049,-0.2491385340690612
2024-12-07 15:59:52.438687500,0.3766875,-0.0727042406797409,-0.0898816213011741,-0.2352901101112365
2024-12-07 15:59:52.448714800,0.38671484375,0.060453712940216,-0.0419447571039199,-0.2193111479282379
2024-12-07 15:59:52.458742000,0.396741943359375,0.1478053331375122,-0.0259658005088567,-0.2065279930830001
2024-12-07 15:59:52.468769300,0.406769287109375,0.1115863695740699,-0.0376837030053138,-0.1809616535902023
2024-12-07 15:59:52.478796300,0.41679638671875,0.058323185890913,-0.0813595131039619,-0.1532648056745529
2024-12-07 15:59:52.488823600,0.426823486328125,-0.0023968431632965,-0.1367532163858413,-0.1351553201675415
2024-12-07 15:59:52.498850800,0.436850830078125,-0.1536642760038375,-0.1484711170196533,-0.1266332119703292
2024-12-07 15:59:52.508877800,0.4468779296875,-0.2463422119617462,-0.2315616905689239,-0.1553953289985656
2024-12-07 15:59:52.518905000,0.456905029296875,-0.4412854611873626,-0.1985385119915008,-0.185222715139389
2024-12-07 15:59:52.528932400,0.466932373046875,-0.735298216342926,-0.1388837546110153,-0.2278332561254501
2024-12-07 15:59:52.538959400,0.47695947265625,-1.0559425354003906,-0.1037300452589988,-0.2565953731536865
2024-12-07 15:59:52.548986600,0.486986572265625,-1.3339763879776,-0.1793637722730636,-0.2896185517311096
2024-12-07 15:59:52.559014000,0.497013916015625,-1.531050205230713,-0.2848248779773712,-0.3247722387313843
2024-12-07 15:59:52.569041200,0.507041259765625,-1.683382868766785,-0.3945470154285431,-0.3567301630973816
2024-12-07 15:59:52.579068200,0.517068115234375,-1.7622123956680298,-0.3625891208648681,-0.3439469933509826
2024-12-07 15:59:52.589095400,0.527095458984375,-1.680187106132507,-0.1708416491746902,-0.2874880135059356
2024-12-07 15:59:52.599122700,0.537122802734375,-1.5342459678649902,-0.1495363861322403,-0.3109238147735595
2024-12-07 15:59:52.609149700,0.547149658203125,-1.3265196084976196,-0.264584869146347,-0.3492733240127563
2024-12-07 15:59:52.619177000,0.557177001953125,-1.0942920446395874,-0.3625891208648681,-0.3482080399990082
2024-12-07 15:59:52.629204200,0.567204345703125,-0.8748477697372437,-0.3487406969070434,-0.3215764760971069
2024-12-07 15:59:52.639231200,0.577231201171875,-0.6607297658920288,-0.3103911876678467,-0.3130543529987335
2024-12-07 15:59:52.649258500,0.587258544921875,-0.4530033767223358,-0.2773680090904236,-0.3024017214775085
2024-12-07 15:59:52.659285800,0.59728564453125,-0.2836264371871948,-0.2709764242172241,-0.3045322299003601
2024-12-07 15:59:52.669313000,0.60731298828125,-0.170708492398262,-0.2997385561466217,-0.3141196072101593
2024-12-07 15:59:52.679340000,0.617340087890625,-0.1142495274543762,-0.3242396116256714,-0.306662768125534
2024-12-07 15:59:52.689367300,0.6273671875,-0.1153147891163826,-0.3434143662452698,-0.308793306350708
2024-12-07 15:59:52.699394600,0.63739453125,-0.160055860877037,-0.3572627902030945,-0.3269027769565582
2024-12-07 15:59:52.709421600,0.647421630859375,-0.3528685867786407,-0.3487406969070434,-0.3215764760971069
2024-12-07 15:59:52.719448800,0.65744873046875,-0.7534077167510986,-0.3913512229919433,-0.3791007101535797
2024-12-07 15:59:52.729476000,0.66747607421875,-1.1262500286102295,-0.4882902204990387,-0.3897533416748047
2024-12-07 15:59:52.739503000,0.677503173828125,-1.2860394716262815,-0.6672545075416565,-0.2938795983791351
2024-12-07 15:59:52.749530400,0.6875302734375,-1.195492148399353,-0.7162566184997559,-0.2693785429000854
2024-12-07 15:59:52.759557600,0.6975576171875,-0.9462204575538636,-0.5181176066398621,-0.2938795983791351
2024-12-07 15:59:52.769585000,0.7075849609375,-0.6340981721878052,-0.2922817170619964,-0.260856419801712
2024-12-07 15:59:52.779612000,0.71761181640625,-0.3720433413982391,-0.1580584943294525,-0.1820269227027893
2024-12-07 15:59:52.789639200,0.72763916015625,-0.2324937880039215,-0.2145174592733383,-0.1362205892801284
2024-12-07 15:59:52.799666400,0.73766650390625,-0.2079927325248718,-0.407330185174942,-0.1628521829843521
2024-12-07 15:59:52.809693400,0.747693359375,-0.2474074810743332,-0.4573975801467895,-0.229963794350624
2024-12-07 15:59:52.819720700,0.757720703125,-0.2868222296237945,-0.3061301410198211,-0.250203788280487
2024-12-07 15:59:52.829748000,0.767748046875,-0.3241064548492431,-0.1910816729068756,-0.2928143441677093
2024-12-07 15:59:52.839775000,0.77777490234375,-0.3688475489616394,-0.1271658539772033,-0.3322291076183319
2024-12-07 15:59:52.849802200,0.78780224609375,-0.416784405708313,-0.0728374049067497,-0.4014712274074554
2024-12-07 15:59:52.859829500,0.79782958984375,-0.5094623565673828,0.1743037700653076,-0.4036017656326294
2024-12-07 15:59:52.869856800,0.807856689453125,-0.7012097835540771,0.5759081840515137,-0.2757701277732849
2024-12-07 15:59:52.879883800,0.8178837890625,-0.7704519033432007,0.3735080659389496,-0.3226417303085327
2024-12-07 15:59:52.889911000,0.8279111328125,-0.7001445293426514,-0.0089215831831097,-0.395079642534256
2024-12-07 15:59:52.899938300,0.837938232421875,-0.5126581192016602,-0.2699111700057983,-0.3482080399990082
2024-12-07 15:59:52.909965300,0.84796533203125,-0.2804306447505951,-0.2091911435127258,-0.2267680019140243
2024-12-07 15:59:52.919992600,0.85799267578125,-0.5360939502716064,-0.1889511346817016,-0.3556649088859558
2024-12-07 15:59:52.930019800,0.868019775390625,-0.885500431060791,-0.4872249662876129,-0.5410207509994507
2024-12-07 15:59:52.940047000,0.878047119140625,-0.84821617603302,-0.7354313731193542,-0.5005407333374023
2024-12-07 15:59:52.950074000,0.88807421875,-0.651142418384552,-0.7215829491615295,-0.3407512009143829
2024-12-07 15:59:52.960101400,0.898101318359375,-0.5520728826522827,-0.5298355221748352,-0.2470080107450485
2024-12-07 15:59:52.970128600,0.908128662109375,-0.5712476372718811,-0.4627238810062408,-0.2118543088436126
2024-12-07 15:59:52.980156000,0.918156005859375,-0.5563339591026306,-0.4297007322311401,-0.1436774283647537
2024-12-07 15:59:52.990183200,0.92818310546875,-0.492418110370636,-0.3743070065975189,-0.0691089779138565
2024-12-07 15:59:53.000210400,0.93821044921875,-0.3560643792152405,-0.1676458716392517,0.0299605391919612
2024-12-07 15:59:53.010237700,0.94823779296875,-0.1387505829334259,0.0826910883188247,0.1258342713117599
2024-12-07 15:59:53.020265000,0.958264892578125,-0.052464235574007,0.1412805914878845,0.1503353267908096
2024-12-07 15:59:53.030292000,0.9682919921875,-0.02689790725708,0.2318280041217804,0.1418132185935974
2024-12-07 15:59:53.040319200,0.9783193359375,-0.010918952524662,0.3117227852344513,0.1237037405371666
2024-12-07 15:59:53.050346500,0.988346435546875,-0.0173105336725711,0.3884217441082001,0.1183774247765541
2024-12-07 15:59:53.060373800,0.998373779296875,-0.0428768619894981,0.4629902243614197,0.1066595241427421
2024-12-07 15:59:53.070401000,1.008401123046875,-0.0727042406797409,0.4800344407558441,0.073636345565319
2024-12-07 15:59:53.080428300,1.01842822265625,-0.1142495274543762,0.4203796684741974,0.007590003311634
2024-12-07 15:59:53.090455600,1.02845556640625,-0.1877527236938476,0.3074617087841034,-0.0755005627870559
2024-12-07 15:59:53.100482800,1.03848291015625,-0.2836264371871948,0.1732385009527206,-0.1170458421111106
2024-12-07 15:59:53.110510000,1.048510009765625,-0.3549990952014923,0.0635163411498069,-0.1490037590265274
2024-12-07 15:59:53.120537300,1.058537353515625,-0.404001235961914,0.0027963169850409,-0.1777658760547638
2024-12-07 15:59:53.130564400,1.068564453125,-0.4242412447929382,0.0017310534603893,-0.1937448233366012
2024-12-07 15:59:53.140591600,1.078591552734375,-0.4274370372295379,0.0454068630933761,-0.2033322006464004
2024-12-07 15:59:53.150619000,1.088618896484375,-0.4210454523563385,0.1593900769948959,-0.2193111479282379
2024-12-07 15:59:53.160646100,1.098646240234375,-0.3795001804828644,0.3245059251785278,-0.2480732649564743
2024-12-07 15:59:53.170673400,1.10867333984375,-0.3070622384548187,0.4917523264884949,-0.2779006659984588
2024-12-07 15:59:53.180700700,1.11870068359375,-0.2580601274967193,0.5950828790664673,-0.3024017214775085
2024-12-07 15:59:53.190728000,1.12872802734375,-0.2506032586097717,0.6494113206863403,-0.306662768125534
2024-12-07 15:59:53.200755200,1.138755126953125,-0.2708432674407959,0.654737651348114,-0.2896185517311096
2024-12-07 15:59:53.210782500,1.148782470703125,-0.303866446018219,0.6270408034324646,-0.2597911655902862
2024-12-07 15:59:53.220809700,1.158809814453125,-0.3358243703842163,0.5737776160240173,-0.2374206334352493
2024-12-07 15:59:53.230837000,1.1688369140625,-0.3645864725112915,0.5056007504463196,-0.2257027328014373
2024-12-07 15:59:53.240864000,1.178864013671875,-0.4114580750465393,0.4629902243614197,-0.2225069403648376
2024-12-07 15:59:53.250891300,1.188891357421875,-0.4476770460605621,0.4565986394882202,-0.1926795542240142
2024-12-07 15:59:53.260918500,1.19891845703125,-0.4476770460605621,0.4320975542068481,-0.1202416345477104
2024-12-07 15:59:53.270945800,1.20894580078125,-0.4221107065677643,0.3916175365447998,-0.0254331696778535
2024-12-07 15:59:53.280973000,1.21897314453125,-0.347542256116867,0.325571209192276,0.0928110927343368
2024-12-07 15:59:53.291000300,1.229000244140625,-0.2229064106941223,0.2414153665304184,0.2195774614810943
2024-12-07 15:59:53.301027600,1.239027587890625,-0.0556600242853164,0.14554163813591,0.3292996287345886
2024-12-07 15:59:53.311054800,1.249054931640625,0.0870852991938591,0.0539289712905883,0.3857586085796356
2024-12-07 15:59:53.321082000,1.25908203125,0.1541969180107116,-0.0536626577377319,0.4432828426361084
2024-12-07 15:59:53.331109400,1.269109375,0.1840242892503738,-0.1900164037942886,0.5796365737915039
2024-12-07 15:59:53.341136400,1.279136474609375,0.2447443157434463,-0.2635195851325989,0.7532745599746704
2024-12-07 15:59:53.351163600,1.28916357421875,0.3225085735321045,-0.2954775094985962,0.8949546217918396
2024-12-07 15:59:53.361191000,1.29919091796875,0.4013380706310272,-0.285890132188797,1.0025461912155151
2024-12-07 15:59:53.371218200,1.30921826171875,0.4663191735744476,-0.2454101145267486,1.1058768033981323
2024-12-07 15:59:53.381245400,1.319245361328125,0.5238434076309204,-0.1974732428789138,1.2443610429763794
2024-12-07 15:59:53.391272700,1.329272705078125,0.5707150101661682,-0.1442100703716278,1.4222601652145386
2024-12-07 15:59:53.401300000,1.339300048828125,0.6101297736167908,-0.123970054090023,1.6097465753555298
2024-12-07 15:59:53.411327200,1.3493271484375,0.6399571299552917,-0.113317422568798,1.7759276628494265
2024-12-07 15:59:53.421354500,1.3593544921875,0.6250434517860413,-0.0270310640335083,1.881388783454895
2024-12-07 15:59:53.431381500,1.369381591796875,0.5589970946311951,0.1764342933893203,1.9090856313705444
2024-12-07 15:59:53.441408800,1.37940869140625,0.5185170769691467,0.3735080659389496,1.8387782573699951
2024-12-07 15:59:53.451436000,1.38943603515625,0.534496009349823,0.5450155138969421,1.6960328817367554
2024-12-07 15:59:53.461463300,1.39946337890625,0.626108705997467,0.7026745080947876,1.5319823026657104
2024-12-07 15:59:53.471490300,1.409490234375,0.7965508699417114,0.7495461106300354,1.41693377494812
2024-12-07 15:59:53.481517600,1.419517578125,0.9499488472938538,0.6036050319671631,1.375388503074646
2024-12-07 15:59:53.491544800,1.429544921875,1.001081466674805,0.2968090772628784,1.3689969778060913
2024-12-07 15:59:53.501571800,1.43957177734375,0.9797762632369996,-0.1005342528223991,1.291232705116272
2024-12-07 15:59:53.511599000,1.44959912109375,0.948883593082428,-0.4946818053722381,1.069657802581787
2024-12-07 15:59:53.521626400,1.45962646484375,0.9318393468856812,-0.8121303915977478,0.792689323425293
2024-12-07 15:59:53.531653400,1.4696533203125,0.9552751779556274,-1.0741852521896362,0.5551354885101318
2024-12-07 15:59:53.541680600,1.4796806640625,1.0085383653640747,-1.1785811185836792,0.4187817573547363
2024-12-07 15:59:53.551708000,1.4897080078125,1.0724542140960691,-1.092294692993164,0.3793670237064361
2024-12-07 15:59:53.561735200,1.499735107421875,1.1672626733779907,-0.9474188685417176,0.413455456495285
2024-12-07 15:59:53.571762200,1.50976220703125,1.263136386871338,-0.8089345693588257,0.4954807460308075
2024-12-07 15:59:53.581789400,1.51978955078125,1.3025511503219604,-0.7343661189079285,0.5934849977493286
2024-12-07 15:59:53.591816700,1.529816650390625,1.2897679805755615,-0.7652587890625,0.6829671263694763
2024-12-07 15:59:53.601843700,1.53984375,1.2407658100128174,-0.8962861895561218,0.7532745599746704
2024-12-07 15:59:53.611871000,1.54987109375,1.1800458431243896,-1.1263831853866575,0.7980156540870667
2024-12-07 15:59:53.621898200,1.559898193359375,1.0980205535888672,-1.29362952709198,0.7831019163131714
2024-12-07 15:59:53.631925200,1.56992529296875,1.0138646364212036,-1.0560756921768188,0.6808366179466248
2024-12-07 15:59:53.641952500,1.579952392578125,0.9211867451667786,-0.4872249662876129,0.4880239069461822
2024-12-07 15:59:53.651979800,1.589979736328125,0.8125298619270325,-0.4126565158367157,0.3239732980728149
2024-12-07 15:59:53.662007000,1.600007080078125,0.6974813938140869,-0.6597976684570312,0.2387522161006927
2024-12-07 15:59:53.672034000,1.610033935546875,0.5920202732086182,-0.7631282210350037,0.1844237744808197
2024-12-07 15:59:53.682061300,1.620061279296875,0.5206475853919983,-0.8270440697669983,0.1300953179597854
2024-12-07 15:59:53.692088600,1.630088623046875,0.4780370593070984,-1.025183081626892,0.0778974071145057
2024-12-07 15:59:53.702115600,1.640115478515625,0.4567317962646484,-1.2073432207107544,0.0107857948169112
2024-12-07 15:59:53.712142800,1.650142822265625,0.4364917874336242,-1.2776505947113037,-0.0829574093222618
2024-12-07 15:59:53.722170000,1.660170166015625,0.3906854391098022,-1.2669979333877563,-0.1916143000125885
2024-12-07 15:59:53.732197000,1.670197021484375,0.3320959508419037,-1.2307789325714111,-0.2906838059425354
2024-12-07 15:59:53.742224400,1.680224365234375,0.2713759243488312,-1.2148000001907349,-0.3791007101535797
2024-12-07 15:59:53.752251600,1.690251708984375,0.193611666560173,-1.1508841514587402,-0.4664523303508758
2024-12-07 15:59:53.762279000,1.70027880859375,0.098803199827671,-1.0539451837539673,-0.5474123358726501
2024-12-07 15:59:53.772306000,1.710305908203125,-0.0098536890000104,-0.9399620294570924,-0.6209155321121216
2024-12-07 15:59:53.782333200,1.720333251953125,-0.1238368973135948,-0.7812377214431763,-0.685896635055542
2024-12-07 15:59:53.792360400,1.7303603515625,-0.2229064106941223,-0.5884249806404114,-0.740225076675415
2024-12-07 15:59:53.802387500,1.740387451171875,-0.3017359375953674,-0.405199646949768,-0.7775092720985413
2024-12-07 15:59:53.812414700,1.750414794921875,-0.3486075401306152,-0.2656501233577728,-0.7849661707878113
2024-12-07 15:59:53.822442000,1.76044189453125,-0.3549990952014923,-0.217713251709938,-0.7785745859146118
2024-12-07 15:59:53.832469000,1.770468994140625,-0.3347590863704681,-0.2443448454141616,-0.7519429922103882
2024-12-07 15:59:53.842496300,1.780496337890625,-0.3123885691165924,-0.3327617347240448,-0.7050713896751404
2024-12-07 15:59:53.852523500,1.7905234375,-0.3017359375953674,-0.4488754570484161,-0.6720482110977173
2024-12-07 15:59:53.862550800,1.80055078125,-0.284691721200943,-0.5404881238937378,-0.6560692191123962
2024-12-07 15:59:53.872577800,1.810577880859375,-0.2772348523139953,-0.5926860570907593,-0.6422207951545715
2024-12-07 15:59:53.882605000,1.82060498046875,-0.2921485602855682,-0.6299703121185303,-0.6091976165771484
2024-12-07 15:59:53.892632300,1.83063232421875,-0.3187801539897918,-0.6789724230766296,-0.5314334034919739
2024-12-07 15:59:53.902659300,1.840659423828125,-0.3315632939338684,-0.7599324584007263,-0.3982754349708557
2024-12-07 15:59:53.912686600,1.8506865234375,-0.2953443527221679,-0.7716503739356995,-0.2129195630550384
2024-12-07 15:59:53.922713900,1.8607138671875,-0.1813611388206482,-0.6139913201332092,-0.0158457960933446
2024-12-07 15:59:53.932740900,1.870740966796875,0.0082557927817106,-0.3924165070056915,0.1226384788751602
2024-12-07 15:59:53.942768000,1.88076806640625,0.2074600905179977,-0.2656501233577728,0.1759016513824463
2024-12-07 15:59:53.952795400,1.89079541015625,0.4077296555042267,-0.218778520822525,0.1950764060020446
2024-12-07 15:59:53.962822700,1.90082275390625,0.6250434517860413,-0.3125217258930206,0.2110553532838821
2024-12-07 15:59:53.972850000,1.910849853515625,0.7805719375610352,-0.3902859687805176,0.2526006400585174
2024-12-07 15:59:53.982877200,1.920877197265625,0.7699192762374878,-0.3103911876678467,0.289884865283966
2024-12-07 15:59:53.992904400,1.930904541015625,0.6111950278282166,-0.123970054090023,0.2717753946781158
2024-12-07 15:59:54.002931700,1.940931640625,0.4055991172790527,0.0251668542623519,0.1940111368894577
2024-12-07 15:59:54.012959000,1.950958984375,0.2074600905179977,0.0667121335864067,0.0821584612131118
2024-12-07 15:59:54.022986200,1.960986328125,0.030626330524683,0.0198405347764492,-0.0456731803715229
2024-12-07 15:59:54.033013500,1.971013427734375,-0.1483379602432251,-0.0195742193609476,-0.2097237855195999
2024-12-07 15:59:54.043040500,1.98104052734375,-0.3539338409900665,-0.018508955836296,-0.4099933505058288
2024-12-07 15:59:54.053067800,1.99106787109375,-0.5819002389907837,-0.0057257921434938,-0.6145239472389221
2024-12-07 15:59:54.063095000,2.001094970703125,-0.7534077167510986,0.0890826731920242,-0.7636608481407166
2024-12-07 15:59:54.073122300,2.011122314453125,-0.8151929974555969,0.2190448343753814,-0.8446208834648132
2024-12-07 15:59:54.083149600,2.021149658203125,-0.8045403361320496,0.3063964545726776,-0.8382292985916138
2024-12-07 15:59:54.093176800,2.0311767578125,-0.7832350730895996,0.3532680571079254,-0.7455514073371887
2024-12-07 15:59:54.103204000,2.0412041015625,-0.7406245470046997,0.4608596861362457,-0.5985450148582458
2024-12-07 15:59:54.113231400,2.0512314453125,-0.6649908423423767,0.7165229320526123,-0.4440817832946777
2024-12-07 15:59:54.123258600,2.061258544921875,-0.58403080701828,1.053146243095398,-0.3002711832523346
2024-12-07 15:59:54.133286000,2.071285888671875,-0.5137233734130859,1.3130706548690796,-0.1553953289985656
2024-12-07 15:59:54.143313000,2.08131298828125,-0.471112847328186,1.503752827644348,-0.0296942237764596
2024-12-07 15:59:54.153340200,2.091340087890625,-0.4870918095111847,1.6528897285461426,0.0768321380019187
2024-12-07 15:59:54.163367400,2.101367431640625,-0.5648560523986816,1.758350849151611,0.157792180776596
2024-12-07 15:59:54.173394700,2.111394775390625,-0.6735129356384277,1.826527714729309,0.1556616425514221
2024-12-07 15:59:54.183422000,2.121421875,-0.7864308953285217,1.8425066471099856,0.0640489757061004
2024-12-07 15:59:54.193449200,2.13144921875,-0.8844351172447205,1.7327845096588137,-0.0531300231814384
2024-12-07 15:59:54.203476500,2.1414765625,-0.961134135723114,1.4409022331237793,-0.1394163817167282
2024-12-07 15:59:54.213503700,2.151503662109375,-0.999483585357666,0.9732515215873718,-0.1681784987449646
2024-12-07 15:59:54.223531000,2.161531005859375,-0.9792435765266418,0.4384891390800476,-0.2012016773223877
2024-12-07 15:59:54.233558300,2.171558349609375,-0.9100014567375184,-0.0536626577377319,-0.3386206924915313
2024-12-07 15:59:54.243585500,2.18158544921875,-0.7715172171592712,-0.3210438191890716,-0.4941491782665252
2024-12-07 15:59:54.253612500,2.191612548828125,-0.6074665784835815,-0.3583280444145202,-0.5772397518157959
2024-12-07 15:59:54.263639800,2.201639892578125,-0.4370244145393371,-0.2102564126253128,-0.5996102690696716
2024-12-07 15:59:54.273667000,2.2116669921875,-0.2644517123699188,0.0230363253504037,-0.5697829127311707
2024-12-07 15:59:54.283694300,2.2216943359375,-0.0950747802853584,0.1860216706991195,-0.495214432477951
2024-12-07 15:59:54.293721600,2.2317216796875,0.0412789657711982,0.27763432264328,-0.4099933505058288
2024-12-07 15:59:54.303748900,2.241748779296875,0.1499358564615249,0.3319627940654754,-0.3407512009143829
2024-12-07 15:59:54.313776000,2.251776123046875,0.2213085144758224,0.2893522381782532,-0.298140674829483
2024-12-07 15:59:54.323803400,2.261803466796875,0.2468748539686203,0.1934785097837448,-0.2970753908157348
2024-12-07 15:59:54.333830700,2.27183056640625,0.2362222075462341,0.0603205524384975,-0.3439469933509826
2024-12-07 15:59:54.343858000,2.28185791015625,0.2095906287431717,-0.0877510905265808,-0.4238417744636535
2024-12-07 15:59:54.353885000,2.291885009765625,0.181893765926361,-0.2166479974985122,-0.514389157295227
2024-12-07 15:59:54.363912200,2.301912109375,0.1435442715883255,-0.3008038103580475,-0.5751091837882996
2024-12-07 15:59:54.373939500,2.311939453125,0.0892158299684524,-0.3444796204566955,-0.5996102690696716
2024-12-07 15:59:54.383966700,2.321966796875,0.0593884475529193,-0.405199646949768,-0.5889576077461243
2024-12-07 15:59:54.393994000,2.331993896484375,0.0551273934543132,-0.4307659864425659,-0.5665870904922485
2024-12-07 15:59:54.404021200,2.342021240234375,0.0476705469191074,-0.4211786091327667,-0.543151319026947
2024-12-07 15:59:54.414048500,2.352048583984375,0.0402137041091918,-0.3593933284282684,-0.5154544711112976
2024-12-07 15:59:54.424075800,2.36207568359375,0.0498010739684104,-0.2411490529775619,-0.4792354702949524
2024-12-07 15:59:54.434103000,2.37210302734375,0.0636495053768158,-0.0898816213011741,-0.4376901984214782
2024-12-07 15:59:54.444130000,2.382130126953125,0.0828242450952529,0.0731037184596061,-0.3908185958862304
2024-12-07 15:59:54.454157300,2.3921572265625,0.1030642539262771,0.2414153665304184,-0.3407512009143829
2024-12-07 15:59:54.464184600,2.4021845703125,0.115847423672676,0.3671164810657501,-0.3130543529987335
2024-12-07 15:59:54.474211800,2.4122119140625,0.1073253154754638,0.4384891390800476,-0.308793306350708
2024-12-07 15:59:54.484238800,2.42223876953125,0.088150568306446,0.4779039025306701,-0.3055975139141083
2024-12-07 15:59:54.494266000,2.43226611328125,0.0561926588416099,0.4853607416152954,-0.3024017214775085
2024-12-07 15:59:54.504293400,2.44229345703125,0.0071905297227203,0.4597944319248199,-0.2949448823928833
2024-12-07 15:59:54.514320400,2.4523203125,-0.052464235574007,0.4065312445163727,-0.2928143441677093
2024-12-07 15:59:54.524347600,2.46234765625,-0.1110537350177764,0.3394196331501007,-0.2970753908157348
2024-12-07 15:59:54.534375000,2.472375,-0.1568600684404373,0.2872216999530792,-0.2992059290409088
2024-12-07 15:59:54.544402000,2.48240185546875,-0.1877527236938476,0.2392848432064056,-0.2992059290409088
2024-12-07 15:59:54.554429200,2.49242919921875,-0.1930790394544601,0.2041311413049698,-0.2874880135059356
2024-12-07 15:59:54.564456400,2.50245654296875,-0.1920137703418731,0.1561942845582962,-0.2715090811252594
2024-12-07 15:59:54.574483700,2.512483642578125,-0.2016011476516723,0.0944089889526367,-0.2842922210693359
2024-12-07 15:59:54.584510700,2.5225107421875,-0.1834916621446609,0.107192151248455,-0.3119890987873077
2024-12-07 15:59:54.594538000,2.5325380859375,-0.170708492398262,0.1860216706991195,-0.3545996248722076
2024-12-07 15:59:54.604565200,2.542565185546875,-0.1824263930320739,0.2648511826992035,-0.4227765202522278
2024-12-07 15:59:54.614592300,2.55259228515625,-0.1888179779052734,0.3095922470092773,-0.4898881316184997
2024-12-07 15:59:54.624619500,2.56261962890625,-0.227167472243309,0.314918577671051,-0.5367597341537476
2024-12-07 15:59:54.634646800,2.572646728515625,-0.2900180220603943,0.2936132848262787,-0.555934488773346
2024-12-07 15:59:54.644673800,2.582673828125,-0.3571296334266662,0.2456764280796051,-0.5356944799423218
2024-12-07 15:59:54.654701000,2.592701171875,-0.4434159994125366,0.1657816469669342,-0.5069323182106018
2024-12-07 15:59:54.664728300,2.602728271484375,-0.47324338555336,0.1572595387697219,-0.4376901984214782
2024-12-07 15:59:54.674755600,2.612755615234375,-0.4998749494552612,0.1636511236429214,-0.3801659643650055
2024-12-07 15:59:54.684782600,2.622782470703125,-0.5265065431594849,0.1796300858259201,-0.3663175404071808
2024-12-07 15:59:54.694809900,2.632809814453125,-0.5350286364555359,0.2073269337415695,-0.3588607013225555
2024-12-07 15:59:54.704837000,2.642837158203125,-0.5478118062019348,0.2105227261781692,-0.3450122475624084
2024-12-07 15:59:54.714864000,2.652864013671875,-0.5627255439758301,0.2190448343753814,-0.2928143441677093
2024-12-07 15:59:54.724891400,2.662891357421875,-0.5233107805252075,0.3426154255867004,-0.1735048145055771
2024-12-07 15:59:54.734918700,2.672918701171875,-0.481765478849411,0.4065312445163727,-0.1000016257166862
2024-12-07 15:59:54.744945700,2.682945556640625,-0.4125233590602875,0.4033354520797729,-0.107458472251892
2024-12-07 15:59:54.754973000,2.692972900390625,-0.3560643792152405,0.4033354520797729,-0.1617869138717651
2024-12-07 15:59:54.765000200,2.703000244140625,-0.3241064548492431,0.3852259516716003,-0.2214416861534118
2024-12-07 15:59:54.775027500,2.71302734375,-0.3070622384548187,0.3553985953330993,-0.2821617126464844
2024-12-07 15:59:54.785054500,2.723054443359375,-0.282561182975769,0.2925480306148529,-0.327968031167984
2024-12-07 15:59:54.795081700,2.733081787109375,-0.2388853728771209,0.2765690684318542,-0.4046670198440552
2024-12-07 15:59:54.805109000,2.74310888671875,-0.1973400861024856,0.3490070104598999,-0.5239765644073486
2024-12-07 15:59:54.815136000,2.753135986328125,-0.1877527236938476,0.4587291479110718,-0.6475471258163452
2024-12-07 15:59:54.825163300,2.763163330078125,-0.1845569312572479,0.5439502596855164,-0.6464818716049194
2024-12-07 15:59:54.835190500,2.7731904296875,-0.1802958697080612,0.5769734382629395,-0.4653870463371277
2024-12-07 15:59:54.845217500,2.783217529296875,-0.1270326822996139,0.5684512853622437,-0.2054627239704132
2024-12-07 15:59:54.855244800,2.793244873046875,0.005060002207756,0.5535376071929932,-0.0701742395758628
2024-12-07 15:59:54.865272000,2.80327197265625,0.0860200375318527,0.5588639378547668,-0.1149153187870979
2024-12-07 15:59:54.875299300,2.81329931640625,0.0391484387218952,0.6121271252632141,-0.1543300747871399
2024-12-07 15:59:54.885326300,2.823326416015625,-0.092944249510765,0.6344976425170898,-0.0989363640546798
2024-12-07 15:59:54.895353600,2.833353515625,-0.2016011476516723,0.4864259958267212,0.0384826473891735
2024-12-07 15:59:54.905380900,2.843380859375,-0.2772348523139953,0.3042659163475036,0.1194426864385604
2024-12-07 15:59:54.915408000,2.853407958984375,-0.2900180220603943,0.2531332671642303,0.1109205782413482
2024-12-07 15:59:54.925435100,2.86343505859375,-0.2591253817081451,0.3106575012207031,0.1151816323399543
2024-12-07 15:59:54.935462400,2.87346240234375,-0.2026664018630981,0.3479417264461517,0.1844237744808197
2024-12-07 15:59:54.945489700,2.88348974609375,-0.1749695539474487,0.3735080659389496,0.2771016955375671
2024-12-07 15:59:54.955517000,2.893516845703125,-0.1802958697080612,0.4374238848686218,0.3335606753826141
2024-12-07 15:59:54.965544000,2.9035439453125,-0.1930790394544601,0.5056007504463196,0.367649108171463
2024-12-07 15:59:54.975571200,2.9135712890625,-0.2218411564826965,0.5428850054740906,0.3985417485237121
2024-12-07 15:59:54.985598500,2.923598388671875,-0.2474074810743332,0.5343628525733948,0.4198470413684845
2024-12-07 15:59:54.995625700,2.933625732421875,-0.2506032586097717,0.4853607416152954,0.4091944098472595
2024-12-07 15:59:55.005653000,2.943653076171875,-0.2292979955673217,0.4022701680660248,0.3857586085796356
2024-12-07 15:59:55.015680300,2.95368017578125,-0.2069274634122848,0.2978743314743042,0.3751059472560882
2024-12-07 15:59:55.025707500,2.96370751953125,-0.1888179779052734,0.1774995476007461,0.3857586085796356
2024-12-07 15:59:55.035734800,2.97373486328125,-0.1685779690742492,0.0848216190934181,0.4177165031433105
2024-12-07 15:59:55.045762000,2.983761962890625,-0.1398158520460128,0.0571247637271881,0.4571312665939331
2024-12-07 15:59:55.055789300,2.993789306640625,-0.076965294778347,0.0624510794878006,0.521047055721283
2024-12-07 15:59:55.065816600,3.003816650390625,0.0103863207623362,0.0624510794878006,0.5966808199882507
2024-12-07 15:59:55.075843600,3.013843505859375,0.0828242450952529,0.0762995108962059,0.658466100692749
2024-12-07 15:59:55.085870800,3.023870849609375,0.1541969180107116,0.0869521424174308,0.725577712059021
2024-12-07 15:59:55.095898000,3.033898193359375,0.2106558829545974,0.068842664361,0.8044071793556213
2024-12-07 15:59:55.105925400,3.04392529296875,0.2458095848560333,0.0560594983398914,0.8949546217918396
2024-12-07 15:59:55.115952600,3.05395263671875,0.2745717167854309,0.0635163411498069,1.0014809370040894
2024-12-07 15:59:55.125980000,3.06397998046875,0.3022685647010803,0.068842664361,1.1261168718338013
2024-12-07 15:59:55.136007200,3.074007080078125,0.3448790907859802,0.0603205524384975,1.249687433242798
2024-12-07 15:59:55.146034400,3.084034423828125,0.4013380706310272,0.054994236677885,1.3636705875396729
2024-12-07 15:59:55.156061700,3.094061767578125,0.450340211391449,0.0720384567975997,1.455283284187317
2024-12-07 15:59:55.166089000,3.1040888671875,0.4780370593070984,0.1370195299386978,1.51706862449646
2024-12-07 15:59:55.176116000,3.114115966796875,0.4769718050956726,0.2350237965583801,1.5575486421585083
2024-12-07 15:59:55.186143200,3.124143310546875,0.4609928429126739,0.3500722646713257,1.5905717611312866
2024-12-07 15:59:55.196170500,3.13417041015625,0.4812328517436981,0.4416849315166473,1.638508677482605
2024-12-07 15:59:55.206197800,3.14419775390625,0.5568665862083435,0.5311670899391174,1.6694012880325315
2024-12-07 15:59:55.216225000,3.15422509765625,0.6729803085327148,0.6334323883056641,1.6321170330047607
2024-12-07 15:59:55.226252300,3.164252197265625,0.8317046165466309,0.7772429585456848,1.5128074884414673
2024-12-07 15:59:55.236279600,3.174279541015625,1.0096036195755005,0.8603335618972778,1.341300129890442
2024-12-07 15:59:55.246306800,3.184306884765625,1.1853721141815186,0.880573570728302,1.169792652130127
2024-12-07 15:59:55.256334000,3.194333984375,1.3600753545761108,0.9785777926445008,1.0163946151733398
2024-12-07 15:59:55.266361300,3.204361328125,1.535843849182129,1.0147967338562012,0.876845121383667
2024-12-07 15:59:55.276388600,3.214388671875,1.6508923768997192,0.8986830115318298,0.7394261360168457
2024-12-07 15:59:55.286415600,3.22441552734375,1.71587336063385,0.6984134912490845,0.5732449889183044
2024-12-07 15:59:55.296443000,3.23444287109375,1.7403744459152222,0.3692470192909241,0.3761712312698364
2024-12-07 15:59:55.306470100,3.24447021484375,1.752092361450195,-0.0611195005476474,0.2067943066358566
2024-12-07 15:59:55.316497400,3.254497314453125,1.7371786832809448,-0.4776375889778137,0.1641837656497955
2024-12-07 15:59:55.326524700,3.264524658203125,1.7009596824645996,-0.9048082828521729,0.2504701018333435
2024-12-07 15:59:55.336552000,3.274552001953125,1.614673376083374,-1.2712589502334597,0.4336954653263092
2024-12-07 15:59:55.346579200,3.2845791015625,1.4953638315200806,-1.5013558864593506,0.6328997611999512
2024-12-07 15:59:55.356606500,3.2946064453125,1.405881643295288,-1.6014907360076904,0.7490134835243225
2024-12-07 15:59:55.366633700,3.3046337890625,1.3004206418991089,-1.561010718345642,0.7479482293128967
2024-12-07 15:59:55.376661000,3.314660888671875,1.1981552839279177,-1.4970948696136477,0.6765755414962769
2024-12-07 15:59:55.386688000,3.32468798828125,1.0873678922653198,-1.4331790208816528,0.5966808199882507
2024-12-07 15:59:55.396715300,3.33471533203125,0.970188856124878,-1.335174798965454,0.5327649712562561
2024-12-07 15:59:55.406742500,3.344742431640625,0.8498140573501587,-1.1945600509643557,0.4741754829883575
2024-12-07 15:59:55.416769800,3.354769775390625,0.7486140131950378,-1.0496841669082642,0.4091944098472595
2024-12-07 15:59:55.426797000,3.364797119140625,0.6623276472091675,-0.962332546710968,0.3271690905094147
2024-12-07 15:59:55.436824000,3.374823974609375,0.580302357673645,-0.899482011795044,0.2387522161006927
2024-12-07 15:59:55.446851300,3.384851318359375,0.5067991614341736,-0.8472840785980225,0.1524658650159835
2024-12-07 15:59:55.456878600,3.394878662109375,0.4514054656028747,-0.8387619853019714,0.0715058222413063
2024-12-07 15:59:55.466905600,3.404905517578125,0.3597927987575531,-0.7812377214431763,-0.0339552797377109
2024-12-07 15:59:55.476932900,3.414932861328125,0.2916159331798553,-0.7769766449928284,-0.1276984810829162
2024-12-07 15:59:55.486960000,3.424960205078125,0.2170474678277969,-0.7578019499778748,-0.2022669315338134
2024-12-07 15:59:55.496987400,3.4349873046875,0.138217955827713,-0.7205176949501038,-0.260856419801712
2024-12-07 15:59:55.507014400,3.445014404296875,0.0561926588416099,-0.6693850159645081,-0.3237069845199585
2024-12-07 15:59:55.517041700,3.455041748046875,-0.02689790725708,-0.6246439814567566,-0.3940143883228302
2024-12-07 15:59:55.527069000,3.46506884765625,-0.1121189966797828,-0.5916208028793335,-0.4600607454776764
2024-12-07 15:59:55.537096000,3.475095947265625,-0.1941442936658859,-0.5404881238937378,-0.5165197253227234
2024-12-07 15:59:55.547123200,3.485123291015625,-0.2687127590179443,-0.4478102028369903,-0.5569997429847717
2024-12-07 15:59:55.557150500,3.495150390625,-0.3326285779476166,-0.3114564716815948,-0.5740439295768738
2024-12-07 15:59:55.567177700,3.505177734375,-0.3858917653560638,-0.1474058628082275,-0.5676523447036743
2024-12-07 15:59:55.577204700,3.515204833984375,-0.4274370372295379,0.0123836901038885,-0.5410207509994507
2024-12-07 15:59:55.587232000,3.52523193359375,-0.4572644233703613,0.1178447902202606,-0.5122586488723755
2024-12-07 15:59:55.597259300,3.53525927734375,-0.481765478849411,0.1316932141780853,-0.4739091694355011
2024-12-07 15:59:55.607286300,3.545286376953125,-0.4945486485958099,0.1316932141780853,-0.4344944059848785
2024-12-07 15:59:55.617313500,3.5553134765625,-0.4988096952438354,0.1093226820230484,-0.395079642534256
2024-12-07 15:59:55.627340800,3.5653408203125,-0.4945486485958099,0.0784300342202186,-0.3620564937591553
2024-12-07 15:59:55.637367800,3.575367919921875,-0.479634940624237,0.0358194895088672,-0.3386206924915313
2024-12-07 15:59:55.647395000,3.58539501953125,-0.460460215806961,-0.0472710728645324,-0.3183806836605072
2024-12-07 15:59:55.657422300,3.59542236328125,-0.4199801981449127,-0.1772332340478897,-0.3002711832523346
2024-12-07 15:59:55.667449600,3.60544970703125,-0.3549990952014923,-0.3359575271606445,-0.2704437971115112
2024-12-07 15:59:55.677476600,3.6154765625,-0.2697780132293701,-0.4659196734428406,-0.2480732649564743
2024-12-07 15:59:55.687504000,3.62550390625,-0.170708492398262,-0.5596628785133362,-0.240616425871849
2024-12-07 15:59:55.697531100,3.63553125,-0.0418115966022014,-0.5703155398368835,-0.2214416861534118
2024-12-07 15:59:55.707558100,3.64555810546875,0.110521100461483,-0.5191828608512878,-0.1905490309000015
2024-12-07 15:59:55.717585400,3.65558544921875,0.2436790615320205,-0.4776375889778137,-0.1692437678575515
2024-12-07 15:59:55.727612700,3.66561279296875,0.3597927987575531,-0.4339617788791656,-0.1596563905477523
2024-12-07 15:59:55.737639700,3.6756396484375,0.4737760126590729,-0.3817638456821441,-0.1543300747871399
2024-12-07 15:59:55.747667000,3.6856669921875,0.5824328660964966,-0.3775027990341186,-0.1735048145055771
2024-12-07 15:59:55.757694200,3.695694091796875,0.6815024018287659,-0.4787028431892395,-0.195875346660614
2024-12-07 15:59:55.767721500,3.705721435546875,0.7550055980682373,-0.6427534222602844,-0.1884185075759887
2024-12-07 15:59:55.777748500,3.71574853515625,0.7848330140113831,-0.7982819676399231,-0.1788311302661895
2024-12-07 15:59:55.787775700,3.725775634765625,0.7550055980682373,-0.8824377655982971,-0.1884185075759887
2024-12-07 15:59:55.797803000,3.735802978515625,0.663392961025238,-0.8717851042747498,-0.2118543088436126
2024-12-07 15:59:55.807830000,3.745830078125,0.5313002467155457,-0.8068040609359741,-0.252334326505661
2024-12-07 15:59:55.817857300,3.755857177734375,0.3864243924617767,-0.7450187802314758,-0.2928143441677093
2024-12-07 15:59:55.827884500,3.765884521484375,0.238352745771408,-0.7247787714004517,-0.3258375227451324
2024-12-07 15:59:55.837911600,3.77591162109375,0.0902810916304588,-0.7311703562736511,-0.3684480488300323
2024-12-07 15:59:55.847938800,3.785938720703125,-0.0609863437712192,-0.7311703562736511,-0.4366249442100525
2024-12-07 15:59:55.857966000,3.795966064453125,-0.2133190482854843,-0.6960166096687317,-0.5367597341537476
2024-12-07 15:59:55.867993300,3.805993408203125,-0.3741738498210907,-0.6342313289642334,-0.6528734564781189
2024-12-07 15:59:55.878020400,3.816020263671875,-0.559529721736908,-0.5564671158790588,-0.7796398401260376
2024-12-07 15:59:55.888047600,3.826047607421875,-0.7406245470046997,-0.4254396557807922,-0.9149283170700072
2024-12-07 15:59:55.898075000,3.836074951171875,-0.8769782781600952,-0.1953427195549011,-1.0395641326904297
2024-12-07 15:59:55.908102000,3.846101806640625,-0.9536772966384888,0.1018658354878425,-1.1162631511688232
2024-12-07 15:59:55.918129200,3.856129150390625,-0.9877657294273376,0.3735080659389496,-1.109871506690979
2024-12-07 15:59:55.928156400,3.866156494140625,-0.9345025420188904,0.4864259958267212,-1.0054757595062256
2024-12-07 15:59:55.938183400,3.876183349609375,-0.7331677079200745,0.4075964987277984,-0.8488819599151611
2024-12-07 15:59:55.948210700,3.886210693359375,-0.4093275666236877,0.1774995476007461,-0.6305029392242432
2024-12-07 15:59:55.958238000,3.896238037109375,-0.0833568796515464,-0.123970054090023,-0.3034669756889343
2024-12-07 15:59:55.968265200,3.90626513671875,0.1350221633911132,-0.4850944280624389,0.0416784398257732
2024-12-07 15:59:55.978292500,3.91629248046875,0.3587275445461273,-0.6118608117103577,0.2781669795513153
2024-12-07 15:59:55.988319700,3.92631982421875,0.4577970504760742,-0.218778520822525,0.2973417043685913
2024-12-07 15:59:55.998346800,3.9363466796875,0.3661843836307525,0.4640554785728454,0.2014679908752441
2024-12-07 15:59:56.008374000,3.9463740234375,0.1243695318698883,0.8773777484893799,0.1279647946357727
2024-12-07 15:59:56.018401300,3.9564013671875,-0.170708492398262,0.8454198837280273,0.1268995255231857
2024-12-07 15:59:56.028428500,3.966428466796875,-0.4103928208351135,0.6323671340942383,0.1055942550301551
2024-12-07 15:59:56.038455800,3.976455810546875,-0.6404897570610046,0.4992091655731201,0.0033289489801973
2024-12-07 15:59:56.048483000,3.986483154296875,-0.8631298542022705,0.4374238848686218,-0.119176372885704
2024-12-07 15:59:56.058510300,3.99651025390625,-1.0218541622161863,0.3308975100517273,-0.2331595867872238
2024-12-07 15:59:56.068537600,4.00653759765625,-1.1251847743988037,0.0986700430512428,-0.3450122475624084
2024-12-07 15:59:56.078564900,4.01656494140625,-1.1731215715408323,-0.1292963773012161,-0.4803007543087005
2024-12-07 15:59:56.088592100,4.026592041015625,-1.1400984525680542,-0.2592585384845733,-0.6358292102813721
2024-12-07 15:59:56.098619400,4.036619384765625,-1.0175931453704834,-0.2400837987661361,-0.7551387548446655
2024-12-07 15:59:56.108646400,4.046646484375,-0.8407593369483948,-0.1229047924280166,-0.7870966792106628
2024-12-07 15:59:56.118673700,4.056673583984375,-0.6095971465110779,-0.002530001103878,-0.7135934829711914
2024-12-07 15:59:56.128701000,4.066700927734375,-0.328367531299591,0.14554163813591,-0.5633913278579712
2024-12-07 15:59:56.138728200,4.076728271484375,-0.040746334940195,0.3553985953330993,-0.419580727815628
2024-12-07 15:59:56.148755500,4.08675537109375,0.1755021810531616,0.4874912798404693,-0.3162501454353332
2024-12-07 15:59:56.158782700,4.09678271484375,0.2735064327716827,0.6238450407981873,-0.2288985252380371
2024-12-07 15:59:56.168810000,4.10681005859375,0.2926811873912811,0.7996135354042053,-0.1596563905477523
2024-12-07 15:59:56.178837200,4.116837158203125,0.2500706315040588,0.9636641144752502,-0.1053279414772987
2024-12-07 15:59:56.188864500,4.126864501953125,0.1765674501657486,0.9615336060523988,-0.0829574093222618
2024-12-07 15:59:56.198891800,4.136891845703125,0.0966726765036583,0.7548724412918091,-0.0925447791814804
2024-12-07 15:59:56.208918800,4.146918701171875,-0.0066578979603946,0.4289017617702484,-0.0872184634208679
2024-12-07 15:59:56.218946000,4.156946044921875,-0.1249021589756012,0.0656468719244003,-0.0723047703504562
2024-12-07 15:59:56.228973300,4.166973388671875,-0.2793653905391693,-0.2123869359493255,-0.0573910772800445
2024-12-07 15:59:56.239000600,4.17700048828125,-0.4263717830181122,-0.3625891208648681,-0.0552605502307415
2024-12-07 15:59:56.249027800,4.18702783203125,-0.5137233734130859,-0.4520712494850158,-0.0786963477730751
2024-12-07 15:59:56.259055000,4.19705517578125,-0.5328981280326843,-0.5191828608512878,-0.1202416345477104
2024-12-07 15:59:56.269082400,4.207082275390625,-0.4881570637226105,-0.5298355221748352,-0.184157446026802
2024-12-07 15:59:56.279109600,4.217109619140625,-0.3784348964691162,-0.4467449486255646,-0.2683132886886596
2024-12-07 15:59:56.289137000,4.227136962890625,-0.2292979955673217,-0.2986733019351959,-0.3652522563934326
2024-12-07 15:59:56.299164200,4.2371640625,-0.0716389790177345,-0.1154479458928108,-0.4355596601963043
2024-12-07 15:59:56.309191400,4.24719140625,0.0806937217712402,0.0581900253891944,-0.4664523303508758
2024-12-07 15:59:56.319218400,4.257218505859375,0.1968074589967727,0.1806953400373459,-0.4749744236469269
2024-12-07 15:59:56.329245700,4.26724560546875,0.2745717167854309,0.2723080217838287,-0.4845618009567261
2024-12-07 15:59:56.339273000,4.27727294921875,0.3289001584053039,0.3585943877696991,-0.4771049618721008
2024-12-07 15:59:56.349300200,4.28730029296875,0.3438138365745544,0.4342280924320221,-0.4355596601963043
2024-12-07 15:59:56.359327500,4.297327392578125,0.3320959508419037,0.4757733643054962,-0.3822965025901794
2024-12-07 15:59:56.369354800,4.307354736328125,0.2713759243488312,0.4704470634460449,-0.3418164849281311
2024-12-07 15:59:56.379382000,4.317382080078125,0.2255695760250091,0.5045354962348938,-0.2747048735618591
2024-12-07 15:59:56.389409300,4.3274091796875,0.1776327192783355,0.5183839201927185,-0.1980058848857879
2024-12-07 15:59:56.399436300,4.337436279296875,0.1137168928980827,0.533297598361969,-0.1394163817167282
2024-12-07 15:59:56.409463600,4.347463623046875,0.0242347475141286,0.5151881575584412,-0.1106542572379112
2024-12-07 15:59:56.419490800,4.35749072265625,-0.0673779249191284,0.4693817794322967,-0.0882837250828743
2024-12-07 15:59:56.429518000,4.36751806640625,-0.1174453198909759,0.455533355474472,-0.0691089779138565
2024-12-07 15:59:56.439545000,4.377545166015625,-0.15899059176445,0.4257059693336487,-0.0882837250828743
2024-12-07 15:59:56.449572400,4.387572265625,-0.2005358785390854,0.3585943877696991,-0.1394163817167282
2024-12-07 15:59:56.459599600,4.397599609375,-0.216514840722084,0.27763432264328,-0.2001364082098007
2024-12-07 15:59:56.469626600,4.407626708984375,-0.1941442936658859,0.2158490419387817,-0.2491385340690612
2024-12-07 15:59:56.479654000,4.41765380859375,-0.1696432381868362,0.0890826731920242,-0.2928143441677093
2024-12-07 15:59:56.489681200,4.42768115234375,-0.1376853287220001,-0.0504668653011322,-0.3205111920833587
2024-12-07 15:59:56.499708200,4.437708251953125,-0.105727419257164,-0.1356879621744156,-0.3290333151817322
2024-12-07 15:59:56.509735400,4.4477353515625,-0.0854874104261398,-0.163384810090065,-0.3332943618297577
2024-12-07 15:59:56.519762700,4.4577626953125,-0.0556600242853164,-0.1804290264844894,-0.3460775315761566
2024-12-07 15:59:56.529790000,4.4677900390625,-0.0098536890000104,-0.2006690353155136,-0.3482080399990082
2024-12-07 15:59:56.539817000,4.47781689453125,-0.0045273704454302,-0.2219743132591247,-0.3641870021820068
2024-12-07 15:59:56.549844200,4.48784423828125,-0.0013315795222297,-0.2241048365831375,-0.3780354261398315
2024-12-07 15:59:56.559871500,4.49787158203125,-0.0066578979603946,-0.2251701056957245,-0.3780354261398315
2024-12-07 15:59:56.569898500,4.5078984375,-0.0311589613556861,-0.2283658981323242,-0.373774379491806
2024-12-07 15:59:56.579925800,4.51792578125,-0.0716389790177345,-0.2475406378507614,-0.3780354261398315
2024-12-07 15:59:56.589953000,4.527953125,-0.0790958255529403,-0.1900164037942886,-0.3609912097454071
2024-12-07 15:59:56.599980000,4.53797998046875,-0.1270326822996139,-0.1655153334140777,-0.3588607013225555
2024-12-07 15:59:56.610007300,4.54800732421875,-0.1909485012292862,-0.1782985031604766,-0.3652522563934326
2024-12-07 15:59:56.620034600,4.55803466796875,-0.2527337968349457,-0.2006690353155136,-0.3748396337032318
2024-12-07 15:59:56.630061800,4.568061767578125,-0.3198454082012176,-0.2283658981323242,-0.3972101807594299
2024-12-07 15:59:56.640088800,4.5780888671875,-0.3858917653560638,-0.2262353599071502,-0.4131891429424286
2024-12-07 15:59:56.650116000,4.5881162109375,-0.4487423002719879,-0.1889511346817016,-0.4057323038578033
2024-12-07 15:59:56.660143400,4.598143310546875,-0.4998749494552612,-0.1761679798364639,-0.3780354261398315
2024-12-07 15:59:56.670170400,4.60817041015625,-0.5211802124977112,-0.1942774504423141,-0.3450122475624084
2024-12-07 15:59:56.680197600,4.61819775390625,-0.5233107805252075,-0.2155827283859253,-0.3141196072101593
2024-12-07 15:59:56.690225000,4.628224853515625,-0.5041360259056091,-0.2549974918365478,-0.2917490899562835
2024-12-07 15:59:56.700252000,4.638251953125,-0.4103928208351135,-0.2326269447803497,-0.2363553643226623
2024-12-07 15:59:56.710279200,4.648279052734375,-0.3219759464263916,-0.1921469271183014,-0.2235722094774246
2024-12-07 15:59:56.720306400,4.658306396484375,-0.2292979955673217,-0.1324921697378158,-0.2661827504634857
2024-12-07 15:59:56.730333700,4.668333740234375,-0.1536642760038375,-0.068576343357563,-0.3364901542663574
2024-12-07 15:59:56.740360700,4.678360595703125,-0.105727419257164,-0.002530001103878,-0.3812312185764313
2024-12-07 15:59:56.750388000,4.688387939453125,-0.0886831954121589,0.0677774026989936,-0.4067975580692291
2024-12-07 15:59:56.760415200,4.698415283203125,-0.0780305638909339,0.2062616795301437,-0.4014712274074554
2024-12-07 15:59:56.770442200,4.708442138671875,-0.0950747802853584,0.3170490860939026,-0.3993407189846039
2024-12-07 15:59:56.780469500,4.718469482421875,-0.1185105815529823,0.3969438672065735,-0.4121238589286804
2024-12-07 15:59:56.790496800,4.728496826171875,-0.1536642760038375,0.4406196773052215,-0.4334291517734527
2024-12-07 15:59:56.800524000,4.73852392578125,-0.2101232558488845,0.4629902243614197,-0.4440817832946777
2024-12-07 15:59:56.810551000,4.748551025390625,-0.2655169665813446,0.4001396596431732,-0.438755452632904
2024-12-07 15:59:56.820578300,4.758578369140625,-0.3059969842433929,0.3809649050235748,-0.4174501895904541
2024-12-07 15:59:56.830605600,4.76860546875,-0.3400854170322418,0.436358630657196,-0.3791007101535797
2024-12-07 15:59:56.840632600,4.778632568359375,-0.3858917653560638,0.4640554785728454,-0.3684480488300323
2024-12-07 15:59:56.850659800,4.788659912109375,-0.414653867483139,0.4810996949672699,-0.3503385782241821
2024-12-07 15:59:56.860687000,4.79868701171875,-0.406131774187088,0.5663207769393921,-0.2928143441677093
2024-12-07 15:59:56.870714000,4.808714111328125,-0.3752391040325165,0.6568682193756104,-0.239551156759262
2024-12-07 15:59:56.880741400,4.818741455078125,-0.3454117476940155,0.700543999671936,-0.2001364082098007
2024-12-07 15:59:56.890768600,4.8287685546875,-0.3028011918067932,0.7442198395729065,-0.1468732208013534
2024-12-07 15:59:56.900796000,4.8387958984375,-0.2303632646799087,0.7580682635307312,-0.091479517519474
2024-12-07 15:59:56.910823000,4.848822998046875,-0.1398158520460128,0.7165229320526123,-0.0765658244490623
2024-12-07 15:59:56.920850200,4.85885009765625,-0.0652474015951156,0.6685860753059387,-0.0957405716180801
2024-12-07 15:59:56.930877400,4.86887744140625,-0.013049479573965,0.6036050319671631,-0.1106542572379112
2024-12-07 15:59:56.940904400,4.878904541015625,-0.0002663159102667,0.5279712677001953,-0.0936100408434867
2024-12-07 15:59:56.950931700,4.888931640625,-0.0034621069207787,0.4534028470516205,-0.0307594873011112
2024-12-07 15:59:56.960959000,4.898958984375,-0.024767380207777,0.4075964987277984,0.0672447681427002
2024-12-07 15:59:56.970986000,4.908986083984375,-0.038615807890892,0.390552282333374,0.1993374526500702
2024-12-07 15:59:56.981013200,4.91901318359375,-0.0641821324825286,0.3830954432487488,0.3399522602558136
2024-12-07 15:59:56.991040500,4.92904052734375,-0.1195758432149887,0.4129228293895721,0.469914436340332
2024-12-07 15:59:57.001067800,4.93906787109375,-0.170708492398262,0.4821649491786957,0.5732449889183044
2024-12-07 15:59:57.011095000,4.949094970703125,-0.1962748318910598,0.5460807681083679,0.6542050242424011
2024-12-07 15:59:57.021122300,4.959122314453125,-0.2026664018630981,0.5993439555168152,0.725577712059021
2024-12-07 15:59:57.031149600,4.969149658203125,-0.2058621942996978,0.6408892273902893,0.7958850860595703
2024-12-07 15:59:57.041176800,4.9791767578125,-0.2016011476516723,0.6334323883056641,0.868323028087616
2024-12-07 15:59:57.051203800,4.989203857421875,-0.1856221854686737,0.5695165991783142,0.9396957159042358
2024-12-07 15:59:57.061231000,4.999231201171875,-0.1462074369192123,0.4864259958267212,0.9876325726509094
2024-12-07 15:59:57.071258400,5.00925830078125,-0.0790958255529403,0.392682820558548,1.0142641067504885
2024-12-07 15:59:57.081285600,5.01928564453125,0.0082557927817106,0.2861564457416534,1.040895700454712
2024-12-07 15:59:57.091313000,5.02931298828125,0.1211737394332885,0.1945437788963318,1.089897871017456
2024-12-07 15:59:57.101340200,5.039340087890625,0.2575274705886841,0.1498026996850967,1.1516832113265991
2024-12-07 15:59:57.111367400,5.049367431640625,0.4002728164196014,0.1391500681638717,1.2262516021728516
2024-12-07 15:59:57.121394700,5.059394775390625,0.5313002467155457,0.1402153223752975,1.3242558240890503
2024-12-07 15:59:57.131422000,5.069421875,0.6506097912788391,0.1583248078823089,1.4446306228637695
2024-12-07 15:59:57.141449200,5.07944921875,0.7411571741104126,0.2062616795301437,1.5735275745391846
2024-12-07 15:59:57.151476500,5.0894765625,0.8018772006034851,0.2733732759952545,1.6885759830474854
2024-12-07 15:59:57.161503500,5.09950341796875,0.8327698707580566,0.3841606974601745,1.7748624086380005
2024-12-07 15:59:57.171530800,5.10953076171875,0.8498140573501587,0.5514070987701416,1.823864459991455
2024-12-07 15:59:57.181558000,5.11955810546875,0.8647277355194092,0.7388935089111328,1.8153424263000488
2024-12-07 15:59:57.191585300,5.129585205078125,0.8551403880119324,0.9050745964050292,1.7429044246673584
2024-12-07 15:59:57.201612500,5.139612548828125,0.844487726688385,1.0595378875732422,1.6235949993133545
2024-12-07 15:59:57.211639800,5.149639892578125,0.8349003791809082,1.1266494989395142,1.4574137926101685
2024-12-07 15:59:57.221667000,5.1596669921875,0.835965633392334,1.0254493951797483,1.2134684324264526
2024-12-07 15:59:57.231694300,5.1696943359375,0.8572708964347839,0.8123967051506042,0.9546093940734864
2024-12-07 15:59:57.241721600,5.1797216796875,0.936100423336029,0.6824344992637634,0.7862977385520935
2024-12-07 15:59:57.251748900,5.189748779296875,1.049018383026123,0.5130575895309448,0.6574008464813232
2024-12-07 15:59:57.261776000,5.19977587890625,1.188567876815796,0.2968090772628784,0.5359607934951782
2024-12-07 15:59:57.271803100,5.20980322265625,1.3494226932525637,0.12423637509346,0.3932154476642608
2024-12-07 15:59:57.281830400,5.219830322265625,1.4783196449279783,0.0773647725582122,0.2707101106643677
2024-12-07 15:59:57.291857700,5.229857666015625,1.5614101886749268,0.0677774026989936,0.2398174703121185
2024-12-07 15:59:57.301885000,5.239885009765625,1.6242607831954956,-0.0781637206673622,0.3282343447208404
2024-12-07 15:59:57.311912200,5.249912109375,1.6306523084640503,-0.3732417523860931,0.4922849535942077
2024-12-07 15:59:57.321939500,5.259939453125,1.5891070365905762,-0.8696545958518982,0.6755102872848511
2024-12-07 15:59:57.331966700,5.269966796875,1.5070817470550537,-1.3958948850631714,0.8512787818908691
2024-12-07 15:59:57.341994000,5.279993896484375,1.377119541168213,-1.8273266553878784,0.9471525549888612
2024-12-07 15:59:57.352021200,5.290021240234375,1.1928290128707886,-2.041444540023804,0.9173251390457152
2024-12-07 15:59:57.362048500,5.300048583984375,0.9627320170402528,-2.119208812713623,0.8374303579330444
2024-12-07 15:59:57.372075500,5.310075439453125,0.7315698266029358,-2.105360507965088,0.7745798230171204
2024-12-07 15:59:57.382102800,5.320102783203125,0.5313002467155457,-2.06488037109375,0.7436871528625488
2024-12-07 15:59:57.392130000,5.330130126953125,0.3757717609405517,-1.9828550815582275,0.7234471440315247
2024-12-07 15:59:57.402157300,5.3401572265625,0.2266348451375961,-1.7602150440216064,0.658466100692749
2024-12-07 15:59:57.412184300,5.350184326171875,0.1233042627573013,-1.4885728359222412,0.5593965649604797
2024-12-07 15:59:57.422211600,5.360211669921875,0.0529968664050102,-1.1934947967529297,0.4518049359321594
2024-12-07 15:59:57.432238800,5.37023876953125,-0.0034621069207787,-0.8898946046829224,0.3495396375656128
2024-12-07 15:59:57.442266000,5.38026611328125,-0.066312663257122,-0.6459492444992065,0.2760364413261413
2024-12-07 15:59:57.452293000,5.390293212890625,-0.1344895362854004,-0.4936165511608124,0.2174469381570816
2024-12-07 15:59:57.462320400,5.4003203125,-0.1845569312572479,-0.4414186179637909,0.1450090110301971
2024-12-07 15:59:57.472347600,5.41034765625,-0.2143843024969101,-0.4808333814144134,0.0480700209736824
2024-12-07 15:59:57.482374700,5.420374755859375,-0.2303632646799087,-0.5799028873443604,-0.0723047703504562
2024-12-07 15:59:57.492402000,5.43040185546875,-0.2442116886377334,-0.6683197617530823,-0.2118543088436126
2024-12-07 15:59:57.502429200,5.44042919921875,-0.2527337968349457,-0.7024081945419312,-0.363121747970581
2024-12-07 15:59:57.512456200,5.450456298828125,-0.2655169665813446,-0.6640587449073792,-0.5261070728302002
2024-12-07 15:59:57.522483500,5.4604833984375,-0.2974748611450195,-0.5660544633865356,-0.6912229657173157
2024-12-07 15:59:57.532510700,5.4705107421875,-0.3539338409900665,-0.4286354482173919,-0.8520777821540833
2024-12-07 15:59:57.542538000,5.4805380859375,-0.4444812536239624,-0.3391533195972442,-1.0150630474090576
2024-12-07 15:59:57.552565000,5.49056494140625,-0.5094623565673828,-0.2400837987661361,-1.140764236450195
2024-12-07 15:59:57.562592300,5.50059228515625,-0.5435507893562317,-0.1324921697378158,-1.2259852886199951
2024-12-07 15:59:57.572619500,5.51061962890625,-0.5488771200180054,0.0006657897611148,-1.2664653062820437
2024-12-07 15:59:57.582646500,5.520646484375,-0.5190497040748596,0.2211753576993942,-1.2366379499435425
2024-12-07 15:59:57.592673800,5.530673828125,-0.47324338555336,0.4214449226856231,-1.1109367609024048
2024-12-07 15:59:57.602701000,5.540701171875,-0.3901528120040893,0.4565986394882202,-0.9010798931121826
2024-12-07 15:59:57.612728000,5.55072802734375,-0.2410158962011337,0.3383543491363525,-0.6305029392242432
2024-12-07 15:59:57.622755300,5.56075537109375,-0.0482031814754009,0.1146489977836608,-0.3769701719284057
2024-12-07 15:59:57.632782600,5.570782470703125,0.1073253154754638,-0.1580584943294525,-0.2320943176746368
2024-12-07 15:59:57.642809900,5.580809814453125,0.1872200816869735,-0.3476754128932953,-0.1926795542240142
2024-12-07 15:59:57.652836900,5.5908369140625,0.249005377292633,-0.4701807498931885,-0.2001364082098007
2024-12-07 15:59:57.662864100,5.600864013671875,0.3502054214477539,-0.5788376331329346,-0.1767006069421768
2024-12-07 15:59:57.672891400,5.610891357421875,0.391750693321228,-0.7407577037811279,-0.1213068962097168
2024-12-07 15:59:57.682918400,5.62091845703125,0.4087949097156524,-1.00068199634552,-0.0328900143504142
2024-12-07 15:59:57.692945700,5.630945556640625,0.4450138807296753,-1.2116042375564575,0.060853186994791
2024-12-07 15:59:57.702973000,5.640972900390625,0.4343612492084503,-1.2179957628250122,0.1322258561849594
2024-12-07 15:59:57.713000000,5.651,0.4034686088562011,-1.062467336654663,0.1588574349880218
2024-12-07 15:59:57.723027200,5.661027099609375,0.3438138365745544,-0.9048082828521729,0.1492700725793838
2024-12-07 15:59:57.733054500,5.671054443359375,0.2372874766588211,-0.7727156281471252,0.1492700725793838
2024-12-07 15:59:57.743081700,5.681081787109375,0.1062600463628768,-0.6566019058227539,0.1663142889738083
2024-12-07 15:59:57.753108700,5.691108642578125,-0.0151800066232681,-0.5671197175979614,0.1780321896076202
2024-12-07 15:59:57.763136000,5.701135986328125,-0.1099884733557701,-0.4936165511608124,0.1450090110301971
2024-12-07 15:59:57.773163300,5.711163330078125,-0.1962748318910598,-0.4542017877101898,0.0661795064806938
2024-12-07 15:59:57.783190300,5.721190185546875,-0.2878875136375427,-0.417982816696167,-0.0339552797377109
2024-12-07 15:59:57.793217500,5.731217529296875,-0.3826959729194641,-0.3764375448226928,-0.140481635928154
2024-12-07 15:59:57.803244800,5.741244873046875,-0.4689823091030121,-0.3625891208648681,-0.2491385340690612
2024-12-07 15:59:57.813271800,5.751271728515625,-0.529702365398407,-0.3881554305553436,-0.3577954173088074
2024-12-07 15:59:57.823299000,5.761299072265625,-0.5691171288490295,-0.4435491561889648,-0.4781702160835266
2024-12-07 15:59:57.833326300,5.771326416015625,-0.5989444851875305,-0.4914860129356384,-0.6166545152664185
2024-12-07 15:59:57.843353600,5.781353515625,-0.6255760788917542,-0.5191828608512878,-0.7636608481407166
2024-12-07 15:59:57.853380600,5.791380615234375,-0.6490118503570557,-0.4818986356258392,-0.8851009011268616
2024-12-07 15:59:57.863407900,5.801407958984375,-0.6660560965538025,-0.4147870242595672,-0.9522125124931335
2024-12-07 15:59:57.873435100,5.81143505859375,-0.6628602743148804,-0.3050648868083954,-0.9266462326049804
2024-12-07 15:59:57.883462100,5.821462158203125,-0.60533607006073,-0.1026647835969924,-0.7956187725067139
2024-12-07 15:59:57.893489400,5.831489501953125,-0.4860265254974365,0.1668469160795211,-0.6006755232810974
2024-12-07 15:59:57.903516700,5.8415166015625,-0.3368896245956421,0.3852259516716003,-0.37590491771698
2024-12-07 15:59:57.913543700,5.851543701171875,-0.170708492398262,0.4374238848686218,-0.1777658760547638
2024-12-07 15:59:57.923571000,5.861571044921875,-0.0673779249191284,0.4107922911643982,-0.0659131854772567
2024-12-07 15:59:57.933598200,5.87159814453125,-0.0535294972360134,0.4725775718688965,-0.0073236874304711
2024-12-07 15:59:57.943625500,5.88162548828125,-0.0865526720881462,0.7026745080947876,0.033156331628561
2024-12-07 15:59:57.953652500,5.891652587890625,-0.1238368973135948,0.9242493510246276,-0.0179763231426477
2024-12-07 15:59:57.963679700,5.9016796875,-0.1739042848348617,0.9402283430099488,-0.2012016773223877
2024-12-07 15:59:57.973707000,5.91170703125,-0.2580601274967193,0.7356976866722107,-0.4153196513652801
2024-12-07 15:59:57.983734000,5.921734130859375,-0.3613906800746918,0.4022701680660248,-0.5623260736465454
2024-12-07 15:59:57.993761300,5.93176123046875,-0.481765478849411,0.0294279083609581,-0.610262930393219
2024-12-07 15:59:58.003788500,5.94178857421875,-0.5893571376800537,-0.2880206704139709,-0.627307116985321
2024-12-07 15:59:58.013815600,5.951815673828125,-0.680969774723053,-0.4712460041046142,-0.6613955497741699
2024-12-07 15:59:58.023842800,5.9618427734375,-0.7470161318778992,-0.4701807498931885,-0.6869618892669678
2024-12-07 15:59:58.033870000,5.9718701171875,-0.7523424625396729,-0.2816290855407715,-0.6496776342391968
2024-12-07 15:59:58.043897300,5.9818974609375,-0.6564686894416809,-0.057923711836338,-0.551673412322998
2024-12-07 15:59:58.053924400,5.99192431640625,-0.4263717830181122,0.1689774394035339,-0.4089280664920807
2024-12-07 15:59:58.063951600,6.00195166015625,-0.1163800507783889,0.4193144142627716,-0.2384859025478363
2024-12-07 15:59:58.073979000,6.011978759765625,0.1350221633911132,0.5631250143051147,-0.0893489867448806
2024-12-07 15:59:58.084006100,6.022006103515625,0.2607232630252838,0.5652555227279663,-0.024367906153202
2024-12-07 15:59:58.094033400,6.032033447265625,0.3342264592647552,0.5684512853622437,-0.0094542149454355
2024-12-07 15:59:58.104060700,6.042060791015625,0.3651190996170044,0.5290365815162659,-0.0328900143504142
2024-12-07 15:59:58.114088000,6.052087890625,0.324639081954956,0.336223840713501,-0.0978710949420929
2024-12-07 15:59:58.124115200,6.062115234375,0.2330264151096344,0.0592552907764911,-0.1798963993787765
2024-12-07 15:59:58.134142500,6.072142578125,0.126500055193901,-0.2209090441465377,-0.2288985252380371
2024-12-07 15:59:58.144169500,6.08216943359375,0.0061252657324075,-0.4552670419216156,-0.2512690722942352
2024-12-07 15:59:58.154196700,6.09219677734375,-0.1025316268205642,-0.6235787272453308,-0.2885532975196838
2024-12-07 15:59:58.164224000,6.10222412109375,-0.1920137703418731,-0.7428882122039795,-0.3418164849281311
2024-12-07 15:59:58.174251300,6.112251220703125,-0.2207758873701095,-0.8313050866127014,-0.3865575492382049
2024-12-07 15:59:58.184278500,6.122278564453125,-0.1898832470178604,-0.849414587020874,-0.4078628122806549
2024-12-07 15:59:58.194305800,6.132305908203125,-0.1110537350177764,-0.7631282210350037,-0.4089280664920807
2024-12-07 15:59:58.204333000,6.1423330078125,-0.0098536890000104,-0.6044039726257324,-0.4014712274074554
2024-12-07 15:59:58.214360300,6.1523603515625,0.0977379381656646,-0.3892207145690918,-0.4025365114212036
2024-12-07 15:59:58.224387600,6.1623876953125,0.181893765926361,-0.1814942955970764,-0.4153196513652801
2024-12-07 15:59:58.234414800,6.172414794921875,0.2159821987152099,-0.016378428786993,-0.4344944059848785
2024-12-07 15:59:58.244441900,6.18244189453125,0.2255695760250091,0.107192151248455,-0.4504733681678772
2024-12-07 15:59:58.254469000,6.19246923828125,0.238352745771408,0.1625858694314956,-0.4664523303508758
2024-12-07 15:59:58.264496400,6.202496337890625,0.2745717167854309,0.1604553312063217,-0.4685828387737274
2024-12-07 15:59:58.274523600,6.212523681640625,0.3033338189125061,0.0912131965160369,-0.4888228476047516
2024-12-07 15:59:58.284551000,6.222551025390625,0.3395527899265289,-0.0014647374628111,-0.5197154879570007
2024-12-07 15:59:58.294578200,6.232578125,0.3629885911941528,-0.0707068741321563,-0.5548691749572754
2024-12-07 15:59:58.304605400,6.24260546875,0.3118559420108795,-0.1782985031604766,-0.5974797606468201
2024-12-07 15:59:58.314632700,6.2526328125,0.249005377292633,-0.3008038103580475,-0.5921534299850464
2024-12-07 15:59:58.324660000,6.262659912109375,0.1957421898841858,-0.3636543750762939,-0.5165197253227234
2024-12-07 15:59:58.334687200,6.272687255859375,0.126500055193901,-0.3306311964988708,-0.4238417744636535
2024-12-07 15:59:58.344714500,6.282714599609375,0.0849547758698463,-0.2273006290197372,-0.3130543529987335
2024-12-07 15:59:58.354741500,6.292741455078125,0.0380831733345985,-0.1143826842308044,-0.2352901101112365
2024-12-07 15:59:58.364768800,6.302768798828125,-0.0215715896338224,-0.002530001103878,-0.2203764170408249
2024-12-07 15:59:58.374796000,6.312796142578125,-0.0705737173557281,0.0358194895088672,-0.2374206334352493
2024-12-07 15:59:58.384823300,6.3228232421875,-0.0471379160881042,0.1029310971498489,-0.2384859025478363
2024-12-07 15:59:58.394850600,6.3328505859375,-0.0300936978310346,0.1380847990512848,-0.2587259113788605
2024-12-07 15:59:58.404877800,6.3428779296875,-0.0375505425035953,0.1135837361216545,-0.3077280223369598
2024-12-07 15:59:58.414905000,6.352905029296875,-0.0513989701867103,0.0720384567975997,-0.3514038324356079
2024-12-07 15:59:58.424932400,6.362932373046875,-0.0854874104261398,0.0379500165581703,-0.3918838500976562
2024-12-07 15:59:58.434959600,6.372959716796875,-0.1344895362854004,0.0081226350739598,-0.4227765202522278
2024-12-07 15:59:58.444986600,6.382986572265625,-0.1909485012292862,-0.016378428786993,-0.4238417744636535
2024-12-07 15:59:58.455014000,6.393013916015625,-0.2442116886377334,-0.0259658005088567,-0.4036017656326294
2024-12-07 15:59:58.465041200,6.403041259765625,-0.2804306447505951,-0.0099868467077612,-0.3780354261398315
2024-12-07 15:59:58.475068200,6.413068115234375,-0.2985401451587677,0.0368847548961639,-0.3663175404071808
2024-12-07 15:59:58.485095400,6.423095458984375,-0.2974748611450195,0.1029310971498489,-0.3641870021820068
2024-12-07 15:59:58.495122700,6.433122802734375,-0.2900180220603943,0.1700427085161209,-0.3727091252803802
2024-12-07 15:59:58.505150000,6.44314990234375,-0.29108327627182,0.2137185186147689,-0.3961449265480041
2024-12-07 15:59:58.515177000,6.453177001953125,-0.2889527678489685,0.2083922028541565,-0.4249070286750793
2024-12-07 15:59:58.525204200,6.463204345703125,-0.2996053993701935,0.1519332230091095,-0.4419512450695038
2024-12-07 15:59:58.535231500,6.4732314453125,-0.3273022472858429,0.0837563574314117,-0.4504733681678772
2024-12-07 15:59:58.545258500,6.483258544921875,-0.3837612271308899,0.0251668542623519,-0.4536691606044769
2024-12-07 15:59:58.555285800,6.49328564453125,-0.4263717830181122,-0.0525973923504352,-0.4398207366466522
2024-12-07 15:59:58.565313000,6.50331298828125,-0.4274370372295379,-0.0770984590053558,-0.395079642534256
2024-12-07 15:59:58.575340000,6.513340087890625,-0.4583296775817871,-0.1026647835969924,-0.3972101807594299
2024-12-07 15:59:58.585367300,6.5233671875,-0.4828307330608368,-0.162319540977478,-0.4462123215198517
2024-12-07 15:59:58.595394600,6.53339453125,-0.3986749053001404,-0.1154479458928108,-0.4419512450695038
2024-12-07 15:59:58.605421800,6.543421875,-0.2953443527221679,0.0177100077271461,-0.4249070286750793
2024-12-07 15:59:58.615448800,6.55344873046875,-0.237820103764534,0.133823737502098,-0.4504733681678772
2024-12-07 15:59:58.625476000,6.56347607421875,-0.1824263930320739,0.2211753576993942,-0.4696480929851532
2024-12-07 15:59:58.635503400,6.57350341796875,-0.1419463753700256,0.2808301150798797,-0.4728438854217529
2024-12-07 15:59:58.645530400,6.5835302734375,-0.1259674280881881,0.3181143403053283,-0.4749744236469269
2024-12-07 15:59:58.655557600,6.5935576171875,-0.1451421678066253,0.3095922470092773,-0.4909533858299255
2024-12-07 15:59:58.665585000,6.6035849609375,-0.2005358785390854,0.2914827764034271,-0.5079975724220276
2024-12-07 15:59:58.675612000,6.61361181640625,-0.2229064106941223,0.2989396154880523,-0.4898881316184997
2024-12-07 15:59:58.685639200,6.62363916015625,-0.2559295892715454,0.3522028028964996,-0.4749744236469269
2024-12-07 15:59:58.695666400,6.63366650390625,-0.3081275224685669,0.4299670457839966,-0.5090628862380981
2024-12-07 15:59:58.705693700,6.643693603515625,-0.3432812094688415,0.5087965726852417,-0.5633913278579712
2024-12-07 15:59:58.715720700,6.653720703125,-0.3720433413982391,0.5631250143051147,-0.5974797606468201
2024-12-07 15:59:58.725748000,6.663748046875,-0.4071970283985138,0.5865607857704163,-0.6006755232810974
2024-12-07 15:59:58.735775200,6.673775146484375,-0.4487423002719879,0.5940176248550415,-0.5761744976043701
2024-12-07 15:59:58.745802200,6.68380224609375,-0.4977444410324096,0.587626039981842,-0.514389157295227
2024-12-07 15:59:58.755829500,6.69382958984375,-0.5265065431594849,0.5460807681083679,-0.3940143883228302
2024-12-07 15:59:58.765856800,6.703856689453125,-0.5094623565673828,0.4629902243614197,-0.2438122183084488
2024-12-07 15:59:58.775884000,6.713884033203125,-0.4082622826099396,0.3639206886291504,-0.1159805804491043
2024-12-07 15:59:58.785911000,6.7239111328125,-0.2697780132293701,0.2520680129528045,-0.0701742395758628
2024-12-07 15:59:58.795938300,6.733938232421875,-0.2058621942996978,0.12423637509346,-0.090414248406887
2024-12-07 15:59:58.805965600,6.743965576171875,-0.2016011476516723,0.0347542278468608,-0.090414248406887
2024-12-07 15:59:58.815992600,6.75399267578125,-0.160055860877037,-0.0472710728645324,-0.0264984332025051
2024-12-07 15:59:58.826019800,6.764019775390625,-0.052464235574007,-0.1303616315126419,0.0725710839033126
2024-12-07 15:59:58.836047000,6.774047119140625,0.1041295230388641,-0.1665806025266647,0.1769669204950332
2024-12-07 15:59:58.846074000,6.78407421875,0.2031990438699722,-0.068576343357563,0.246209055185318
2024-12-07 15:59:58.856101400,6.794101318359375,0.2159821987152099,0.1274321675300598,0.289884865283966
2024-12-07 15:59:58.866128600,6.804128662109375,0.2159821987152099,0.2936132848262787,0.359127014875412
2024-12-07 15:59:58.876156000,6.814156005859375,0.1755021810531616,0.4278365075588226,0.4518049359321594
2024-12-07 15:59:58.886183000,6.824182861328125,0.0966726765036583,0.503470242023468,0.582832396030426
2024-12-07 15:59:58.896210200,6.834210205078125,-0.0087884254753589,0.5450155138969421,0.7298387289047241
2024-12-07 15:59:58.906237400,6.844237548828125,-0.1089232042431831,0.6110618710517883,0.8651272058486938
2024-12-07 15:59:58.916264400,6.854264404296875,-0.1771000772714615,0.6792387366294861,0.9727188348770142
2024-12-07 15:59:58.926291700,6.864291748046875,-0.2079927325248718,0.6877608299255371,1.0590052604675293
2024-12-07 15:59:58.936319000,6.874319091796875,-0.2101232558488845,0.608931303024292,1.1314431428909302
2024-12-07 15:59:58.946346000,6.884345947265625,-0.1802958697080612,0.4874912798404693,1.198554754257202
2024-12-07 15:59:58.956373200,6.894373291015625,-0.1089232042431831,0.3937480747699737,1.2688621282577517
2024-12-07 15:59:58.966400500,6.904400390625,0.0018642114009708,0.3820301592350006,1.341300129890442
2024-12-07 15:59:58.976427800,6.914427734375,-0.0002663159102667,1.6539549827575684,0.8278430104255676
2024-12-07 15:59:58.986454800,6.924454833984375,0.110521100461483,3.577821016311645,0.033156331628561
2024-12-07 15:59:58.996482000,6.93448193359375,0.5025381445884705,0.9359672665596008,1.4648706912994385
2024-12-07 15:59:59.006509300,6.94450927734375,0.6325002908706665,-0.803608238697052,2.2883193492889404
2024-12-07 15:59:59.016536300,6.954536376953125,0.6516750454902649,-1.1743199825286863,2.6995112895965576
2024-12-07 15:59:59.026563600,6.9645634765625,0.6293044686317444,-0.2933469712734222,2.513090133666992
2024-12-07 15:59:59.036590800,6.9745908203125,0.5781718492507935,0.7282408475875854,2.1136162281036377
2024-12-07 15:59:59.046617900,6.984617919921875,0.5568665862083435,1.4654033184051514,1.769536018371582
2024-12-07 15:59:59.056645000,6.99464501953125,0.6101297736167908,1.8542245626449585,1.5458307266235352
2024-12-07 15:59:59.066672400,7.00467236328125,0.7081339955329895,1.9149445295333865,1.4116075038909912
2024-12-07 15:59:59.076699600,7.01469970703125,0.7805719375610352,1.758350849151611,1.2997548580169678
2024-12-07 15:59:59.086726700,7.0247265625,0.7699192762374878,1.3365063667297363,1.132508397102356
2024-12-07 15:59:59.096754000,7.03475390625,0.7251782417297363,0.880573570728302,0.9791104197502136
2024-12-07 15:59:59.106781200,7.04478125,0.6900244951248169,0.5002744197845459,0.8651272058486938
2024-12-07 15:59:59.116808200,7.05480810546875,0.6964160799980164,0.1519332230091095,0.68829345703125
2024-12-07 15:59:59.126835500,7.06483544921875,0.7454182505607605,-0.1580584943294525,0.489089161157608
2024-12-07 15:59:59.136862700,7.07486279296875,0.8210519552230835,-0.2976080179214477,0.3431480526924133
2024-12-07 15:59:59.146890000,7.084889892578125,0.9052077531814576,-0.2603237926959991,0.2515353858470917
2024-12-07 15:59:59.156917200,7.094917236328125,0.9840372800827026,-0.1676458716392517,0.2099900990724563
2024-12-07 15:59:59.166944500,7.104944580078125,1.066062569618225,-0.1431448012590408,0.2376869469881057
2024-12-07 15:59:59.176971800,7.1149716796875,1.1108036041259766,-0.1644500792026519,0.3367564678192138
2024-12-07 15:59:59.186999000,7.1249990234375,1.111868977546692,-0.2709764242172241,0.4677838981151581
2024-12-07 15:59:59.197026300,7.1350263671875,1.1012163162231443,-0.4510059952735901,0.5966808199882507
2024-12-07 15:59:59.207053300,7.14505322265625,1.0820415019989014,-0.6214481592178345,0.68829345703125
2024-12-07 15:59:59.217080600,7.15508056640625,1.0511488914489746,-0.7226482033729553,0.7213166356086731
2024-12-07 15:59:59.227107800,7.16510791015625,1.0170605182647705,-0.7652587890625,0.6989461183547974
2024-12-07 15:59:59.237135000,7.175135009765625,0.9542099237442015,-0.7237134575843811,0.621181845664978
2024-12-07 15:59:59.247162400,7.185162353515625,0.8668583035469055,-0.6054692268371582,0.4986765384674072
2024-12-07 15:59:59.257189600,7.195189697265625,0.7752456068992615,-0.5213133692741394,0.3687143921852112
2024-12-07 15:59:59.267217000,7.205216796875,0.6900244951248169,-0.5362271070480347,0.2611227631568908
2024-12-07 15:59:59.277244200,7.215244140625,0.6282392144203186,-0.6864292621612549,0.1833585053682327
2024-12-07 15:59:59.287271400,7.225271484375,0.550475001335144,-0.8334356546401978,0.1237037405371666
2024-12-07 15:59:59.297298700,7.235298583984375,0.4599275887012481,-0.9570062160491944,0.0800279304385185
2024-12-07 15:59:59.307326000,7.245325927734375,0.3523359596729278,-1.026248335838318,0.0416784398257732
2024-12-07 15:59:59.317353000,7.25535302734375,0.2798980176448822,-0.9388967156410216,0.0022636852227151
2024-12-07 15:59:59.327380200,7.265380126953125,0.2319611608982086,-0.7972166538238525,-0.036085806787014
2024-12-07 15:59:59.337407500,7.275407470703125,0.2117211520671844,-0.7663240432739258,-0.0296942237764596
2024-12-07 15:59:59.347434800,7.285434814453125,0.1904158741235733,-0.7247787714004517,-0.0339552797377109
2024-12-07 15:59:59.357462000,7.2954619140625,0.1009337306022644,-0.5873597264289856,-0.0584563426673412
2024-12-07 15:59:59.367489300,7.3054892578125,0.0284958016127347,-0.4595280885696411,-0.1053279414772987
2024-12-07 15:59:59.377516500,7.3155166015625,-0.02689790725708,-0.3306311964988708,-0.1351553201675415
2024-12-07 15:59:59.387543800,7.325543701171875,-0.0790958255529403,-0.2400837987661361,-0.1255679577589035
2024-12-07 15:59:59.397571000,7.335571044921875,-0.1153147891163826,-0.1996037811040878,-0.1042626798152923
2024-12-07 15:59:59.407598300,7.345598388671875,-0.1451421678066253,-0.1953427195549011,-0.091479517519474
2024-12-07 15:59:59.417625300,7.355625244140625,-0.1824263930320739,-0.22943115234375,-0.0861531943082809
2024-12-07 15:59:59.427652600,7.365652587890625,-0.2111885100603103,-0.2709764242172241,-0.079761616885662
2024-12-07 15:59:59.437679900,7.375679931640625,-0.2367548495531082,-0.3061301410198211,-0.0648479238152504
2024-12-07 15:59:59.447707100,7.38570703125,-0.2676474750041961,-0.329565942287445,-0.0467384420335292
2024-12-07 15:59:59.457734400,7.395734375,-0.293213814496994,-0.3476754128932953,-0.0371510684490203
2024-12-07 15:59:59.467761700,7.40576171875,-0.3123885691165924,-0.3604585826396942,-0.0446079149842262
2024-12-07 15:59:59.477789000,7.415788818359375,-0.3209106624126434,-0.3657849133014679,-0.074435293674469
2024-12-07 15:59:59.487816200,7.425816162109375,-0.3166496157646179,-0.3711112141609192,-0.1170458421111106
2024-12-07 15:59:59.497843500,7.435843505859375,-0.2964096069335937,-0.3913512229919433,-0.1671132296323776
2024-12-07 15:59:59.507870500,7.445870361328125,-0.2601906359195709,-0.4201133549213409,-0.2150501012802124
2024-12-07 15:59:59.517897700,7.455897705078125,-0.2143843024969101,-0.4510059952735901,-0.2544648647308349
2024-12-07 15:59:59.527925000,7.465925048828125,-0.1430116444826126,-0.4893554747104645,-0.2874880135059356
2024-12-07 15:59:59.537952300,7.4759521484375,-0.0652474015951156,-0.5191828608512878,-0.2917490899562835
2024-12-07 15:59:59.547979300,7.485979248046875,0.0018642114009708,-0.5181176066398621,-0.262986958026886
2024-12-07 15:59:59.558006500,7.496006591796875,0.0774979293346405,-0.5500755310058594,-0.2203764170408249
2024-12-07 15:59:59.568033800,7.50603369140625,0.1541969180107116,-0.598012387752533,-0.1596563905477523
2024-12-07 15:59:59.578060800,7.516060791015625,0.2191779911518097,-0.6129260659217834,-0.0946753025054931
2024-12-07 15:59:59.588088000,7.526088134765625,0.2852243483066559,-0.631035566329956,-0.0456731803715229
2024-12-07 15:59:59.598115300,7.536115234375,0.3523359596729278,-0.6544713377952576,-0.0147805325686931
2024-12-07 15:59:59.608142300,7.546142333984375,0.4279696643352508,-0.719452440738678,-0.0073236874304711
2024-12-07 15:59:59.618169600,7.556169677734375,0.4865591824054718,-0.8110650777816772,-0.0211721155792474
2024-12-07 15:59:59.628196900,7.56619677734375,0.5025381445884705,-0.862197756767273,-0.0509994961321353
2024-12-07 15:59:59.638224100,7.57622412109375,0.4897549450397491,-0.8504798412322998,-0.0882837250828743
2024-12-07 15:59:59.648251100,7.586251220703125,0.448209673166275,-0.7929556369781494,-0.128763735294342
2024-12-07 15:59:59.658278400,7.5962783203125,0.3704454302787781,-0.6938861012458801,-0.1756353378295898
2024-12-07 15:59:59.668305700,7.6063056640625,0.2447443157434463,-0.5830987095832825,-0.241681694984436
2024-12-07 15:59:59.678332700,7.616332763671875,0.0774979293346405,-0.5010733604431152,-0.327968031167984
2024-12-07 15:59:59.688360000,7.62635986328125,-0.104662150144577,-0.4190480709075928,-0.4185154438018799
2024-12-07 15:59:59.698387200,7.63638720703125,-0.29108327627182,-0.3338269889354706,-0.5111933946609497
2024-12-07 15:59:59.708414200,7.646414306640625,-0.4838960170745849,-0.2624543309211731,-0.610262930393219
2024-12-07 15:59:59.718441500,7.65644140625,-0.6799045205116272,-0.1985385119915008,-0.7167892456054688
2024-12-07 15:59:59.728468700,7.66646875,-0.8130624890327454,-0.1186437383294105,-0.8052061796188354
2024-12-07 15:59:59.738496000,7.67649609375,-0.8034750819206238,-0.0728374049067497,-0.8222503662109375
2024-12-07 15:59:59.748523000,7.68652294921875,-0.6000097393989563,-0.1772332340478897,-0.715723991394043
2024-12-07 15:59:59.758550300,7.69655029296875,-0.4018706977367401,-0.4339617788791656,-0.5293028950691223
2024-12-07 15:59:59.768577500,7.70657763671875,-0.3198454082012176,-0.6832334399223328,-0.3865575492382049
2024-12-07 15:59:59.778604500,7.7166044921875,-0.2047969400882721,-0.8281093239784241,-0.2640522122383117
2024-12-07 15:59:59.788631800,7.7266318359375,-0.0609863437712192,-0.7375619411468506,-0.1532648056745529
2024-12-07 15:59:59.798659000,7.7366591796875,-0.0023968431632965,-0.3604585826396942,-0.1372858583927154
2024-12-07 15:59:59.808686000,7.74668603515625,-0.0759000331163406,0.1316932141780853,-0.1937448233366012
2024-12-07 15:59:59.818713300,7.75671337890625,-0.1941442936658859,0.5077312588691711,-0.2257027328014373
2024-12-07 15:59:59.828740600,7.76674072265625,-0.2687127590179443,0.6664555668830872,-0.2619217038154602
2024-12-07 15:59:59.838767900,7.776767822265625,-0.3720433413982391,0.7293061017990112,-0.3641870021820068
2024-12-07 15:59:59.848795000,7.786794921875,-0.5254412889480591,0.8187882900238037,-0.5239765644073486
2024-12-07 15:59:59.858822100,7.796822265625,-0.7139929533004761,0.8965525031089783,-0.6624608039855957
2024-12-07 15:59:59.868849400,7.806849365234375,-0.8950877785682678,0.8400935530662537,-0.7434208393096924
2024-12-07 15:59:59.878876400,7.81687646484375,-0.9930920004844666,0.6600639820098877,-0.7732482552528381
2024-12-07 15:59:59.888903700,7.826903564453125,-1.0261151790618896,0.4704470634460449,-0.7775092720985413
2024-12-07 15:59:59.898931000,7.836930908203125,-1.0357025861740112,0.1977395564317703,-0.7519429922103882
2024-12-07 15:59:59.908958000,7.8469580078125,-0.9472857117652892,-0.2006690353155136,-0.6305029392242432
2024-12-07 15:59:59.918985200,7.856985107421875,-0.7416898012161255,-0.5085302591323853,-0.4920186400413513
2024-12-07 15:59:59.929012500,7.867012451171875,-0.4753738939762115,-0.606534481048584,-0.3993407189846039
2024-12-07 15:59:59.939039700,7.877039794921875,-0.2665822207927704,-0.4872249662876129,-0.3609912097454071
2024-12-07 15:59:59.949066800,7.887066650390625,-0.1344895362854004,-0.1804290264844894,-0.3290333151817322
2024-12-07 15:59:59.959094000,7.897093994140625,-0.0194410607218742,0.3032006621360779,-0.2597911655902862
2024-12-07 15:59:59.969121300,7.907121337890625,0.1392832249403,0.7527419328689575,-0.1639174371957779
2024-12-07 15:59:59.979148300,7.917148193359375,0.3001380264759063,0.9530115127563475,-0.1138500496745109
2024-12-07 15:59:59.989175600,7.927175537109375,0.3672496378421783,0.9082704186439514,-0.1500690132379531
2024-12-07 15:59:59.999202800,7.937202880859375,0.3661843836307525,0.7463503479957581,-0.2139848321676254
2024-12-07 16:00:00.009229800,7.947229736328125,0.3097254037857055,0.4928175806999206,-0.2874880135059356
2024-12-07 16:00:00.019257000,7.957257080078125,0.2330264151096344,0.146606907248497,-0.363121747970581
2024-12-07 16:00:00.029284400,7.967284423828125,0.1041295230388641,-0.2475406378507614,-0.4568649530410766
2024-12-07 16:00:00.039311600,7.9773115234375,-0.094009518623352,-0.5639239549636841,-0.5367597341537476
2024-12-07 16:00:00.049338600,7.987338623046875,-0.2410158962011337,-0.7418229579925537,-0.5474123358726501
2024-12-07 16:00:00.059366000,7.997365966796875,-0.3123885691165924,-0.8099998235702515,-0.5293028950691223
2024-12-07 16:00:00.069393200,8.00739306640625,-0.3070622384548187,-0.7812377214431763,-0.5239765644073486
2024-12-07 16:00:00.079420200,8.017420166015626,-0.2346243113279342,-0.6693850159645081,-0.543151319026947
2024-12-07 16:00:00.089447400,8.027447509765626,-0.1004010960459709,-0.4840291738510132,-0.564456582069397
2024-12-07 16:00:00.099474700,8.037474609375,0.0572579205036163,-0.2038648277521133,-0.551673412322998
2024-12-07 16:00:00.109501700,8.047501708984376,0.1978727281093597,0.0901479348540306,-0.5122586488723755
2024-12-07 16:00:00.119529000,8.057529052734376,0.3022685647010803,0.3330280482769012,-0.4749744236469269
2024-12-07 16:00:00.129556200,8.06755615234375,0.3427485823631286,0.4651207327842712,-0.4579302072525024
2024-12-07 16:00:00.139583500,8.07758349609375,0.32676962018013,0.4960133731365204,-0.4419512450695038
2024-12-07 16:00:00.149610500,8.087610595703126,0.2713759243488312,0.4864259958267212,-0.4142543971538543
2024-12-07 16:00:00.159637800,8.0976376953125,0.2234390527009964,0.4161186218261719,-0.3673827946186065
2024-12-07 16:00:00.169665000,8.1076650390625,0.1424790173768997,0.3053312003612518,-0.3407512009143829
2024-12-07 16:00:00.179692300,8.1176923828125,0.0615189746022224,0.1956090331077575,-0.327968031167984
2024-12-07 16:00:00.189719600,8.127719482421876,0.0146473748609423,0.1327584832906723,-0.308793306350708
2024-12-07 16:00:00.199746800,8.137746826171876,-0.0226368531584739,0.068842664361,-0.2938795983791351
2024-12-07 16:00:00.209774000,8.147774169921876,-0.0652474015951156,-0.0131826372817158,-0.2917490899562835
2024-12-07 16:00:00.219801300,8.15780126953125,-0.105727419257164,-0.085620567202568,-0.3077280223369598
2024-12-07 16:00:00.229828600,8.16782861328125,-0.1398158520460128,-0.1324921697378158,-0.3471427857875824
2024-12-07 16:00:00.239855900,8.17785595703125,-0.1547295451164245,-0.1292963773012161,-0.3865575492382049
2024-12-07 16:00:00.249883100,8.187883056640626,-0.1344895362854004,-0.084555298089981,-0.3982754349708557
2024-12-07 16:00:00.259910100,8.19791015625,-0.1004010960459709,-0.0376837030053138,-0.4025365114212036
2024-12-07 16:00:00.269937400,8.2079375,-0.094009518623352,-0.0291615929454565,-0.4217112362384796
2024-12-07 16:00:00.279964700,8.217964599609376,-0.0982705727219581,-0.0430100187659263,-0.438755452632904
2024-12-07 16:00:00.289992000,8.227991943359376,-0.1078579425811767,-0.0664458200335502,-0.449408084154129
2024-12-07 16:00:00.300019200,8.238019287109376,-0.1270326822996139,-0.0994689911603927,-0.449408084154129
2024-12-07 16:00:00.310046500,8.24804638671875,-0.1504684835672378,-0.1431448012590408,-0.4430165290832519
2024-12-07 16:00:00.320073700,8.25807373046875,-0.1739042848348617,-0.1921469271183014,-0.4344944059848785
2024-12-07 16:00:00.330101000,8.26810107421875,-0.1941442936658859,-0.2251701056957245,-0.4259723126888275
2024-12-07 16:00:00.340128300,8.278128173828126,-0.2079927325248718,-0.2422143220901489,-0.419580727815628
2024-12-07 16:00:00.350155500,8.288155517578126,-0.2122537791728973,-0.2326269447803497,-0.4153196513652801
2024-12-07 16:00:00.360182800,8.298182861328126,-0.2122537791728973,-0.1804290264844894,-0.4163849353790283
2024-12-07 16:00:00.370209800,8.308209716796876,-0.2143843024969101,-0.1037300452589988,-0.4227765202522278
2024-12-07 16:00:00.380237000,8.318237060546876,-0.2292979955673217,-0.0217047464102506,-0.4291680753231048
2024-12-07 16:00:00.390264300,8.328264404296876,-0.2569948434829712,0.0464721247553825,-0.4259723126888275
2024-12-07 16:00:00.400291600,8.33829150390625,-0.2953443527221679,0.0912131965160369,-0.4131891429424286
2024-12-07 16:00:00.410318800,8.34831884765625,-0.3326285779476166,0.1103879436850547,-0.3993407189846039
2024-12-07 16:00:00.420346000,8.35834619140625,-0.3635212182998657,0.1114532053470611,-0.3972101807594299
2024-12-07 16:00:00.430373400,8.368373291015626,-0.3805654346942901,0.1157142594456672,-0.4089280664920807
2024-12-07 16:00:00.440400600,8.378400634765624,-0.3826959729194641,0.1380847990512848,-0.430233359336853
2024-12-07 16:00:00.450428000,8.388427978515624,-0.3763043880462646,0.1721732318401336,-0.4589954614639282
2024-12-07 16:00:00.460455200,8.398455078125,-0.3624559640884399,0.2115879952907562,-0.4888228476047516
2024-12-07 16:00:00.470482200,8.408482177734374,-0.3464770019054413,0.27763432264328,-0.5133239030838013
2024-12-07 16:00:00.480509400,8.418509521484374,-0.3326285779476166,0.3383543491363525,-0.5367597341537476
2024-12-07 16:00:00.490536700,8.42853662109375,-0.3145190775394439,0.3916175365447998,-0.5527386665344238
2024-12-07 16:00:00.500564000,8.43856396484375,-0.3422159552574157,0.4246407151222229,-0.5740439295768738
2024-12-07 16:00:00.510591200,8.44859130859375,-0.3411506712436676,0.4480765163898468,-0.5623260736465454
2024-12-07 16:00:00.520618500,8.458618408203124,-0.3145190775394439,0.4928175806999206,-0.5367597341537476
2024-12-07 16:00:00.530645800,8.468645751953124,-0.3017359375953674,0.503470242023468,-0.5410207509994507
2024-12-07 16:00:00.540673000,8.478673095703124,-0.29108327627182,0.4715123176574707,-0.5740439295768738
2024-12-07 16:00:00.550700300,8.4887001953125,-0.2463422119617462,0.4619249403476715,-0.6049365997314453
2024-12-07 16:00:00.560727600,8.4987275390625,-0.2005358785390854,0.5109270811080933,-0.6379597783088684
2024-12-07 16:00:00.570754600,8.508754638671874,-0.1643169224262237,0.6121271252632141,-0.6603302955627441
2024-12-07 16:00:00.580781800,8.51878173828125,-0.1515337526798248,0.7442198395729065,-0.6592650413513184
2024-12-07 16:00:00.590809000,8.52880908203125,-0.1653821766376495,0.8827040791511536,-0.6294376254081726
2024-12-07 16:00:00.600836000,8.538836181640624,-0.2079927325248718,0.9849693775177002,-0.5846965909004211
2024-12-07 16:00:00.610863400,8.54886328125,-0.2878875136375427,0.9711209535598756,-0.5324986577033997
2024-12-07 16:00:00.620890600,8.558890625,-0.4082622826099396,0.8038745522499084,-0.4664523303508758
2024-12-07 16:00:00.630917600,8.568917724609374,-0.492418110370636,0.5759081840515137,-0.3482080399990082
2024-12-07 16:00:00.640945000,8.57894482421875,-0.5094623565673828,0.3394196331501007,-0.2065279930830001
2024-12-07 16:00:00.650972200,8.58897216796875,-0.4221107065677643,0.1593900769948959,-0.0861531943082809
2024-12-07 16:00:00.660999400,8.59899951171875,-0.2633864283561706,0.0294279083609581,-0.0126500055193901
2024-12-07 16:00:00.671026400,8.6090263671875,-0.1323590129613876,-0.0813595131039619,0.0171773768961429
2024-12-07 16:00:00.681053700,8.6190537109375,-0.0727042406797409,-0.0930774137377739,0.0757668763399124
2024-12-07 16:00:00.691081000,8.6290810546875,0.0029294749256223,-0.1442100703716278,0.1769669204950332
2024-12-07 16:00:00.701108000,8.63910791015625,0.1872200816869735,-0.3167827725410461,0.2600574791431427
2024-12-07 16:00:00.711135200,8.64913525390625,0.3736412227153778,-0.4488754570484161,0.3037332892417907
2024-12-07 16:00:00.721162500,8.65916259765625,0.4301002025604248,-0.4126565158367157,0.3378217220306396
2024-12-07 16:00:00.731189800,8.669189697265624,0.4002728164196014,-0.2741722166538238,0.4326302111148834
2024-12-07 16:00:00.741216800,8.679216796875,0.3331612050533294,-0.141014277935028,0.5945502519607544
2024-12-07 16:00:00.751244000,8.689244140625,0.2351569533348083,-0.0376837030053138,0.792689323425293
2024-12-07 16:00:00.761271300,8.699271240234374,0.1211737394332885,0.079495295882225,0.9865673184394836
2024-12-07 16:00:00.771298300,8.70929833984375,0.0231694839894771,0.2552638053894043,1.144226312637329
2024-12-07 16:00:00.781325600,8.71932568359375,-0.0513989701867103,0.4619249403476715,1.2688621282577517
2024-12-07 16:00:00.791352800,8.729352783203124,-0.1014663651585578,0.6398239731788635,1.3966938257217407
2024-12-07 16:00:00.801379800,8.7393798828125,-0.1419463753700256,0.7474156022071838,1.5437002182006836
2024-12-07 16:00:00.811407000,8.749406982421876,-0.1547295451164245,0.7388935089111328,1.692837119102478
2024-12-07 16:00:00.821434400,8.759434326171874,-0.1387505829334259,0.6408892273902893,1.8419740200042725
2024-12-07 16:00:00.831461600,8.769461669921874,-0.0897484645247459,0.5290365815162659,1.982588768005371
2024-12-07 16:00:00.841488600,8.779488525390626,0.0082557927817106,0.4651207327842712,2.097637176513672
2024-12-07 16:00:00.851516000,8.789515869140626,0.1531316488981247,0.4981439113616943,2.171140432357788
2024-12-07 16:00:00.861543200,8.799543212890624,0.3203780353069305,0.6611292362213135,2.206294059753418
2024-12-07 16:00:00.871570200,8.809570068359376,0.483363389968872,0.9391630291938782,2.174336194992065
2024-12-07 16:00:00.881597400,8.819597412109376,0.617586612701416,1.228914737701416,2.072070837020874
2024-12-07 16:00:00.891624700,8.829624755859374,0.7060034871101379,1.4824475049972534,1.9218688011169431
2024-12-07 16:00:00.901651700,8.839651611328126,0.7464835047721863,1.6496938467025757,1.7514265775680542
2024-12-07 16:00:00.911679000,8.849678955078126,0.768854022026062,1.7263928651809692,1.5873759984970093
2024-12-07 16:00:00.921706200,8.859706298828126,0.7134603261947632,1.581516981124878,1.3604748249053955
2024-12-07 16:00:00.931733500,8.8697333984375,0.6378266215324402,1.164999008178711,1.1101378202438354
2024-12-07 16:00:00.941760500,8.879760498046876,0.5845634341239929,0.7239798307418823,0.9993504285812378
2024-12-07 16:00:00.951787800,8.889787841796876,0.5600623488426208,0.2233058959245681,0.9418262243270874
2024-12-07 16:00:00.961815000,8.89981494140625,0.588824450969696,-0.218778520822525,0.8874977827072144
2024-12-07 16:00:00.971842000,8.909842041015626,0.655936062335968,-0.4946818053722381,0.8406261801719666
2024-12-07 16:00:00.981869300,8.919869384765626,0.7028076648712158,-0.6363618969917297,0.792689323425293
2024-12-07 16:00:00.991896600,8.929896484375,0.7273087501525879,-0.698147177696228,0.7511440515518188
2024-12-07 16:00:01.001923600,8.939923583984376,0.7454182505607605,-0.7205176949501038,0.7372955679893494
2024-12-07 16:00:01.011950800,8.949950927734376,0.768854022026062,-0.7226482033729553,0.7660577297210693
2024-12-07 16:00:01.021978000,8.95997802734375,0.8029424548149109,-0.7418229579925537,0.8214514255523682
2024-12-07 16:00:01.032005400,8.97000537109375,0.8412919640541077,-0.8153261542320251,0.8619314432144165
2024-12-07 16:00:01.042032400,8.980032470703126,0.8753803968429565,-0.9111998677253724,0.8534093499183655
2024-12-07 16:00:01.052059600,8.9900595703125,0.9020119905471802,-0.9463536143302916,0.7990809082984924
2024-12-07 16:00:01.062087000,9.0000869140625,0.9105340838432312,-0.8845682740211487,0.7170555591583252
2024-12-07 16:00:01.072114000,9.010114013671876,0.8924246430397034,-0.8025429844856262,0.633965015411377
2024-12-07 16:00:01.082141200,9.02014111328125,0.8657930493354797,-0.7215829491615295,0.5625923871994019
2024-12-07 16:00:01.092168400,9.03016845703125,0.8178561329841614,-0.606534481048584,0.491219699382782
2024-12-07 16:00:01.102195700,9.04019580078125,0.7741803526878357,-0.5830987095832825,0.4230428338050842
2024-12-07 16:00:01.112223000,9.050222900390626,0.7528750896453857,-0.6640587449073792,0.3655185997486114
2024-12-07 16:00:01.122250200,9.060250244140626,0.7209171652793884,-0.7301050424575806,0.300537496805191
2024-12-07 16:00:01.132277500,9.070277587890626,0.6516750454902649,-0.7524756193161011,0.1918806135654449
2024-12-07 16:00:01.142304500,9.080304443359376,0.6026729345321655,-0.8366314172744751,0.0597879216074943
2024-12-07 16:00:01.152331800,9.090331787109376,0.5153213143348694,-0.7897598147392273,-0.0957405716180801
2024-12-07 16:00:01.162359000,9.100359130859376,0.4119907021522522,-0.5671197175979614,-0.229963794350624
2024-12-07 16:00:01.172386300,9.11038623046875,0.3203780353069305,-0.3870901763439178,-0.2960101366043091
2024-12-07 16:00:01.182413600,9.12041357421875,0.204264298081398,-0.2581932842731476,-0.2864227592945099
2024-12-07 16:00:01.192440800,9.13044091796875,0.1030642539262771,-0.151666909456253,-0.2278332561254501
2024-12-07 16:00:01.202468000,9.140468017578126,0.0338221192359924,-0.1037300452589988,-0.1756353378295898
2024-12-07 16:00:01.212495400,9.150495361328124,-0.0439421236515045,-0.0547279193997383,-0.1617869138717651
2024-12-07 16:00:01.222522600,9.160522705078124,-0.1238368973135948,0.1125184744596481,-0.1671132296323776
2024-12-07 16:00:01.232550000,9.1705498046875,-0.1909485012292862,0.3170490860939026,-0.1553953289985656
2024-12-07 16:00:01.242577200,9.1805771484375,-0.2399506419897079,0.4342280924320221,-0.1245026886463165
2024-12-07 16:00:01.252604200,9.190604248046874,-0.2804306447505951,0.4853607416152954,-0.0882837250828743
2024-12-07 16:00:01.262631400,9.20063134765625,-0.3294327855110168,0.4757733643054962,-0.0573910772800445
2024-12-07 16:00:01.272658700,9.21065869140625,-0.3752391040325165,0.4278365075588226,-0.0414121225476264
2024-12-07 16:00:01.282686000,9.22068603515625,-0.4029359817504883,0.3330280482769012,-0.0318247526884079
2024-12-07 16:00:01.292713200,9.230713134765624,-0.4157191216945648,0.1956090331077575,-0.0137152690440416
2024-12-07 16:00:01.302740500,9.240740478515624,-0.4135886132717132,0.0368847548961639,-0.0019973693415522
2024-12-07 16:00:01.312767700,9.250767822265624,-0.3986749053001404,-0.1548627018928527,0.0001331579551333
2024-12-07 16:00:01.322795000,9.260794921875,-0.3709780573844909,-0.3274354040622711,-0.0169110596179962
2024-12-07 16:00:01.332822300,9.270822265625,-0.3155843615531921,-0.4936165511608124,-0.0605868697166442
2024-12-07 16:00:01.342849500,9.280849609375,-0.2250369489192962,-0.6395576596260071,-0.1149153187870979
2024-12-07 16:00:01.352876500,9.29087646484375,-0.1270326822996139,-0.7205176949501038,-0.1756353378295898
2024-12-07 16:00:01.362903800,9.30090380859375,-0.0354200154542923,-0.7450187802314758,-0.2427469491958618
2024-12-07 16:00:01.372931000,9.31093115234375,0.0551273934543132,-0.7237134575843811,-0.3130543529987335
2024-12-07 16:00:01.382958300,9.320958251953124,0.137152686715126,-0.6757766008377075,-0.384427011013031
2024-12-07 16:00:01.392985600,9.330985595703124,0.2106558829545974,-0.5436839461326599,-0.4472775757312774
2024-12-07 16:00:01.403012900,9.341012939453124,0.2788327634334564,-0.3711112141609192,-0.4824312627315521
2024-12-07 16:00:01.413040000,9.3510400390625,0.3416832983493805,-0.2230395674705505,-0.4834965467453003
2024-12-07 16:00:01.423067400,9.3610673828125,0.4098601937294006,-0.1463405936956405,-0.440885990858078
2024-12-07 16:00:01.433094700,9.3710947265625,0.483363389968872,-0.1751027107238769,-0.3620564937591553
2024-12-07 16:00:01.443122000,9.381121826171874,0.534496009349823,-0.2954775094985962,-0.2683132886886596
2024-12-07 16:00:01.453149200,9.391149169921874,0.5611276030540466,-0.4510059952735901,-0.1980058848857879
2024-12-07 16:00:01.463176200,9.40117626953125,0.5771065950393677,-0.5745765566825867,-0.1777658760547638
2024-12-07 16:00:01.473203500,9.411203369140624,0.5664539337158203,-0.6427534222602844,-0.2225069403648376
2024-12-07 16:00:01.483230700,9.421230712890624,0.5067991614341736,-0.643818736076355,-0.3162501454353332
2024-12-07 16:00:01.493258000,9.431258056640624,0.4066644012928009,-0.560728132724762,-0.4600607454776764
2024-12-07 16:00:01.503285200,9.44128515625,0.2745717167854309,-0.4488754570484161,-0.627307116985321
2024-12-07 16:00:01.513312500,9.4513125,0.1137168928980827,-0.3348922431468963,-0.7775092720985413
2024-12-07 16:00:01.523339800,9.46133984375,-0.0716389790177345,-0.2038648277521133,-0.9064062237739564
2024-12-07 16:00:01.533367000,9.471366943359374,-0.3411506712436676,-0.1047953143715858,-1.0182589292526243
2024-12-07 16:00:01.543394300,9.481394287109374,-0.668186604976654,-0.0664458200335502,-1.0981537103652954
2024-12-07 16:00:01.553421600,9.491421630859374,-0.91213196516037,0.0283626448363065,-1.105610489845276
2024-12-07 16:00:01.563448600,9.501448486328124,-0.9206541180610656,0.1039963662624359,-0.9575388431549072
2024-12-07 16:00:01.573475800,9.511475830078124,-0.6383592486381531,0.0496679171919822,-0.5868270993232727
2024-12-07 16:00:01.583503000,9.521503173828124,0.018908429890871,-0.2155827283859253,-0.0701742395758628
2024-12-07 16:00:01.593530400,9.5315302734375,0.534496009349823,-0.6960166096687317,0.3665838539600372
2024-12-07 16:00:01.603557400,9.541557373046874,0.5739107728004456,-0.8238482475280762,0.5242428779602051
2024-12-07 16:00:01.613584600,9.551584716796874,0.4652538895606994,-0.4563323259353637,0.4507396817207336
2024-12-07 16:00:01.623612000,9.56161181640625,0.3363569974899292,0.0241015907377004,0.2185122072696685
2024-12-07 16:00:01.633639000,9.571638916015624,0.1446095407009124,0.4033354520797729,-0.0659131854772567
2024-12-07 16:00:01.643666200,9.581666259765624,-0.1525990217924118,0.7527419328689575,-0.2779006659984588
2024-12-07 16:00:01.653693400,9.591693359375,-0.4231759905815124,1.1596726179122925,-0.4057323038578033
2024-12-07 16:00:01.663720400,9.601720458984374,-0.6713824272155762,1.5026875734329224,-0.5793702602386475
2024-12-07 16:00:01.673747700,9.611747802734374,-0.9355677962303162,1.5697991847991943,-0.7775092720985413
2024-12-07 16:00:01.683775000,9.62177490234375,-1.1422289609909058,1.3759211301803589,-0.9138630628585817
2024-12-07 16:00:01.693802200,9.63180224609375,-1.2530163526535034,0.9530115127563475,-0.9692567586898804
2024-12-07 16:00:01.703829200,9.641829345703124,-1.284974217414856,0.3596596419811249,-0.9223851561546326
2024-12-07 16:00:01.713856500,9.6518564453125,-1.2466248273849487,-0.1644500792026519,-0.8233156204223633
2024-12-07 16:00:01.723883800,9.6618837890625,-1.0676604509353638,-0.4510059952735901,-0.7732482552528381
2024-12-07 16:00:01.733910800,9.671910888671874,-0.6862961053848267,-0.4850944280624389,-0.798814594745636
2024-12-07 16:00:01.743938000,9.68193798828125,-0.227167472243309,-0.2145174592733383,-0.798814594745636
2024-12-07 16:00:01.753965300,9.69196533203125,0.1307611167430877,0.3458112180233001,-0.7444861531257629
2024-12-07 16:00:01.763992300,9.701992431640624,0.3150517344474792,1.150085210800171,-0.6613955497741699
2024-12-07 16:00:01.774019600,9.71201953125,0.450340211391449,1.8116140365600584,-0.6134586930274963
2024-12-07 16:00:01.784046800,9.722046875,0.4929507374763489,1.9767298698425293,-0.6613955497741699
2024-12-07 16:00:01.794074000,9.73207421875,0.4332959949970245,1.705087661743164,-0.7668566703796387
2024-12-07 16:00:01.804101000,9.74210107421875,0.3874896466732025,1.1138663291931152,-0.815858781337738
2024-12-07 16:00:01.814128400,9.75212841796875,0.3619233071804046,0.4022701680660248,-0.7498124241828918
2024-12-07 16:00:01.824155600,9.76215576171875,0.2553969621658325,-0.1751027107238769,-0.6091976165771484
2024-12-07 16:00:01.834182700,9.7721826171875,0.088150568306446,-0.4392880797386169,-0.4579302072525024
2024-12-07 16:00:01.844210000,9.7822099609375,-0.0183757971972227,-0.4573975801467895,-0.3684480488300323
2024-12-07 16:00:01.854237200,9.7922373046875,-0.0226368531584739,-0.2507364153861999,-0.3215764760971069
2024-12-07 16:00:01.864264400,9.802264404296874,0.0274305380880832,-0.0067910556681454,-0.3109238147735595
2024-12-07 16:00:01.874291500,9.81229150390625,0.1190432086586952,0.1838911324739456,-0.3396859467029571
2024-12-07 16:00:01.884318700,9.822318603515624,0.182959035038948,0.2872216999530792,-0.3982754349708557
2024-12-07 16:00:01.894346000,9.832345947265624,0.1659148186445236,0.269112229347229,-0.4824312627315521
2024-12-07 16:00:01.904373000,9.842373046875,0.1254348009824752,0.2403501123189926,-0.5367597341537476
2024-12-07 16:00:01.914400300,9.852400146484374,0.060453712940216,0.2925480306148529,-0.5612607598304749
2024-12-07 16:00:01.924427500,9.862427490234374,-0.040746334940195,0.5098618268966675,-0.5452818274497986
2024-12-07 16:00:01.934454500,9.87245458984375,-0.1866874545812606,0.7527419328689575,-0.5474123358726501
2024-12-07 16:00:01.944481800,9.882481689453124,-0.339020162820816,0.8305061459541321,-0.543151319026947
2024-12-07 16:00:01.954509000,9.892509033203124,-0.4988096952438354,0.7101313471794128,-0.4771049618721008
2024-12-07 16:00:01.964536300,9.902536376953124,-0.6777740120887756,0.4896217882633209,-0.3833617568016052
2024-12-07 16:00:01.974563300,9.912563232421874,-0.8673909306526184,0.3394196331501007,-0.2715090811252594
2024-12-07 16:00:01.984590600,9.922590576171874,-1.0847047567367554,0.3063964545726776,-0.1127847880125045
2024-12-07 16:00:01.994617900,9.932617919921874,-1.2231889963150024,0.1689774394035339,0.1290300637483596
2024-12-07 16:00:02.004644900,9.942644775390624,-1.2977573871612549,-0.1740374416112899,0.3016027808189392
2024-12-07 16:00:02.014672100,9.952672119140624,-1.2349069118499756,-0.606534481048584,0.2430132627487182
2024-12-07 16:00:02.024699400,9.962699462890624,-1.0005488395690918,-0.840892493724823,0.0406131781637668
2024-12-07 16:00:02.034726400,9.972726318359374,-0.5776392221450806,-0.5809681415557861,-0.0456731803715229
2024-12-07 16:00:02.044753700,9.982753662109374,-0.2569948434829712,0.0720384567975997,0.0011984215816482
2024-12-07 16:00:02.054781000,9.992781005859374,-0.0151800066232681,0.5407544374465942,0.0203731674700975
2024-12-07 16:00:02.064808200,10.00280810546875,0.2681801319122314,0.7026745080947876,-0.022237379103899
2024-12-07 16:00:02.074835500,10.01283544921875,0.4098601937294006,0.6185187101364136,-0.0925447791814804
2024-12-07 16:00:02.084862700,10.02286279296875,0.3438138365745544,0.4928175806999206,-0.0957405716180801
2024-12-07 16:00:02.094890000,10.032889892578124,0.2340916842222213,0.3095922470092773,-0.052064761519432
2024-12-07 16:00:02.104917200,10.042917236328124,0.148870587348938,0.0230363253504037,-0.0211721155792474
2024-12-07 16:00:02.114944300,10.0529443359375,0.0508663393557071,-0.1942774504423141,-0.0169110596179962
2024-12-07 16:00:02.124971500,10.062971435546874,-0.0737695097923278,-0.3050648868083954,-0.0435426495969295
2024-12-07 16:00:02.134998800,10.072998779296874,-0.1557948142290115,-0.4499407410621643,-0.0573910772800445
2024-12-07 16:00:02.145026000,10.083026123046874,-0.2207758873701095,-0.5916208028793335,-0.0893489867448806
2024-12-07 16:00:02.155053300,10.09305322265625,-0.2079927325248718,-0.615056574344635,-0.1127847880125045
2024-12-07 16:00:02.165080600,10.10308056640625,-0.120641104876995,-0.5149217844009399,-0.1362205892801284
2024-12-07 16:00:02.175107800,10.11310791015625,-0.0258326437324285,-0.3221091032028198,-0.1820269227027893
2024-12-07 16:00:02.185135000,10.123135009765624,0.072171613574028,-0.0739026665687561,-0.2214416861534118
2024-12-07 16:00:02.195162400,10.133162353515624,0.138217955827713,0.2073269337415695,-0.229963794350624
2024-12-07 16:00:02.205189600,10.143189697265624,0.1595232337713241,0.466185986995697,-0.2235722094774246
2024-12-07 16:00:02.215217000,10.153216796875,0.1637842804193496,0.6536723971366882,-0.2246374636888504
2024-12-07 16:00:02.225244000,10.163243896484374,0.1243695318698883,0.7655251026153564,-0.2374206334352493
2024-12-07 16:00:02.235271200,10.173271240234374,0.0870852991938591,0.7484808564186096,-0.2384859025478363
2024-12-07 16:00:02.245298400,10.18329833984375,0.0157126393169164,0.5940176248550415,-0.2587259113788605
2024-12-07 16:00:02.255325700,10.19332568359375,-0.0737695097923278,0.3745733201503753,-0.2736395895481109
2024-12-07 16:00:02.265353000,10.20335302734375,-0.160055860877037,0.1391500681638717,-0.2736395895481109
2024-12-07 16:00:02.275380200,10.213380126953124,-0.2399506419897079,-0.0525973923504352,-0.2619217038154602
2024-12-07 16:00:02.285407500,10.223407470703124,-0.284691721200943,-0.1932121962308883,-0.2427469491958618
2024-12-07 16:00:02.295434800,10.233434814453124,-0.2772348523139953,-0.2635195851325989,-0.229963794350624
2024-12-07 16:00:02.305462000,10.2434619140625,-0.228232741355896,-0.2368880063295364,-0.2374206334352493
2024-12-07 16:00:02.315489300,10.2534892578125,-0.1621863842010498,-0.1751027107238769,-0.262986958026886
2024-12-07 16:00:02.325516300,10.263516357421874,-0.0812263563275337,-0.1261005848646164,-0.2853575050830841
2024-12-07 16:00:02.335543600,10.27354345703125,-0.0098536890000104,-0.112252153456211,-0.2896185517311096
2024-12-07 16:00:02.345570800,10.28357080078125,0.0370179116725921,-0.1367532163858413,-0.2672480046749115
2024-12-07 16:00:02.355598000,10.29359814453125,0.0593884475529193,-0.1836248189210891,-0.2438122183084488
2024-12-07 16:00:02.365625300,10.303625244140624,0.0551273934543132,-0.2454101145267486,-0.250203788280487
2024-12-07 16:00:02.375652600,10.313652587890624,0.0295610651373863,-0.3498059511184692,-0.2800311744213104
2024-12-07 16:00:02.385680000,10.323679931640624,-0.0141147430986166,-0.4573975801467895,-0.3098585605621338
2024-12-07 16:00:02.395707100,10.33370703125,-0.0652474015951156,-0.5181176066398621,-0.3141196072101593
2024-12-07 16:00:02.405734400,10.343734375,-0.1121189966797828,-0.4946818053722381,-0.2992059290409088
2024-12-07 16:00:02.415761700,10.35376171875,-0.1387505829334259,-0.3796333372592926,-0.2896185517311096
2024-12-07 16:00:02.425789000,10.363788818359374,-0.1653821766376495,-0.2784332931041717,-0.2832269668579101
2024-12-07 16:00:02.435816000,10.37381591796875,-0.1994706094264984,-0.2571280002593994,-0.2800311744213104
2024-12-07 16:00:02.445843200,10.38384326171875,-0.2399506419897079,-0.2763027548789978,-0.2853575050830841
2024-12-07 16:00:02.455870500,10.393870361328124,-0.2836264371871948,-0.3210438191890716,-0.2874880135059356
2024-12-07 16:00:02.465897700,10.403897705078125,-0.3347590863704681,-0.3689807057380676,-0.2619217038154602
2024-12-07 16:00:02.475925000,10.413925048828125,-0.3848264813423157,-0.3988080620765686,-0.2214416861534118
2024-12-07 16:00:02.485952300,10.4239521484375,-0.4189149141311645,-0.3924165070056915,-0.1884185075759887
2024-12-07 16:00:02.495979500,10.4339794921875,-0.4412854611873626,-0.3412838280200958,-0.1767006069421768
2024-12-07 16:00:02.506006800,10.4440068359375,-0.4487423002719879,-0.2475406378507614,-0.1926795542240142
2024-12-07 16:00:02.516034000,10.454033935546876,-0.435959130525589,-0.1463405936956405,-0.2267680019140243
2024-12-07 16:00:02.526061300,10.464061279296876,-0.4125233590602875,-0.06964161247015,-0.2587259113788605
2024-12-07 16:00:02.536088300,10.47408837890625,-0.3613906800746918,-0.0355531722307205,-0.2789659202098846
2024-12-07 16:00:02.546115600,10.484115478515625,-0.2857569754123688,-0.0472710728645324,-0.2928143441677093
2024-12-07 16:00:02.556142800,10.494142822265625,-0.2676474750041961,-0.0568584464490413,-0.317315399646759
2024-12-07 16:00:02.566170000,10.504170166015625,-0.2527337968349457,-0.0557931847870349,-0.3290333151817322
2024-12-07 16:00:02.576197400,10.514197265625,-0.2292979955673217,-0.0430100187659263,-0.363121747970581
2024-12-07 16:00:02.586224400,10.524224365234376,-0.1962748318910598,0.0145142171531915,-0.4291680753231048
2024-12-07 16:00:02.596251600,10.534251708984376,-0.1579253375530243,0.118910051882267,-0.514389157295227
2024-12-07 16:00:02.606279000,10.54427880859375,-0.1579253375530243,0.2275669425725937,-0.594283938407898
2024-12-07 16:00:02.616306000,10.554305908203125,-0.1664474457502365,0.2946785688400268,-0.6219807863235474
2024-12-07 16:00:02.626333200,10.564333251953125,-0.1962748318910598,0.3873564898967743,-0.6123934388160706
2024-12-07 16:00:02.636360400,10.5743603515625,-0.2506032586097717,0.511992335319519,-0.5665870904922485
2024-12-07 16:00:02.646387700,10.5843876953125,-0.3219759464263916,0.6472808122634888,-0.514389157295227
2024-12-07 16:00:02.656414700,10.594414794921876,-0.3709780573844909,0.7644598484039307,-0.4675175845623016
2024-12-07 16:00:02.666442000,10.60444189453125,-0.4018706977367401,0.8198535442352295,-0.4334291517734527
2024-12-07 16:00:02.676469200,10.61446923828125,-0.4135886132717132,0.7942872047424316,-0.3769701719284057
2024-12-07 16:00:02.686496300,10.624496337890625,-0.3997401893138885,0.7516766786575317,-0.2704437971115112
2024-12-07 16:00:02.696523500,10.6345234375,-0.3273022472858429,0.6898913383483887,-0.1447426974773407
2024-12-07 16:00:02.706550800,10.64455078125,-0.1824263930320739,0.5854955315589905,-0.0435426495969295
2024-12-07 16:00:02.716577800,10.654577880859376,-0.0162452701479196,0.4384891390800476,0.005459476262331
2024-12-07 16:00:02.726605000,10.66460498046875,0.0913463607430458,0.2861564457416534,0.0320910662412643
2024-12-07 16:00:02.736632300,10.67463232421875,0.1115863695740699,0.1860216706991195,0.0874847769737243
2024-12-07 16:00:02.746659600,10.68465966796875,0.1051947847008705,0.1412805914878845,0.2035985141992569
2024-12-07 16:00:02.756686600,10.6946865234375,0.1733716577291488,0.0251668542623519,0.3527354300022125
2024-12-07 16:00:02.766713900,10.7047138671875,0.2958769798278808,-0.150601640343666,0.4763059914112091
2024-12-07 16:00:02.776741000,10.7147412109375,0.3523359596729278,-0.2912164330482483,0.5615270733833313
2024-12-07 16:00:02.786768100,10.72476806640625,0.3534012138843536,-0.3657849133014679,0.6669881939888
2024-12-07 16:00:02.796795400,10.73479541015625,0.3544664680957794,-0.3583280444145202,0.8182556629180908
2024-12-07 16:00:02.806822700,10.74482275390625,0.337422251701355,-0.3008038103580475,0.9844367504119872
2024-12-07 16:00:02.816849700,10.754849609375,0.3150517344474792,-0.1729721873998642,1.1112031936645508
2024-12-07 16:00:02.826877000,10.764876953125,0.2884201407432556,0.0198405347764492,1.1634010076522827
2024-12-07 16:00:02.836904200,10.774904296875,0.2436790615320205,0.2147837877273559,1.1953589916229248
2024-12-07 16:00:02.846931500,10.784931396484374,0.1776327192783355,0.3660512268543243,1.2635358572006226
2024-12-07 16:00:02.856958500,10.79495849609375,0.1009337306022644,0.4768386483192444,1.3860411643981934
2024-12-07 16:00:02.866985700,10.80498583984375,0.0263652745634317,0.54181969165802,1.5458307266235352
2024-12-07 16:00:02.877013000,10.815012939453124,-0.0311589613556861,0.5471460223197937,1.7237297296524048
2024-12-07 16:00:02.887040000,10.8250400390625,-0.0535294972360134,0.4864259958267212,1.8963024616241453
2024-12-07 16:00:02.897067300,10.8350673828125,-0.0311589613556861,0.4225101768970489,2.03798246383667
2024-12-07 16:00:02.907094500,10.845094482421874,0.0221042204648256,0.401204913854599,2.131725788116455
2024-12-07 16:00:02.917121800,10.855121826171874,0.1062600463628768,0.4384891390800476,2.1849889755249023
2024-12-07 16:00:02.927148800,10.865148681640624,0.2031990438699722,0.5045354962348938,2.2041635513305664
2024-12-07 16:00:02.937176000,10.875176025390624,0.3043990731239319,0.5567334294319153,2.18072772026062
2024-12-07 16:00:02.947203300,10.885203369140624,0.4034686088562011,0.5695165991783142,2.0891151428222656
2024-12-07 16:00:02.957230300,10.895230224609374,0.4918854832649231,0.5929523706436157,1.948500394821167
2024-12-07 16:00:02.967257600,10.905257568359374,0.5099949836730957,0.8358324766159058,1.8473002910614016
2024-12-07 16:00:02.977284900,10.915284912109374,0.4886896908283233,0.9498156905174256,1.660879135131836
2024-12-07 16:00:02.987311900,10.925311767578124,0.4556665122509002,0.7878956198692322,1.3966938257217407
2024-12-07 16:00:02.997339100,10.935339111328124,0.4439486265182495,0.57058185338974,1.1719231605529783
2024-12-07 16:00:03.007366400,10.945366455078124,0.450340211391449,0.3468764722347259,0.9929588437080384
2024-12-07 16:00:03.017393700,10.9553935546875,0.4812328517436981,0.1487374305725097,0.8171903491020203
2024-12-07 16:00:03.027420700,10.965420654296874,0.5536707639694214,-0.032357383519411,0.6701840162277222
2024-12-07 16:00:03.037448000,10.975447998046874,0.6623276472091675,-0.1644500792026519,0.558331310749054
2024-12-07 16:00:03.047475200,10.98547509765625,0.7976161241531372,-0.1793637722730636,0.4837628602981567
2024-12-07 16:00:03.057502500,10.99550244140625,0.9552751779556274,-0.162319540977478,0.4518049359321594
2024-12-07 16:00:03.067529700,11.00552978515625,1.0905636548995972,-0.2081258893013,0.478436529636383
2024-12-07 16:00:03.077557000,11.015556884765624,1.183241605758667,-0.3082606792449951,0.5689839720726013
2024-12-07 16:00:03.087584300,11.025584228515624,1.2492879629135132,-0.4350270330905914,0.6776408553123474
2024-12-07 16:00:03.097611500,11.035611572265625,1.284441590309143,-0.4850944280624389,0.7575356364250183
2024-12-07 16:00:03.107638800,11.045638671875,1.2759195566177368,-0.4701807498931885,0.7692534923553467
2024-12-07 16:00:03.117666000,11.055666015625,1.2247868776321411,-0.5032039284706116,0.725577712059021
2024-12-07 16:00:03.127693000,11.065693115234374,1.1651321649551392,-0.6129260659217834,0.649944007396698
2024-12-07 16:00:03.137720300,11.07572021484375,1.0351699590682983,-0.652340829372406,0.5572660565376282
2024-12-07 16:00:03.147747600,11.08574755859375,0.8849677443504333,-0.6363618969917297,0.4752407371997833
2024-12-07 16:00:03.157774800,11.09577490234375,0.7837677001953125,-0.6768419146537781,0.3889544010162353
2024-12-07 16:00:03.167802000,11.105802001953125,0.7283740043640137,-0.7578019499778748,0.3069290816783905
2024-12-07 16:00:03.177829400,11.115829345703125,0.638891875743866,-0.7578019499778748,0.2121206223964691
2024-12-07 16:00:03.187856600,11.125856689453125,0.504668653011322,-0.7024081945419312,0.1045289933681488
2024-12-07 16:00:03.197884000,11.1358837890625,0.4087949097156524,-0.6459492444992065,0.005459476262331
2024-12-07 16:00:03.207911200,11.1459111328125,0.3480748832225799,-0.5713807940483093,-0.0946753025054931
2024-12-07 16:00:03.217938400,11.1559384765625,0.2948117256164551,-0.4850944280624389,-0.1830921918153762
2024-12-07 16:00:03.227965700,11.165965576171876,0.2372874766588211,-0.4126565158367157,-0.2427469491958618
2024-12-07 16:00:03.237992700,11.17599267578125,0.1840242892503738,-0.3412838280200958,-0.2736395895481109
2024-12-07 16:00:03.248020000,11.18602001953125,0.1286305785179138,-0.2411490529775619,-0.2864227592945099
2024-12-07 16:00:03.258047200,11.196047119140625,0.0700410827994346,-0.0813595131039619,-0.2810964286327362
2024-12-07 16:00:03.268074500,11.206074462890625,0.0082557927817106,0.1434111148118972,-0.2725743353366852
2024-12-07 16:00:03.278101800,11.216101806640625,-0.0620516054332256,0.3532680571079254,-0.2661827504634857
2024-12-07 16:00:03.288129000,11.22612890625,-0.1515337526798248,0.4683165252208709,-0.2565953731536865
2024-12-07 16:00:03.298156300,11.23615625,-0.2516685426235199,0.4970786571502685,-0.2352901101112365
2024-12-07 16:00:03.308183600,11.24618359375,-0.3560643792152405,0.4491417706012726,-0.1873532384634018
2024-12-07 16:00:03.318210800,11.2562109375,-0.4455465078353882,0.3468764722347259,-0.1266332119703292
2024-12-07 16:00:03.328238000,11.266238037109376,-0.5126581192016602,0.2051964104175567,-0.0595216043293476
2024-12-07 16:00:03.338265000,11.27626513671875,-0.5573992133140564,0.054994236677885,0.0001331579551333
2024-12-07 16:00:03.348292400,11.286292236328125,-0.5797697305679321,-0.0739026665687561,0.0438089668750762
2024-12-07 16:00:03.358319600,11.296319580078125,-0.5744433999061584,-0.1772332340478897,0.0619184486567974
2024-12-07 16:00:03.368347000,11.306346923828125,-0.529702365398407,-0.264584869146347,0.0704405605792999
2024-12-07 16:00:03.378374100,11.3163740234375,-0.4412854611873626,-0.3572627902030945,0.0576573945581913
2024-12-07 16:00:03.388401400,11.3264013671875,-0.3251717388629913,-0.4520712494850158,0.0246342215687036
2024-12-07 16:00:03.398428700,11.3364287109375,-0.2090579867362976,-0.5340965390205383,-0.0169110596179962
2024-12-07 16:00:03.408456000,11.3464560546875,-0.0854874104261398,-0.5745765566825867,-0.0648479238152504
2024-12-07 16:00:03.418483200,11.356483154296876,0.0487358123064041,-0.5213133692741394,-0.1106542572379112
2024-12-07 16:00:03.428510500,11.366510498046877,0.1680453419685363,-0.3892207145690918,-0.1479384899139404
2024-12-07 16:00:03.438537700,11.376537841796877,0.2692453861236572,-0.2624543309211731,-0.1575258672237396
2024-12-07 16:00:03.448564700,11.386564697265625,0.3565970063209533,-0.2166479974985122,-0.129829004406929
2024-12-07 16:00:03.458592000,11.396592041015625,0.4492749273777008,-0.2912164330482483,-0.0829574093222618
2024-12-07 16:00:03.468619300,11.406619384765625,0.5376918315887451,-0.4424838721752167,-0.0307594873011112
2024-12-07 16:00:03.478646500,11.416646484375,0.6239781975746155,-0.643818736076355,0.0299605391919612
2024-12-07 16:00:03.488673800,11.426673828125,0.6974813938140869,-0.857936680316925,0.1119858399033546
2024-12-07 16:00:03.498701000,11.436701171875,0.7283740043640137,-1.0017472505569458,0.2067943066358566
2024-12-07 16:00:03.508728300,11.446728271484377,0.7241129875183105,-1.0699241161346436,0.2866890728473663
2024-12-07 16:00:03.518755600,11.456755615234377,0.6836329698562622,-1.0656630992889404,0.3239732980728149
2024-12-07 16:00:03.528782800,11.466782958984377,0.5994771122932434,-1.0219873189926147,0.29201540350914
2024-12-07 16:00:03.538810000,11.47681005859375,0.4929507374763489,-0.9484841227531432,0.1950764060020446
2024-12-07 16:00:03.548837000,11.486837158203125,0.3640538454055786,-0.870719850063324,0.0406131781637668
2024-12-07 16:00:03.558864400,11.496864501953125,0.2149169445037841,-0.8334356546401978,-0.1500690132379531
2024-12-07 16:00:03.568891600,11.5068916015625,0.0743021368980407,-0.8313050866127014,-0.3418164849281311
2024-12-07 16:00:03.578918700,11.516918701171877,-0.0428768619894981,-0.8270440697669983,-0.4930838942527771
2024-12-07 16:00:03.588946000,11.52694580078125,-0.1376853287220001,-0.8206524848937988,-0.6230461001396179
2024-12-07 16:00:03.598973200,11.53697314453125,-0.2218411564826965,-0.7940208911895752,-0.7657914161682129
2024-12-07 16:00:03.609000200,11.547000244140625,-0.3102580308914184,-0.7237134575843811,-0.9106672406196594
2024-12-07 16:00:03.619027500,11.55702734375,-0.4082622826099396,-0.5862944722175598,-1.0470210313796997
2024-12-07 16:00:03.629054700,11.5670546875,-0.5265065431594849,-0.3657849133014679,-1.14715576171875
2024-12-07 16:00:03.639082000,11.57708203125,-0.6500771641731262,-0.0888163596391677,-1.1865705251693726
2024-12-07 16:00:03.649109000,11.58710888671875,-0.7235803008079529,0.1540637612342834,-1.141829490661621
2024-12-07 16:00:03.659136300,11.59713623046875,-0.6372939944267273,0.3063964545726776,-1.0139977931976318
2024-12-07 16:00:03.669163500,11.60716357421875,-0.3592601716518402,0.3245059251785278,-0.7764440178871155
