time,seconds_elapsed,z,y,x
2024-12-07 20:21:07.597195800,0.01519580078125,-0.1434274613857269,0.3245348036289215,-0.7017332911491394
2024-12-07 20:21:07.607210000,0.0252099609375,-0.0953091979026794,0.1966798901557922,-0.8405771851539612
2024-12-07 20:21:07.617224000,0.035223876953125,-0.1637894958257675,0.0237364564090967,-0.846227765083313
2024-12-07 20:21:07.627238100,0.045238037109375,-0.2995894253253937,-0.1352896839380264,-0.7472103834152222
2024-12-07 20:21:07.637250800,0.055250732421875,-0.4417064487934112,-0.2456243187189102,-0.587661623954773
2024-12-07 20:21:07.647265000,0.06526513671875,-0.5338749885559082,-0.2504915297031402,-0.397672027349472
2024-12-07 20:21:07.657279000,0.075279052734375,-0.6015662550926208,-0.3560453355312347,-0.2566798031330108
2024-12-07 20:21:07.667293000,0.08529296875,-0.6417171359062195,-0.5570713877677917,-0.1903055757284164
2024-12-07 20:21:07.677305900,0.095305908203125,-0.6570444107055664,-0.6487475037574768,-0.1570046842098236
2024-12-07 20:21:07.687320000,0.105320068359375,-0.6590889096260071,-0.6217910051345825,-0.1561021357774734
2024-12-07 20:21:07.697333800,0.115333740234375,-0.676628828048706,-0.5023345947265625,-0.1585164964199066
2024-12-07 20:21:07.707348000,0.125347900390625,-0.7612974643707275,-0.3368923366069793,-0.1495448350906372
2024-12-07 20:21:07.717361000,0.13536083984375,-0.8986222743988037,-0.1610408574342727,-0.1334117650985717
2024-12-07 20:21:07.727375000,0.145375,-1.0412318706512451,-0.0088960584253072,-0.1307597905397415
2024-12-07 20:21:07.737388800,0.155388916015625,-1.121799349784851,0.1208427622914314,-0.1151751428842544
2024-12-07 20:21:07.747403000,0.165403076171875,-1.1158509254455566,0.2217187732458114,-0.0634333863854408
2024-12-07 20:21:07.757416000,0.175416015625,-1.029602289199829,0.2237714529037475,0.0008062007836997
2024-12-07 20:21:07.767430000,0.185429931640625,-0.8795481324195862,0.1201814040541648,0.0499191507697105
2024-12-07 20:21:07.777443800,0.19544384765625,-0.6863936185836792,0.013767248019576,0.0743874311447143
2024-12-07 20:21:07.787458000,0.2054580078125,-0.4805241227149963,-0.0595330633223056,0.085579365491867
2024-12-07 20:21:07.797471000,0.215470947265625,-0.1886539608240127,-0.0984337478876113,-0.0482371971011161
2024-12-07 20:21:07.807485000,0.22548486328125,-0.1324735134840011,-0.1273839026689529,-0.4365977048873901
2024-12-07 20:21:07.817499000,0.235498779296875,-0.4642122089862823,-0.1398751139640808,-0.8202455639839172
2024-12-07 20:21:07.827513000,0.24551318359375,-0.8081226944923401,-0.0376565977931022,-0.7557339668273926
2024-12-07 20:21:07.837525800,0.25552587890625,-1.060168981552124,0.1170781105756759,-0.3286148607730865
2024-12-07 20:21:07.847540000,0.2655400390625,-1.3163597583770752,0.2214500606060028,0.0517050437629222
2024-12-07 20:21:07.857554000,0.275553955078125,-1.6433919668197632,0.2869216799736023,0.2247343957424163
2024-12-07 20:21:07.867568000,0.285568115234375,-1.9750769138336184,0.3408371210098266,0.2315678000450134
2024-12-07 20:21:07.877581800,0.295581787109375,-2.159320831298828,0.3954381346702575,0.1307534277439117
2024-12-07 20:21:07.887595000,0.305594970703125,-2.110389232635498,0.3486623764038086,-0.1067435592412948
2024-12-07 20:21:07.897609000,0.31560888671875,-1.9692810773849487,0.1848905533552169,-0.3784269392490387
2024-12-07 20:21:07.907623000,0.325622802734375,-1.8624755144119265,0.0473230928182601,-0.5312117338180542
2024-12-07 20:21:07.917636900,0.335636962890625,-1.8543411493301392,0.0264456775039434,-0.5099673867225647
2024-12-07 20:21:07.927650000,0.345650146484375,-1.9002580642700195,0.1827567219734192,-0.3339502215385437
2024-12-07 20:21:07.937664000,0.3556640625,-1.962550163269043,0.3743379116058349,-0.1501559168100357
2024-12-07 20:21:07.947678000,0.365677978515625,-2.0302913188934326,0.4718940258026123,-0.0019613914191722
2024-12-07 20:21:07.957692000,0.37569189453125,-2.082837104797364,0.4539678692817688,0.0788778886198997
2024-12-07 20:21:07.967705000,0.385705078125,-2.131894588470459,0.3957205414772033,0.1131762117147445
2024-12-07 20:21:07.977718800,0.39571875,-2.183548927307129,0.2729627192020416,0.0523083209991455
2024-12-07 20:21:07.987733000,0.40573291015625,-2.209815263748169,0.0439297892153263,-0.0357019640505313
2024-12-07 20:21:07.997747000,0.415746826171875,-2.118092536926269,-0.1212599948048591,-0.0799161419272422
2024-12-07 20:21:08.007760000,0.425759765625,-1.8420060873031616,-0.3358029127120971,-0.1818361133337021
2024-12-07 20:21:08.017773800,0.43577392578125,-1.4126981496810913,-0.582212507724762,-0.2883649468421936
2024-12-07 20:21:08.027788000,0.4457880859375,-0.9210719466209412,-0.6825973987579346,-0.3275302052497864
2024-12-07 20:21:08.037802000,0.455802001953125,-0.7849060297012329,-0.6643779277801514,-0.4520670473575592
2024-12-07 20:21:08.047815000,0.46581494140625,-0.971847414970398,-0.6061620712280273,-0.6655132174491882
2024-12-07 20:21:08.057828900,0.475828857421875,-0.9098650217056274,-0.496500551700592,-0.6599698066711426
2024-12-07 20:21:08.067843000,0.485843017578125,-0.7293042540550232,-0.4324451386928558,-0.5153846740722656
2024-12-07 20:21:08.077857000,0.49585693359375,-0.6680158972740173,-0.4335014820098877,-0.3944032788276672
2024-12-07 20:21:08.087870000,0.505869873046875,-0.6145595908164978,-0.4929991662502289,-0.3178901076316833
2024-12-07 20:21:08.097884000,0.5158837890625,-0.4273719787597656,-0.4646191298961639,-0.1884119212627411
2024-12-07 20:21:08.107898000,0.525898193359375,-0.1276324242353439,-0.365609735250473,-0.0162579994648695
2024-12-07 20:21:08.117911800,0.535911865234375,0.1840772032737732,-0.1607683002948761,0.1728822588920593
2024-12-07 20:21:08.127924200,0.54592431640625,0.3174009025096893,0.1013906076550483,0.3689923882484436
2024-12-07 20:21:08.137938000,0.55593798828125,0.3566662967205047,0.3118607401847839,0.6894882917404175
2024-12-07 20:21:08.147952000,0.5659521484375,0.4350388646125793,0.4896581470966339,0.9466798901557922
2024-12-07 20:21:08.157966000,0.575966064453125,0.4256361424922943,0.6957026124000549,0.8693572878837585
2024-12-07 20:21:08.167979000,0.58597900390625,-0.17250557243824,0.6729493737220764,0.4157013893127441
2024-12-07 20:21:08.177993000,0.595992919921875,-0.4933295845985412,0.3483905494213104,0.1021094247698783
2024-12-07 20:21:08.188007200,0.606007080078125,-0.4449250400066376,-0.1352887600660324,-0.0599314123392105
2024-12-07 20:21:08.198021000,0.616021240234375,-0.2496474981307983,-0.4842409491539001,-0.0848735943436622
2024-12-07 20:21:08.208034000,0.626033935546875,-0.1004697382450103,-0.5130552649497986,-0.040528766810894
2024-12-07 20:21:08.218048000,0.636048095703125,-0.0235267076641321,-0.2684361040592193,-0.0241573024541139
2024-12-07 20:21:08.228062200,0.646062255859375,0.0613263957202434,0.0101023046299815,-0.0535823032259941
2024-12-07 20:21:08.238076200,0.656076171875,0.1642552763223648,0.2291475087404251,-0.0014361133798956
2024-12-07 20:21:08.248089000,0.666089111328125,0.1605577319860458,0.2425985932350158,0.0076338141225278
2024-12-07 20:21:08.258103000,0.67610302734375,0.1145814955234527,0.136184737086296,-0.0141816651448607
2024-12-07 20:21:08.268117200,0.6861171875,0.0471103116869926,0.0227066371589899,-0.040986381471157
2024-12-07 20:21:08.278131000,0.696130859375,0.0118294199928641,-0.0308577604591846,-0.0359861850738525
2024-12-07 20:21:08.288144100,0.70614404296875,-0.0197378285229206,-0.0097338324412703,-0.0005666748620569
2024-12-07 20:21:08.298158000,0.716157958984375,-0.0319072306156158,0.0244082864373922,0.026690574362874
2024-12-07 20:21:08.308172000,0.726172119140625,-0.021488144993782,0.0409784726798534,0.0254303663969039
2024-12-07 20:21:08.318186000,0.73618603515625,-0.01846195012331,0.0520914085209369,0.0213724561035633
2024-12-07 20:21:08.328199200,0.74619921875,-0.0112557038664817,0.0658508986234664,0.0282106548547744
2024-12-07 20:21:08.338213000,0.756213134765625,-0.0067168334499001,0.0814445465803146,0.0515415333211422
2024-12-07 20:21:08.348227000,0.76622705078125,-0.001221400918439,0.0973348245024681,0.069889910519123
2024-12-07 20:21:08.358241000,0.776240966796875,0.0068849055096507,0.1116656884551048,0.0580439679324626
2024-12-07 20:21:08.368254200,0.786254150390625,0.0127065759152174,0.1270129680633545,0.0261795129626989
2024-12-07 20:21:08.378268000,0.796267822265625,0.0151157593354582,0.1387057602405548,0.0040954146534204
2024-12-07 20:21:08.388282000,0.8062822265625,0.016361054033041,0.1396162956953048,0.007876836694777
2024-12-07 20:21:08.398296000,0.816296142578125,0.0186318848282098,0.1456579566001892,0.0118438517674803
2024-12-07 20:21:08.408309000,0.82630908203125,0.0230641830712556,0.1635719835758209,0.0028386388439685
2024-12-07 20:21:08.418323000,0.836322998046875,0.0233380924910306,0.1622301340103149,-5.885958671569824e-07
2024-12-07 20:21:08.428337200,0.846337158203125,0.0271645225584507,0.1355266124010086,0.0114166494458913
2024-12-07 20:21:08.438351000,0.85635107421875,0.0287480819970369,0.0973553657531738,0.0180673096328973
2024-12-07 20:21:08.448364000,0.866364013671875,0.0210848357528448,0.0649401694536209,0.0139729660004377
2024-12-07 20:21:08.458378000,0.8763779296875,0.0119460653513669,0.0470727831125259,0.0097940471023321
2024-12-07 20:21:08.468392200,0.88639208984375,0.0015466877957805,0.0402319207787513,0.0053154085762798
2024-12-07 20:21:08.478406100,0.89640625,-0.010691468603909,0.0421897917985916,0.0066138943657279
2024-12-07 20:21:08.488419000,0.906419189453125,-0.0176945161074399,0.0312005225569009,0.008538294583559
2024-12-07 20:21:08.498433000,0.91643310546875,-0.0207705572247505,0.0124794263392686,0.0115538528189063
2024-12-07 20:21:08.508447200,0.926447265625,-0.0206853356212377,-0.0027192342095077,0.0049468162469565
2024-12-07 20:21:08.518461000,0.9364609375,-0.0147499497979879,-0.0161021519452333,-0.0034448043443262
2024-12-07 20:21:08.528474000,0.94647412109375,-0.0093922019004821,-0.0166124124079942,-0.0103807412087917
2024-12-07 20:21:08.538488000,0.956488037109375,-0.0057297772727906,-0.0119507741183042,-0.0134039707481861
2024-12-07 20:21:08.548502300,0.966502197265625,-0.0034631607122719,-0.0005284763174131,-0.0185230989009141
2024-12-07 20:21:08.558516000,0.976515869140625,-0.0010287656914442,0.0097804106771945,-0.0161715690046548
2024-12-07 20:21:08.568529200,0.986529052734375,0.0016181500395759,0.0143538573756814,0.0064368043094873
2024-12-07 20:21:08.578543000,0.996543212890625,0.0058460077270865,0.0182735808193683,0.0205432828515768
2024-12-07 20:21:08.588557000,1.00655712890625,0.0086633656173944,0.031968355178833,0.0240352191030979
2024-12-07 20:21:08.598571000,1.016571044921875,0.0037389127537608,0.050777368247509,0.0310096479952335
2024-12-07 20:21:08.608584200,1.026584228515625,0.0013029192341491,0.068200297653675,0.0391147099435329
2024-12-07 20:21:08.618598000,1.036597900390625,0.0027435133233666,0.0912875905632972,0.0380829833447933
2024-12-07 20:21:08.628612000,1.046612060546875,0.0070863300934433,0.1136895641684532,0.031860239803791
2024-12-07 20:21:08.638626000,1.0566259765625,0.0132388100028038,0.1208243742585182,0.0219533573836088
2024-12-07 20:21:08.648639200,1.06663916015625,0.0133432056754827,0.1126711070537567,0.0269257444888353
2024-12-07 20:21:08.658653000,1.07665283203125,0.0100656971335411,0.1056968197226524,0.0406352579593658
2024-12-07 20:21:08.668667100,1.086667236328125,0.0102004529908299,0.1128812283277511,0.0549651905894279
2024-12-07 20:21:08.678681000,1.09668115234375,0.0186815559864044,0.1235815435647964,0.0714925080537796
2024-12-07 20:21:08.688694000,1.106694091796875,0.0252092294394969,0.1323878169059753,0.0738030597567558
2024-12-07 20:21:08.698708000,1.1167080078125,0.0264183040708303,0.1225228831171989,0.0605741180479526
2024-12-07 20:21:08.708722200,1.12672216796875,0.025586599484086,0.0863824561238288,0.0371020808815956
2024-12-07 20:21:08.718736100,1.136736083984375,0.0195948872715234,0.0635103955864906,0.0077752377837896
2024-12-07 20:21:08.728749000,1.1467490234375,0.0146651100367307,0.0532604269683361,-0.010341715067625
2024-12-07 20:21:08.738763000,1.156762939453125,0.0133811999112367,0.0318504758179187,-0.0176808536052703
2024-12-07 20:21:08.748777200,1.166777099609375,0.0096901459619402,0.0092860870063304,-0.0265016928315162
2024-12-07 20:21:08.758791200,1.176791259765625,0.0065746465697884,-0.0036403362173587,-0.0348404720425605
2024-12-07 20:21:08.768804000,1.18680419921875,0.0078063583932816,-0.0080196382477879,-0.0358444862067699
2024-12-07 20:21:08.778818000,1.196818115234375,0.0077143483795225,-0.0073675722815096,-0.042445957660675
2024-12-07 20:21:08.788832300,1.206832275390625,0.0079724080860614,-0.0159096606075763,-0.0422270447015762
2024-12-07 20:21:08.798846000,1.216845947265625,0.0016893015708774,-0.0197218358516693,-0.026071572676301
2024-12-07 20:21:08.808859100,1.226859130859375,-0.0027366059366613,-0.015073288232088,-0.0115914326161146
2024-12-07 20:21:08.818873000,1.236873046875,-0.0067652142606675,-0.0066920965909957,-0.0069221034646034
2024-12-07 20:21:08.828887000,1.246886962890625,-0.0188157521188259,0.0031405608169734,-0.0182724948972463
2024-12-07 20:21:08.838901000,1.25690087890625,-0.0203725472092628,0.0027831515762954,-0.0342936851084232
2024-12-07 20:21:08.848914200,1.2669140625,-0.0134161049500107,-0.0158360712230205,-0.0427689291536808
2024-12-07 20:21:08.858928000,1.27692822265625,-0.0088078593835234,-0.03984360024333,-0.0494341850280761
2024-12-07 20:21:08.868942000,1.286942138671875,-0.0009097224101424,-0.0661431178450584,-0.0548566430807113
2024-12-07 20:21:08.878956000,1.2969560546875,0.0022679169196635,-0.0856926813721656,-0.0531601645052433
2024-12-07 20:21:08.888969200,1.30696923828125,0.0055236313492059,-0.087722010910511,-0.0464535243809223
2024-12-07 20:21:08.898983000,1.31698291015625,0.008989380672574,-0.0695658400654792,-0.0289636440575122
2024-12-07 20:21:08.908997000,1.3269970703125,0.0101758185774087,-0.0301300138235092,-0.0129593769088387
2024-12-07 20:21:08.919011000,1.337010986328125,0.0097792744636535,0.0055080829188227,-0.0045932806096971
2024-12-07 20:21:08.929024000,1.34702392578125,0.0088730007410049,0.0200273692607879,0.0029197626281529
2024-12-07 20:21:08.939038000,1.357037841796875,0.0032046395353972,0.0258036833256483,-0.0006057103164494
2024-12-07 20:21:08.949052200,1.36705224609375,-0.0047393036074936,0.0353798754513263,-0.0062497477047145
2024-12-07 20:21:08.959066000,1.377066162109375,-0.0071492870338261,0.0392071790993213,-0.0003480804152786
2024-12-07 20:21:08.969079000,1.3870791015625,-0.008160488680005,0.0454099476337432,0.0013145310804247
2024-12-07 20:21:08.979093000,1.397093017578125,-0.0119379162788391,0.0470861420035362,0.0020125454757362
2024-12-07 20:21:08.989107200,1.407107177734375,-0.0112755894660949,0.0387131609022617,-0.006364959757775
2024-12-07 20:21:08.999121200,1.41712109375,-0.0091950856149196,0.0342296734452247,-0.0180158875882625
2024-12-07 20:21:09.009134000,1.427134033203125,-0.0057119373232126,0.0380228161811828,-0.0255166813731193
2024-12-07 20:21:09.019148000,1.43714794921875,-0.0003929377999156,0.0525306239724159,-0.020779563114047
2024-12-07 20:21:09.029162200,1.447162353515625,0.0052625508978962,0.0686105191707611,-0.0195848699659109
2024-12-07 20:21:09.039176000,1.457176025390625,0.0069917878136038,0.0754087045788765,-0.0152587592601776
2024-12-07 20:21:09.049189000,1.467189208984375,0.0094477552920579,0.0787192806601524,-0.0101042110472917
2024-12-07 20:21:09.059203000,1.477203125,0.0130466623231768,0.0829101577401161,-0.0082665691152215
2024-12-07 20:21:09.069217300,1.48721728515625,0.0130557175725698,0.0795721486210823,-0.0028259977698326
2024-12-07 20:21:09.079231000,1.49723095703125,0.010073285549879,0.0603920109570026,0.0164982993155717
2024-12-07 20:21:09.089244200,1.507244140625,0.0007841794285923,0.0421237908303737,0.0285768005996942
2024-12-07 20:21:09.099258000,1.517258056640625,-0.0064553106203675,0.0317929908633232,0.0261491760611534
2024-12-07 20:21:09.109272000,1.52727197265625,-0.0094732046127319,0.0312680825591087,0.0151953287422657
2024-12-07 20:21:09.119286000,1.5372861328125,-0.0108970655128359,0.0328645035624504,0.0007966561242938
2024-12-07 20:21:09.129298400,1.54729833984375,-0.0081063387915492,0.0363340713083744,-0.0140904150903224
2024-12-07 20:21:09.139312400,1.5573125,-0.0024648746475577,0.049974825233221,-0.0210497081279754
2024-12-07 20:21:09.149326600,1.56732666015625,-0.0022592786699533,0.0662893503904342,-0.0149007374420762
2024-12-07 20:21:09.159340500,1.577340576171875,-0.0055392300710082,0.0788173526525497,-0.0040418631397187
2024-12-07 20:21:09.169353500,1.587353515625,-0.0072087654843926,0.0789337307214737,0.0051918486133217
2024-12-07 20:21:09.179367400,1.597367431640625,-0.0082222735509276,0.0762956291437149,0.0135486014187335
2024-12-07 20:21:09.189381600,1.607381591796875,-0.0057932045310735,0.0619728863239288,0.0091136395931243
2024-12-07 20:21:09.199395600,1.6173955078125,-0.0032831768039613,0.047336533665657,0.0066445409320294
2024-12-07 20:21:09.209408500,1.627408447265625,-0.000953976297751,0.0245531909167766,0.0068453433923423
2024-12-07 20:21:09.219422500,1.63742236328125,0.0018786049913614,0.0096625471487641,0.0042851553298532
2024-12-07 20:21:09.229436700,1.647436767578125,0.0026887385174632,-0.0049598054029047,-0.0014406410045921
2024-12-07 20:21:09.239449600,1.65744970703125,0.0031932324636727,-0.0157766435295343,-0.0014029433950781
2024-12-07 20:21:09.249463600,1.667463623046875,-0.0020302915945649,-0.007898480631411,0.0047646714374423
2024-12-07 20:21:09.259477500,1.6774775390625,-0.0069594918750226,0.0015305951237678,0.011199040338397
2024-12-07 20:21:09.269491500,1.687491455078125,-0.0086974706500768,0.0075197778642177,0.0089998021721839
2024-12-07 20:21:09.279504600,1.697504638671875,-0.0100323799997568,0.0077443113550543,-0.0012450008653104
2024-12-07 20:21:09.289518600,1.7075185546875,-0.011257167905569,0.0117766028270125,-0.0159389935433864
2024-12-07 20:21:09.299532500,1.717532470703125,-0.0114162042737007,0.0072852540761232,-0.0255312398076057
2024-12-07 20:21:09.309546500,1.72754638671875,-0.0103155197575688,-0.0014752144925296,-0.0282609760761261
2024-12-07 20:21:09.319559700,1.7375595703125,-0.0131544927135109,-0.0031295157968997,-0.0247782301157712
2024-12-07 20:21:09.329573600,1.74757373046875,-0.0118998773396015,-0.0027486835606396,-0.01412851549685
2024-12-07 20:21:09.339587300,1.75758740234375,-0.0107268886640667,0.0007814212003722,-0.0076654837466776
2024-12-07 20:21:09.349601500,1.7676015625,-0.0092855859547853,0.0091128544881939,-0.0044451900757849
2024-12-07 20:21:09.359614700,1.77761474609375,-0.0095192333683371,0.0280897542834281,0.0041926512494683
2024-12-07 20:21:09.369628700,1.787628662109375,-0.0048456517979502,0.0473939441144466,0.0094976685941219
2024-12-07 20:21:09.379642400,1.797642333984375,0.0009131231345236,0.0505254566669464,0.01584536395967
2024-12-07 20:21:09.389656600,1.807656494140625,0.003121416317299,0.0390136800706386,0.0139928683638572
2024-12-07 20:21:09.399669800,1.817669677734375,0.0017234317492693,0.0224643722176551,0.0082542989403009
2024-12-07 20:21:09.409683500,1.827683349609375,-0.0042148847132921,0.0135646201670169,0.0085808020085096
2024-12-07 20:21:09.419697400,1.837697509765625,-0.006423220038414,0.0141438320279121,0.0071667251177132
2024-12-07 20:21:09.429711600,1.847711669921875,-0.0100954528898,0.0095882285386323,-0.0002280743792653
2024-12-07 20:21:09.439724500,1.857724609375,-0.0115482509136199,0.0054566552862524,-0.0115911150351166
2024-12-07 20:21:09.449738500,1.867738525390625,-0.0072387238033115,0.0062532071024179,-0.0168524570763111
2024-12-07 20:21:09.459752400,1.87775244140625,-0.0018293571192771,-0.0047413152642548,-0.0186488330364227
2024-12-07 20:21:09.469766700,1.8877666015625,-0.0005350611172616,-0.0118120079860091,-0.0216576717793941
2024-12-07 20:21:09.479779600,1.897779541015625,0.0023500751703977,-0.0048899482935667,-0.0225914865732193
2024-12-07 20:21:09.489793500,1.90779345703125,0.002423312049359,-0.0039200251922011,-0.0225004069507122
2024-12-07 20:21:09.499807500,1.917807373046875,0.0051107518374919,-0.0127416644245386,-0.0191728938370943
2024-12-07 20:21:09.509821700,1.92782177734375,0.0078908260911703,-0.0295858923345804,-0.0122470762580633
2024-12-07 20:21:09.519834600,1.937834716796875,0.0101026250049471,-0.0489486269652843,-0.0123219192028045
2024-12-07 20:21:09.529848600,1.9478486328125,0.0080234948545694,-0.0666445344686508,-0.0237908214330673
2024-12-07 20:21:09.539862500,1.957862548828125,0.0035755289718508,-0.0749516189098358,-0.0305246263742446
2024-12-07 20:21:09.549876500,1.96787646484375,-0.0023129866458475,-0.0729124322533607,-0.0245362408459186
2024-12-07 20:21:09.559889700,1.9778896484375,-0.0054407799616456,-0.0652700290083885,-0.018927726894617
2024-12-07 20:21:09.569903600,1.987903564453125,-0.0097290026023983,-0.0528751499950885,-0.0122623667120933
2024-12-07 20:21:09.579917600,1.99791748046875,-0.009671033360064,-0.0362093970179557,-0.0085031278431415
2024-12-07 20:21:09.589931500,2.007931640625,-0.0083991074934601,-0.0157781578600406,-0.0035224840976297
2024-12-07 20:21:09.599944700,2.01794482421875,-0.0052072219550609,0.0131207024678587,0.0035849991254508
2024-12-07 20:21:09.609958700,2.027958740234375,-0.0036404845304787,0.0375749133527278,0.0050388188101351
2024-12-07 20:21:09.619972400,2.037972412109375,-0.0017534112557768,0.0433457680046558,0.0008239671587944
2024-12-07 20:21:09.629986600,2.047986572265625,-0.004880229011178,0.019450556486845,-0.0009305234998464
2024-12-07 20:21:09.639999700,2.057999755859375,-0.0107465954497456,0.0154685853049159,0.0023113756906241
2024-12-07 20:21:09.650013400,2.068013427734375,-0.0131274610757827,0.0272583980113267,0.0037209866568446
2024-12-07 20:21:09.660027400,2.07802734375,-0.0131313232704997,0.0395061522722244,-0.0036881654523313
2024-12-07 20:21:09.670040600,2.08804052734375,-0.0141318729147315,0.0395319834351539,-0.0132915247231721
2024-12-07 20:21:09.680054800,2.0980546875,-0.0123761398717761,0.0422669500112533,-0.0100587494671344
2024-12-07 20:21:09.690068500,2.108068359375,-0.009831222705543,0.0478710383176803,-0.0062112803570926
2024-12-07 20:21:09.700082400,2.11808251953125,-0.0043060509487986,0.05679702013731,-0.0142989754676818
2024-12-07 20:21:09.710095600,2.128095703125,0.0032469399739056,0.0593089126050472,-0.0183706823736429
2024-12-07 20:21:09.720109600,2.138109619140625,0.0093939155340194,0.0438223890960216,-0.0110439481213688
2024-12-07 20:21:09.730123500,2.14812353515625,0.0112096592783927,0.0331255383789539,0.000547993928194
2024-12-07 20:21:09.740137500,2.158137451171875,0.0096920561045408,0.0330712385475635,0.0026248386129736
2024-12-07 20:21:09.750150400,2.168150390625,0.0063029173761606,0.0222106017172336,-0.0049478597939014
2024-12-07 20:21:09.760164600,2.17816455078125,-0.0050339829176664,0.002112747868523,-0.0046930722892284
2024-12-07 20:21:09.770178600,2.188178466796875,-0.0112260989844799,-0.0129809835925698,0.0020753513090312
2024-12-07 20:21:09.780192500,2.198192626953125,-0.0107846343889832,-0.0214461348950862,3.96049581468e-05
2024-12-07 20:21:09.790205400,2.208205322265625,-0.0072431629523634,-0.0226405635476112,-0.0083919633179903
2024-12-07 20:21:09.800219600,2.2182197265625,-0.0021947412751615,-0.0175180565565824,-0.0195799712091684
2024-12-07 20:21:09.810233600,2.228233642578125,0.0006889293435961,-0.010413808748126,-0.0269438792020082
2024-12-07 20:21:09.820247600,2.23824755859375,0.0031133380252867,-0.0187040884047746,-0.0204004645347595
2024-12-07 20:21:09.830260500,2.248260498046875,0.0046835374087095,-0.0224354434758424,-0.0156384650617837
2024-12-07 20:21:09.840274700,2.258274658203125,0.0098487827926874,-0.0120338927954435,-0.0126301683485507
2024-12-07 20:21:09.850288600,2.26828857421875,0.0154278390109539,-0.0121606588363647,-0.0040907426737248
2024-12-07 20:21:09.860302300,2.27830224609375,0.0184758715331554,-0.0271743983030319,0.0025386130437254
2024-12-07 20:21:09.870315500,2.2883154296875,0.0205374248325824,-0.045143011957407,-0.0087537225335836
2024-12-07 20:21:09.880329700,2.298329833984375,0.0197830386459827,-0.0482368767261505,-0.0225471351295709
2024-12-07 20:21:09.890343700,2.30834375,0.0150814950466156,-0.0492073334753513,-0.0246382504701614
2024-12-07 20:21:09.900357400,2.318357421875,0.0115206707268953,-0.0486565046012401,-0.0178916826844215
2024-12-07 20:21:09.910370600,2.32837060546875,0.0065517453476786,-0.0425733141601085,-0.0129278171807527
2024-12-07 20:21:09.920384800,2.338384765625,0.0049886023625731,-0.0205871388316154,-0.0195668786764144
2024-12-07 20:21:09.930398500,2.3483984375,0.0080792009830474,-0.0040134899318218,-0.0343884341418743
2024-12-07 20:21:09.940412400,2.358412353515625,0.0136970952153205,-0.012948534451425,-0.0363901853561401
2024-12-07 20:21:09.950425600,2.368425537109375,0.0196135751903057,-0.019049035385251,-0.0359046906232833
2024-12-07 20:21:09.960439600,2.378439453125,0.0217021573334932,-0.0038987214211374,-0.03337924182415
2024-12-07 20:21:09.970453500,2.38845361328125,0.0206044036895036,0.016802828758955,-0.0388845279812812
2024-12-07 20:21:09.980466700,2.398466796875,0.0148701285943388,0.0352505855262279,-0.039161242544651
2024-12-07 20:21:09.990480600,2.408480712890625,0.0104154590517282,0.0433151684701442,-0.0274547860026359
2024-12-07 20:21:10.000494600,2.41849462890625,0.0090113971382379,0.0495133735239505,-0.01352777518332
2024-12-07 20:21:10.010508500,2.428508544921875,0.0094273816794157,0.0528516434133052,-0.0155416559427976
2024-12-07 20:21:10.020521700,2.438521728515625,0.008386573754251,0.0437024272978305,-0.0239519942551851
2024-12-07 20:21:10.030535400,2.448535400390625,0.007815858349204,0.0316609442234039,-0.0301992390304803
2024-12-07 20:21:10.040549600,2.458549560546875,0.0015420728595927,0.027684336528182,-0.0359031744301319
2024-12-07 20:21:10.050563600,2.4685634765625,-0.0034835785627365,0.0310849267989397,-0.0356858596205711
2024-12-07 20:21:10.060576500,2.478576416015625,-0.0045100944116711,0.0294618718326091,-0.0395404919981956
2024-12-07 20:21:10.070590500,2.488590576171875,0.0013222284615039,0.0240537896752357,-0.0465816222131252
2024-12-07 20:21:10.080604700,2.498604736328125,0.0106328185647726,0.017243567854166,-0.0468951985239982
2024-12-07 20:21:10.090618600,2.50861865234375,0.0189746376127004,-0.0019753996748477,-0.0372843816876411
2024-12-07 20:21:10.100631600,2.518631591796875,0.0143778882920742,-0.0007909670239314,-0.0435260571539402
2024-12-07 20:21:10.110645500,2.5286455078125,0.0056384578347206,0.0246954839676618,-0.053967248648405
2024-12-07 20:21:10.120659700,2.53865966796875,-0.0018508385401219,0.0454172752797603,-0.054500326514244
2024-12-07 20:21:10.130673000,2.5486728515625,-0.0056706108152866,0.0557024031877517,-0.0450615510344505
2024-12-07 20:21:10.140686000,2.55868603515625,-0.0005814875476062,0.0510994233191013,-0.0425429753959178
2024-12-07 20:21:10.150699800,2.56869970703125,0.000512805301696,0.0428705215454101,-0.0500323176383972
2024-12-07 20:21:10.160714000,2.5787138671875,0.0043395459651947,0.0427307076752185,-0.0595551617443561
2024-12-07 20:21:10.170728000,2.58872802734375,0.0119780246168375,0.0441147536039352,-0.0718909278512001
2024-12-07 20:21:10.180740900,2.598740966796875,0.0228220168501138,0.0377848669886589,-0.0785976350307464
2024-12-07 20:21:10.190754800,2.6087548828125,0.0282996073365211,0.0133690051734447,-0.0815910249948501
2024-12-07 20:21:10.200769000,2.61876904296875,0.0313491038978099,0.0035442546941339,-0.0847710818052291
2024-12-07 20:21:10.210783000,2.628782958984375,0.0355872586369514,0.0209442824125289,-0.0796378403902053
2024-12-07 20:21:10.220796000,2.6387958984375,0.0282811410725116,0.0596650503575801,-0.0626069232821464
2024-12-07 20:21:10.230809900,2.648809814453125,0.0151443015784025,0.0906069874763488,-0.0373993106186389
2024-12-07 20:21:10.240824000,2.658823974609375,0.0147799365222454,0.1002408191561698,-0.0200021155178546
2024-12-07 20:21:10.250838000,2.668838134765625,0.0267417915165424,0.1097783967852592,-0.0142225250601768
2024-12-07 20:21:10.260851000,2.678850830078125,0.0307048838585615,0.1422044932842254,-0.0292421858757734
2024-12-07 20:21:10.270865000,2.688864990234375,0.0224528145045042,0.1871088445186615,-0.0431153923273086
2024-12-07 20:21:10.280879000,2.698879150390625,0.0225396323949098,0.2161662280559539,-0.0421983264386653
2024-12-07 20:21:10.290891800,2.708891845703125,0.0307147372514009,0.2249173820018768,-0.0338290743529796
2024-12-07 20:21:10.300906000,2.718906005859375,0.0229847803711891,0.2363168448209762,-0.0322697795927524
2024-12-07 20:21:10.310920000,2.728919921875,0.0105334371328353,0.2516228258609772,-0.0399250350892543
2024-12-07 20:21:10.320934000,2.738933837890625,-0.0010023997165262,0.2673852145671844,-0.0452635884284973
2024-12-07 20:21:10.330946800,2.74894677734375,-0.0213470868766307,0.2721844911575317,-0.0346168056130409
2024-12-07 20:21:10.340961000,2.7589609375,-0.0263120606541633,0.2639320492744446,-0.0078650340437889
2024-12-07 20:21:10.350975000,2.76897509765625,-0.0062608551234006,0.2637903690338135,0.0089347176253795
2024-12-07 20:21:10.360989000,2.778989013671875,0.0215448103845119,0.2627335786819458,0.0088086389005184
2024-12-07 20:21:10.371001900,2.789001953125,0.0466453656554222,0.2633048295974731,-0.0218936149030923
2024-12-07 20:21:10.381016000,2.79901611328125,0.0466182492673397,0.2636440396308899,-0.0599729157984256
2024-12-07 20:21:10.391029800,2.80902978515625,0.0598829202353954,0.2519199848175049,-0.0736269429326057
2024-12-07 20:21:10.401044000,2.8190439453125,0.093776486814022,0.2392075955867767,-0.0757951587438583
2024-12-07 20:21:10.411057000,2.829056884765625,0.100276194512844,0.242958128452301,-0.0554014667868614
2024-12-07 20:21:10.421070800,2.83907080078125,0.0856099426746368,0.23305344581604,-0.0278237853199243
2024-12-07 20:21:10.431084800,2.849084716796875,0.0914923325181007,0.2291119694709777,-0.014397993683815
2024-12-07 20:21:10.441099000,2.85909912109375,0.0588231161236763,0.2250655442476272,-0.0182539485394954
2024-12-07 20:21:10.451112000,2.86911181640625,-0.0017305095680058,0.1837748289108276,-0.0202196277678012
2024-12-07 20:21:10.461126000,2.8791259765625,-0.0066591314971446,0.1141116917133331,-0.0161345712840557
2024-12-07 20:21:10.471139800,2.889139892578125,-0.0450619123876094,0.066548965871334,-0.0345599167048931
2024-12-07 20:21:10.481154000,2.899154052734375,-0.0671566054224968,0.0358064584434032,-0.0648786649107933
2024-12-07 20:21:10.491166700,2.909166748046875,-0.0823757722973823,0.0003699063090607,-0.0876295194029808
2024-12-07 20:21:10.501181000,2.919180908203125,-0.0822051540017128,-0.039978303015232,-0.1117885038256645
2024-12-07 20:21:10.511195000,2.92919482421875,-0.0773408934473991,-0.0653851255774498,-0.1432846486568451
2024-12-07 20:21:10.521209000,2.939208984375,-0.071661964058876,-0.0992939174175262,-0.1549925655126571
2024-12-07 20:21:10.531221800,2.9492216796875,-0.0750415176153183,-0.129269927740097,-0.1612352728843689
2024-12-07 20:21:10.541236000,2.959236083984375,-0.0830311775207519,-0.1358603090047836,-0.1634697318077087
2024-12-07 20:21:10.551250000,2.96925,-0.096117153763771,-0.1229748725891113,-0.1572773456573486
2024-12-07 20:21:10.561264000,2.97926416015625,-0.1070918664336204,-0.1011442467570304,-0.1398006528615951
2024-12-07 20:21:10.571276800,2.98927685546875,-0.1151058450341224,-0.0848259925842285,-0.1132270991802215
2024-12-07 20:21:10.581291000,2.999291015625,-0.1218091994524002,-0.0644526109099388,-0.0899743437767028
2024-12-07 20:21:10.591305000,3.009304931640625,-0.1245945990085601,-0.0244537983089685,-0.0772566869854927
2024-12-07 20:21:10.601319000,3.01931884765625,-0.1168698817491531,0.015048449859023,-0.0671754628419876
2024-12-07 20:21:10.611331800,3.029331787109375,-0.1000043451786041,0.0232869386672973,-0.0492286868393421
2024-12-07 20:21:10.621346000,3.039345947265625,-0.0880017951130867,-0.004392344970256,-0.0314214937388896
2024-12-07 20:21:10.631359700,3.04935986328125,-0.0835620388388633,-0.0414702072739601,-0.0365004055202007
2024-12-07 20:21:10.641373000,3.059373046875,-0.0870845988392829,-0.0763344392180442,-0.0546317398548126
2024-12-07 20:21:10.651387000,3.069386962890625,-0.095953993499279,-0.110907070338726,-0.0796582698822021
2024-12-07 20:21:10.661401000,3.079401123046875,-0.1158354207873344,-0.1216014400124549,-0.1031328961253166
2024-12-07 20:21:10.671414800,3.089414794921875,-0.1418699473142624,-0.1035811603069305,-0.1321991682052612
2024-12-07 20:21:10.681428000,3.099427978515625,-0.1651379019021988,-0.0781664252281189,-0.1559272408485412
2024-12-07 20:21:10.691442000,3.10944189453125,-0.1756536662578582,-0.0501289255917072,-0.168119728565216
2024-12-07 20:21:10.701456000,3.119455810546875,-0.1785802990198135,-0.0150770153850317,-0.1636589020490646
2024-12-07 20:21:10.711469800,3.1294697265625,-0.1763544231653213,0.0193762984126806,-0.149207517504692
2024-12-07 20:21:10.721483000,3.13948291015625,-0.1612873375415802,0.0391887165606021,-0.1307841837406158
2024-12-07 20:21:10.731496700,3.14949658203125,-0.1419117748737335,0.0559376031160354,-0.1156481057405471
2024-12-07 20:21:10.741511000,3.159510986328125,-0.1218838617205619,0.0749464258551597,-0.0924483612179756
2024-12-07 20:21:10.751524900,3.16952490234375,-0.1054649427533149,0.0954037606716156,-0.0535145439207553
2024-12-07 20:21:10.761538000,3.1795380859375,-0.0871450528502464,0.1300236284732818,-0.0068821464665234
2024-12-07 20:21:10.771551700,3.1895517578125,-0.0756945237517356,0.1890595108270645,0.0164820328354835
2024-12-07 20:21:10.781566000,3.19956591796875,-0.0717217549681663,0.2465477138757705,0.0223522037267684
2024-12-07 20:21:10.791580000,3.209579833984375,-0.077002003788948,0.2759522199630737,0.0326575711369514
2024-12-07 20:21:10.801592800,3.2195927734375,-0.0916145071387291,0.2727923095226288,0.050870381295681
2024-12-07 20:21:10.811606800,3.229606689453125,-0.1095492988824844,0.2433910071849823,0.0637558177113533
2024-12-07 20:21:10.821621000,3.23962109375,-0.1296522617340088,0.2134101241827011,0.055677406489849
2024-12-07 20:21:10.831635000,3.249635009765625,-0.1511532962322235,0.2004589140415191,0.0261373557150363
2024-12-07 20:21:10.841647900,3.25964794921875,-0.1686499118804931,0.197856917977333,-0.0082846377044916
2024-12-07 20:21:10.851661800,3.269661865234375,-0.1832861006259918,0.1914972960948944,-0.0479670688509941
2024-12-07 20:21:10.861676000,3.279676025390625,-0.2010596394538879,0.1868656724691391,-0.0838925540447235
2024-12-07 20:21:10.871690000,3.28968994140625,-0.2181257009506225,0.1906502842903137,-0.1086311861872673
2024-12-07 20:21:10.881703000,3.299702880859375,-0.2334277480840683,0.20005464553833,-0.1276051998138427
2024-12-07 20:21:10.891716900,3.309716796875,-0.2484540939331054,0.2165249735116958,-0.139114573597908
2024-12-07 20:21:10.901731000,3.31973095703125,-0.2668706178665161,0.2464047819375991,-0.1454514414072036
2024-12-07 20:21:10.911744800,3.329744873046875,-0.2834501266479492,0.2855702936649322,-0.149868831038475
2024-12-07 20:21:10.921758000,3.339758056640625,-0.3034655451774597,0.3176941275596618,-0.1457224190235138
2024-12-07 20:21:10.931772000,3.34977197265625,-0.329070508480072,0.3336967825889587,-0.1429719030857086
2024-12-07 20:21:10.941785900,3.359785888671875,-0.3478010892868042,0.3432193100452423,-0.1450355052947998
2024-12-07 20:21:10.951799800,3.3697998046875,-0.3602755963802337,0.3538394570350647,-0.1288346946239471
2024-12-07 20:21:10.961813000,3.37981298828125,-0.3674117922782898,0.3657779693603515,-0.1007796972990036
2024-12-07 20:21:10.971827000,3.389826904296875,-0.3708355724811554,0.3898942470550537,-0.0739520788192749
2024-12-07 20:21:10.981841000,3.3998408203125,-0.3781488835811615,0.4222351908683777,-0.060431845486164
2024-12-07 20:21:10.991854000,3.40985400390625,-0.3866526186466217,0.4491658806800842,-0.0610861852765083
2024-12-07 20:21:11.001868000,3.419867919921875,-0.3871464133262634,0.4517611861228943,-0.0529271364212036
2024-12-07 20:21:11.011881700,3.4298818359375,-0.3684121370315552,0.4205127358436584,-0.0342224240303039
2024-12-07 20:21:11.021896000,3.43989599609375,-0.3417339324951172,0.3768177032470703,-0.0151683054864406
2024-12-07 20:21:11.031908900,3.449908935546875,-0.3101546764373779,0.3360218107700348,0.0039569195359945
2024-12-07 20:21:11.041923000,3.459923095703125,-0.2653549909591675,0.2847650945186615,0.0347676873207092
2024-12-07 20:21:11.051936800,3.469936767578125,-0.2161983698606491,0.2005314528942108,0.0816292092204094
2024-12-07 20:21:11.061951000,3.479950927734375,-0.1704664379358291,0.1192894726991653,0.1222778558731079
2024-12-07 20:21:11.071964000,3.4899638671875,-0.1336005628108978,0.0624919645488262,0.1358463913202285
2024-12-07 20:21:11.081977900,3.499977783203125,-0.1138557568192482,0.0420514345169067,0.1244814693927764
2024-12-07 20:21:11.091991800,3.50999169921875,-0.097081571817398,0.04339100420475,0.09347615391016
2024-12-07 20:21:11.102006000,3.520006103515625,-0.0923555269837379,0.0532282292842865,0.0383198596537113
2024-12-07 20:21:11.112019000,3.53001904296875,-0.1028489097952842,0.0855542048811912,-0.025282023474574
2024-12-07 20:21:11.122033000,3.540032958984375,-0.119874283671379,0.1388577073812484,-0.0349166169762611
2024-12-07 20:21:11.132047600,3.550047607421875,-0.1359357982873916,0.2155841737985611,0.0389251187443733
2024-12-07 20:21:11.142061800,3.560061767578125,-0.1644859164953231,0.2508035600185394,0.1821412444114685
2024-12-07 20:21:11.152074500,3.570074462890625,-0.1971631646156311,0.2035710662603378,0.3483001291751861
2024-12-07 20:21:11.162088700,3.580088623046875,-0.2239297926425933,0.1265731900930404,0.500228762626648
2024-12-07 20:21:11.172102700,3.5901025390625,-0.2402794808149337,0.0672454088926315,0.6097608804702759
2024-12-07 20:21:11.182116900,3.600116943359375,-0.2468329817056656,0.0240201782435178,0.672069251537323
2024-12-07 20:21:11.192129500,3.610129638671875,-0.2335350215435028,-0.0275071952491998,0.6949639320373535
2024-12-07 20:21:11.202143700,3.620143798828125,-0.1947483569383621,-0.0924844518303871,0.6841182112693787
2024-12-07 20:21:11.212157700,3.63015771484375,-0.1372634917497635,-0.1429212689399719,0.6559209227561951
2024-12-07 20:21:11.222172000,3.640171875,-0.0655060708522796,-0.1475429534912109,0.6333174109458923
2024-12-07 20:21:11.232184600,3.6501845703125,0.0049947276711463,-0.1151522621512413,0.6156319379806519
2024-12-07 20:21:11.242198800,3.66019873046875,0.0687306970357894,-0.0595577768981456,0.6088097095489502
2024-12-07 20:21:11.252212700,3.670212646484375,0.1172151416540145,0.010515316389501,0.6232288479804993
2024-12-07 20:21:11.262225700,3.6802255859375,0.1648384928703308,0.0818632766604423,0.6637788414955139
2024-12-07 20:21:11.272239600,3.690239501953125,0.2276195883750915,0.145724818110466,0.7312803864479065
2024-12-07 20:21:11.282253800,3.70025390625,0.2982338964939117,0.2080575972795486,0.7995794415473938
2024-12-07 20:21:11.292267500,3.710267578125,0.3724977374076843,0.2827150523662567,0.8499917387962341
2024-12-07 20:21:11.302280700,3.72028076171875,0.4336311519145965,0.3749549686908722,0.872036874294281
2024-12-07 20:21:11.312294700,3.730294677734375,0.4775300920009613,0.4797035455703735,0.8719064593315125
2024-12-07 20:21:11.322308900,3.740308837890625,0.510775625705719,0.5735729336738586,0.8572527766227722
2024-12-07 20:21:11.332322600,3.750322509765625,0.5426065325737,0.6469749808311462,0.8296376466751099
2024-12-07 20:21:11.342335700,3.760335693359375,0.5694652199745178,0.7040302753448486,0.7889208197593689
2024-12-07 20:21:11.352349700,3.770349609375,0.6091886162757874,0.7654446363449097,0.7380198240280151
2024-12-07 20:21:11.362363600,3.78036376953125,0.6691447496414185,0.855610728263855,0.666601300239563
2024-12-07 20:21:11.372377600,3.790377685546875,0.7436065077781677,0.9298365116119384,0.5767297744750977
2024-12-07 20:21:11.382390800,3.800390869140625,0.8103691339492798,0.8747749924659729,0.4742097854614258
2024-12-07 20:21:11.392404700,3.81040478515625,0.8271182775497437,0.6672596335411072,0.3842098712921142
2024-12-07 20:21:11.402418700,3.820418701171875,0.785321831703186,0.4016801714897156,0.3016779720783233
2024-12-07 20:21:11.412432600,3.8304326171875,0.7523217797279358,0.192948505282402,0.2195578068494796
2024-12-07 20:21:11.422445800,3.84044580078125,0.7264458537101746,0.0480645857751369,0.1571962833404541
2024-12-07 20:21:11.432459500,3.85045947265625,0.7152496576309204,-0.0392370298504829,0.1062785014510154
2024-12-07 20:21:11.442473700,3.8604736328125,0.7242995500564575,-0.0832712799310684,0.0777154266834259
2024-12-07 20:21:11.452487700,3.87048779296875,0.7540268301963806,-0.1119101122021675,0.0775524452328682
2024-12-07 20:21:11.462500600,3.88050048828125,0.8108867406845093,-0.1504252552986145,0.0963716655969619
2024-12-07 20:21:11.472514600,3.8905146484375,0.8710214495658875,-0.2185635566711425,0.1102019920945167
2024-12-07 20:21:11.482528800,3.90052880859375,0.911539614200592,-0.326496422290802,0.101038172841072
2024-12-07 20:21:11.492542700,3.910542724609375,0.9227352738380432,-0.440847247838974,0.0708467215299606
2024-12-07 20:21:11.502555600,3.9205556640625,0.900816023349762,-0.5228145718574524,0.0300014484673738
2024-12-07 20:21:11.512569600,3.930569580078125,0.8552546501159668,-0.5670201182365417,-0.00855553150177
2024-12-07 20:21:11.522583800,3.940583740234375,0.8045875430107117,-0.6119145750999451,-0.0477889701724052
2024-12-07 20:21:11.532597800,3.95059765625,0.7513893246650696,-0.6655980348587036,-0.0870511531829834
2024-12-07 20:21:11.542610700,3.960610595703125,0.6986290812492371,-0.7562144994735718,-0.1201862394809722
2024-12-07 20:21:11.552624600,3.970624755859375,0.6412947177886963,-0.8658419251441956,-0.130031406879425
2024-12-07 20:21:11.562638800,3.980638916015625,0.5764098167419434,-1.012290596961975,-0.1240745261311531
2024-12-07 20:21:11.572652500,3.990652587890625,0.5094318389892578,-1.1780099868774414,-0.1179439201951026
2024-12-07 20:21:11.582665700,4.000665771484375,0.4418592751026153,-1.3271793127059937,-0.1060245558619499
2024-12-07 20:21:11.592679700,4.0106796875,0.3760128915309906,-1.42889404296875,-0.0999118015170097
2024-12-07 20:21:11.602694000,4.02069384765625,0.3131623864173889,-1.463451862335205,-0.1101927757263183
2024-12-07 20:21:11.612706600,4.03070654296875,0.2552357017993927,-1.4088006019592283,-0.1342246234416961
2024-12-07 20:21:11.622720800,4.040720703125,0.2068439573049545,-1.2749613523483276,-0.1723949015140533
2024-12-07 20:21:11.632734700,4.050734619140625,0.1684750020503997,-1.1014015674591064,-0.2144038826227188
2024-12-07 20:21:11.642748700,4.060748779296875,0.1329102963209152,-0.9464641213417052,-0.2406937032938003
2024-12-07 20:21:11.652761600,4.07076171875,0.0921703279018402,-0.817764163017273,-0.2912650108337402
2024-12-07 20:21:11.662775800,4.08077587890625,0.053432747721672,-0.6781142354011536,-0.4000196754932403
2024-12-07 20:21:11.672789500,4.09078955078125,0.0108999330550432,-0.6062570810317993,-0.4645059704780578
2024-12-07 20:21:11.682803700,4.1008037109375,-0.033368282020092,-0.6776421666145325,-0.4410072565078735
2024-12-07 20:21:11.692816600,4.110816650390625,-0.0729910582304,-0.8012738227844238,-0.3569086194038391
2024-12-07 20:21:11.702830800,4.120830810546875,-0.1030661016702652,-0.8471023440361023,-0.2669850885868072
2024-12-07 20:21:11.712844500,4.130844482421875,-0.1072307527065277,-0.7529335021972656,-0.2286824434995651
2024-12-07 20:21:11.722858800,4.140858642578125,-0.0760085582733154,-0.6090640425682068,-0.2456804364919662
2024-12-07 20:21:11.732871700,4.15087158203125,-0.0141174923628568,-0.5608237981796265,-0.2294676452875137
2024-12-07 20:21:11.742885600,4.1608857421875,0.0585866309702396,-0.6789498925209045,-0.1919406950473785
2024-12-07 20:21:11.752899600,4.170899658203125,0.1291153877973556,-0.7936221361160278,-0.167570099234581
2024-12-07 20:21:11.762913800,4.180913818359375,0.2088751941919326,-0.8181565403938293,-0.1856521219015121
2024-12-07 20:21:11.772926500,4.190926513671875,0.2742150723934173,-0.806226372718811,-0.2514649629592895
2024-12-07 20:21:11.782940700,4.200940673828125,0.3041650056838989,-0.7949076294898987,-0.2850556969642639
2024-12-07 20:21:11.792954600,4.21095458984375,0.2981103062629699,-0.811765193939209,-0.2489608079195022
2024-12-07 20:21:11.802968800,4.22096875,0.266938179731369,-0.837145209312439,-0.1920815259218216
2024-12-07 20:21:11.812981500,4.2309814453125,0.2379478216171264,-0.7846097946166992,-0.1817623078823089
2024-12-07 20:21:11.822995700,4.24099560546875,0.2249255031347274,-0.6680785417556763,-0.2207860499620437
2024-12-07 20:21:11.833009700,4.251009765625,0.2083403915166854,-0.5713277459144592,-0.2709397673606872
2024-12-07 20:21:11.843024000,4.26102392578125,0.1497337520122528,-0.5994564890861511,-0.2884125709533691
2024-12-07 20:21:11.853036500,4.27103662109375,0.0337672084569931,-0.8048378825187683,-0.2557976245880127
2024-12-07 20:21:11.863050800,4.28105078125,-0.0848095491528511,-1.0438176393508911,-0.2485933899879455
2024-12-07 20:21:11.873064700,4.291064697265625,-0.1715162098407745,-1.1064234972000122,-0.2688722908496856
2024-12-07 20:21:11.883077600,4.30107763671875,-0.1854956299066543,-1.026466965675354,-0.2479595988988876
2024-12-07 20:21:11.893091600,4.311091552734375,-0.1235768795013427,-0.7821747660636902,-0.1832703500986099
2024-12-07 20:21:11.903105800,4.321105712890625,-0.0393104627728462,-0.3509458005428314,-0.0711364075541496
2024-12-07 20:21:11.913119700,4.33111962890625,0.0130470171570777,-0.048709250986576,-0.0146480966359376
2024-12-07 20:21:11.923132700,4.341132568359375,-0.1091123521327972,0.0559190288186073,-0.0758393481373786
2024-12-07 20:21:11.933146600,4.351146728515625,-0.269213855266571,0.1664575338363647,-0.1801082193851471
2024-12-07 20:21:11.943160800,4.361160888671875,-0.330227792263031,0.2856386303901672,-0.2602927386760711
2024-12-07 20:21:11.953174500,4.371174560546875,-0.351966381072998,0.4311234056949615,-0.2934917211532593
2024-12-07 20:21:11.963187700,4.381187744140625,-0.4050370156764984,0.5964481234550476,-0.3111313581466675
2024-12-07 20:21:11.973201700,4.39120166015625,-0.4582570791244507,0.7537226676940918,-0.3631934821605682
2024-12-07 20:21:11.983215600,4.401215576171875,-0.4833067655563354,0.9147270917892456,-0.4265690743923187
2024-12-07 20:21:11.993229600,4.4112294921875,-0.465440422296524,1.0783286094665527,-0.4684909582138061
2024-12-07 20:21:12.003242800,4.42124267578125,-0.3985832929611206,1.2041146755218506,-0.4674127697944641
2024-12-07 20:21:12.013256700,4.431256591796875,-0.3137829005718231,1.2678706645965576,-0.4403635561466217
2024-12-07 20:21:12.023270700,4.441270751953125,-0.2436486929655075,1.2513675689697266,-0.4005088806152344
2024-12-07 20:21:12.033284600,4.45128466796875,-0.1942585110664367,1.1504422426223757,-0.3617974519729614
2024-12-07 20:21:12.043297800,4.4612978515625,-0.1645120531320572,0.9808300137519836,-0.3211937546730041
2024-12-07 20:21:12.053311500,4.4713115234375,-0.1431183516979217,0.794536292552948,-0.2660444974899292
2024-12-07 20:21:12.063325700,4.48132568359375,-0.130390390753746,0.643813967704773,-0.2011521309614181
2024-12-07 20:21:12.073339600,4.491339599609375,-0.1296897232532501,0.5854036808013916,-0.143213465809822
2024-12-07 20:21:12.083352600,4.5013525390625,-0.1479264199733734,0.610802173614502,-0.0983157008886337
2024-12-07 20:21:12.093366500,4.511366455078125,-0.1757609844207763,0.6848002672195435,-0.0769161358475685
2024-12-07 20:21:12.103380700,4.521380615234375,-0.2066175639629364,0.7509815692901611,-0.0899698585271835
2024-12-07 20:21:12.113394700,4.531394775390625,-0.2295985221862793,0.7717603445053101,-0.1139630824327468
2024-12-07 20:21:12.123407600,4.54140771484375,-0.2430700212717056,0.7545032501220703,-0.1379542797803878
2024-12-07 20:21:12.133421600,4.551421630859375,-0.2573943734169006,0.6613770127296448,-0.1635645627975464
2024-12-07 20:21:12.143435800,4.561435791015625,-0.2873567938804626,0.4669960439205169,-0.1877308338880539
2024-12-07 20:21:12.153448700,4.57144873046875,-0.3180790245532989,0.2224469929933548,-0.2187910228967666
2024-12-07 20:21:12.163462700,4.581462646484375,-0.33151575922966,0.0119260335341095,-0.2658931314945221
2024-12-07 20:21:12.173476600,4.5914765625,-0.3294923007488251,-0.0869267806410789,-0.3175283670425415
2024-12-07 20:21:12.183490800,4.60149072265625,-0.3060610592365265,-0.0744267776608467,-0.374409407377243
2024-12-07 20:21:12.193503700,4.611503662109375,-0.256525456905365,-0.000387972802855,-0.4231636226177215
2024-12-07 20:21:12.203517700,4.621517578125,-0.1942166090011596,0.0913859456777572,-0.4367038011550903
2024-12-07 20:21:12.213531600,4.63153173828125,-0.1467763781547546,0.2266798615455627,-0.4299840927124023
2024-12-07 20:21:12.223545900,4.6415458984375,-0.1249850168824195,0.4045539200305938,-0.3975318074226379
2024-12-07 20:21:12.233558500,4.65155859375,-0.1097413524985313,0.5662594437599182,-0.327400654554367
2024-12-07 20:21:12.243572700,4.66157275390625,-0.087606094777584,0.65064537525177,-0.2430290728807449
2024-12-07 20:21:12.253586700,4.671586669921875,-0.0683948472142219,0.660595715045929,-0.1919030398130417
2024-12-07 20:21:12.263600600,4.6816005859375,-0.0616415999829769,0.629574716091156,-0.1543412804603576
2024-12-07 20:21:12.273613600,4.691613525390625,-0.064259223639965,0.633392333984375,-0.1207188665866851
2024-12-07 20:21:12.283627800,4.701627685546875,-0.0644354298710823,0.6632822155952454,-0.1096319705247879
2024-12-07 20:21:12.293641500,4.711641357421875,-0.066701516509056,0.6630403995513916,-0.1167673766613006
2024-12-07 20:21:12.303655700,4.72165576171875,-0.0854002833366394,0.6082020998001099,-0.1267377734184265
2024-12-07 20:21:12.313668600,4.731668701171875,-0.1044810339808464,0.5100443959236145,-0.1324324160814285
2024-12-07 20:21:12.323682800,4.741682861328125,-0.1185630708932876,0.3853866159915924,-0.1355984658002853
2024-12-07 20:21:12.333696500,4.751696533203125,-0.1244454607367515,0.268145740032196,-0.1494548916816711
2024-12-07 20:21:12.343710700,4.761710693359375,-0.1239717304706573,0.2083081901073455,-0.1970903277397155
2024-12-07 20:21:12.353723600,4.7717236328125,-0.1174954548478126,0.2027003765106201,-0.258890300989151
2024-12-07 20:21:12.363737600,4.781737548828125,-0.1177858784794807,0.2377194911241531,-0.3213698863983154
2024-12-07 20:21:12.373751600,4.79175146484375,-0.1137847453355789,0.2731496393680572,-0.359691172838211
2024-12-07 20:21:12.383765800,4.801765869140625,-0.0971989259123802,0.2873082458972931,-0.3513762950897217
2024-12-07 20:21:12.393778700,4.81177880859375,-0.0883955806493759,0.2798705697059631,-0.3145426511764526
2024-12-07 20:21:12.403792600,4.821792724609375,-0.0916793048381805,0.2516754269599914,-0.2629657983779907
2024-12-07 20:21:12.413806600,4.831806640625,-0.1002397760748863,0.2225598841905594,-0.2053357809782028
2024-12-07 20:21:12.423820800,4.84182080078125,-0.1196362376213073,0.197756290435791,-0.1422839909791946
2024-12-07 20:21:12.433833500,4.85183349609375,-0.1354226619005203,0.1714240163564682,-0.0857038050889968
2024-12-07 20:21:12.443847700,4.86184765625,-0.1526840627193451,0.1504713147878646,-0.0497696176171302
2024-12-07 20:21:12.453861600,4.871861572265625,-0.1681186854839325,0.1382306218147277,-0.0451160073280334
2024-12-07 20:21:12.463874600,4.88187451171875,-0.1888243108987808,0.1389038860797882,-0.0744620338082313
2024-12-07 20:21:12.473888500,4.891888427734375,-0.2169518321752548,0.1470145285129547,-0.1324084252119064
2024-12-07 20:21:12.483902700,4.90190283203125,-0.2581434249877929,0.1617054492235183,-0.1987352520227432
2024-12-07 20:21:12.493916700,4.911916748046875,-0.3100116848945617,0.1560723334550857,-0.2577559351921081
2024-12-07 20:21:12.503929600,4.9219296875,-0.3690168559551239,0.1290418654680252,-0.2871905565261841
2024-12-07 20:21:12.513943600,4.931943603515625,-0.4241064488887787,0.0997423008084297,-0.2926628291606903
2024-12-07 20:21:12.523957800,4.941957763671875,-0.4640401601791382,0.0986676886677742,-0.2682923376560211
2024-12-07 20:21:12.533971700,4.9519716796875,-0.4853185713291168,0.1407512128353119,-0.2327111810445785
2024-12-07 20:21:12.543984600,4.961984619140625,-0.4994654655456543,0.2226773351430893,-0.2130696028470993
2024-12-07 20:21:12.553998600,4.97199853515625,-0.5043981671333313,0.2887149453163147,-0.2204374969005584
2024-12-07 20:21:12.564012800,4.9820126953125,-0.5063151121139526,0.3317708969116211,-0.2478004544973373
2024-12-07 20:21:12.574026500,4.992026611328125,-0.5018516182899475,0.3661325871944427,-0.2781519889831543
2024-12-07 20:21:12.584039700,5.002039794921875,-0.5012972354888916,0.4071932435035705,-0.2927639484405517
2024-12-07 20:21:12.594053600,5.0120537109375,-0.501427948474884,0.4599318206310272,-0.2908369302749634
2024-12-07 20:21:12.604067600,5.022067626953125,-0.5007840991020203,0.5139775276184082,-0.2862820029258728
2024-12-07 20:21:12.614081500,5.03208154296875,-0.5002152323722839,0.5413516163825989,-0.2790682911872864
2024-12-07 20:21:12.624094700,5.0420947265625,-0.5032046437263489,0.5449226498603821,-0.2564088106155395
2024-12-07 20:21:12.634108700,5.052108642578125,-0.5164961814880371,0.5489048957824707,-0.2225978523492813
2024-12-07 20:21:12.644122600,5.06212255859375,-0.5271715521812439,0.5727047324180603,-0.1847956776618957
2024-12-07 20:21:12.654136600,5.072136474609375,-0.518263041973114,0.6152487397193909,-0.1441350579261779
2024-12-07 20:21:12.664149800,5.082149658203125,-0.5036579370498657,0.6756518483161926,-0.1258640587329864
2024-12-07 20:21:12.674163500,5.09216357421875,-0.4851742684841156,0.7407165765762329,-0.1297642588615417
2024-12-07 20:21:12.684177700,5.102177734375,-0.4593939781188965,0.7807990908622742,-0.137027233839035
2024-12-07 20:21:12.694191600,5.112191650390625,-0.4283287227153778,0.7854388356208801,-0.1295418888330459
2024-12-07 20:21:12.704204500,5.12220458984375,-0.3863978683948517,0.7514284253120422,-0.0968159288167953
2024-12-07 20:21:12.714218500,5.132218505859375,-0.3376713693141937,0.68861985206604,-0.0658755898475647
2024-12-07 20:21:12.724232700,5.142232666015625,-0.2949841022491455,0.6204041838645935,-0.0596129819750785
2024-12-07 20:21:12.734246000,5.152245849609375,-0.25960773229599,0.5400289297103882,-0.082067422568798
2024-12-07 20:21:12.744259600,5.162259521484375,-0.2361946702003479,0.4545248746871948,-0.1130803748965263
2024-12-07 20:21:12.754273500,5.1722734375,-0.2013413608074188,0.3414044380187988,-0.1413700729608535
2024-12-07 20:21:12.764287700,5.182287841796875,-0.1586910933256149,0.2240698486566543,-0.1713141202926635
2024-12-07 20:21:12.774300700,5.19230078125,-0.1120924353599548,0.1122857853770256,-0.2146852910518646
2024-12-07 20:21:12.784314600,5.202314697265625,-0.0654540956020355,0.0134753212332725,-0.241717979311943
2024-12-07 20:21:12.794328600,5.21232861328125,-0.0332926958799362,-0.044926468282938,-0.2231847792863845
2024-12-07 20:21:12.804342800,5.2223427734375,-0.018527552485466,-0.0438396893441677,-0.1604355126619339
2024-12-07 20:21:12.814355700,5.232355712890625,-0.0192956086248159,-0.0009366972371935,-0.0956762135028839
2024-12-07 20:21:12.824369700,5.24236962890625,-0.0230776518583297,0.0443233177065849,-0.0535814315080642
2024-12-07 20:21:12.834383600,5.252383544921875,-0.0233122780919075,0.0733435153961181,-0.0142787676304578
2024-12-07 20:21:12.844397800,5.262397705078125,-0.02530356682837,0.0904392600059509,0.0682417675852775
2024-12-07 20:21:12.854410800,5.27241064453125,-0.0193047951906919,0.1079135909676551,0.2151345461606979
2024-12-07 20:21:12.864424700,5.2824248046875,0.0135641600936651,0.1307993680238723,0.40061816573143
2024-12-07 20:21:12.874438700,5.292438720703125,0.0759314000606536,0.1499280482530594,0.5655379295349121
2024-12-07 20:21:12.884452600,5.30245263671875,0.1648332625627517,0.1549194306135177,0.6784446835517883
2024-12-07 20:21:12.894465800,5.3124658203125,0.2643164396286011,0.1392352730035781,0.7302449941635132
2024-12-07 20:21:12.904479700,5.322479736328125,0.3561890423297882,0.0947140306234359,0.7463491559028625
2024-12-07 20:21:12.914493400,5.332493408203125,0.4444624483585357,0.0427775904536247,0.7328187227249146
2024-12-07 20:21:12.924507600,5.342507568359375,0.5358706116676331,0.0068919449113309,0.6922856569290161
2024-12-07 20:21:12.934520800,5.352520751953125,0.6199202537536621,0.0037371641956269,0.6625546216964722
2024-12-07 20:21:12.944534800,5.36253466796875,0.682614803314209,0.0297264754772186,0.6933208107948303
2024-12-07 20:21:12.954548500,5.372548583984375,0.7209405899047852,0.0550896227359771,0.8034408688545227
2024-12-07 20:21:12.964561700,5.382561767578125,0.7550790905952454,0.0430566780269146,0.9599186182022096
2024-12-07 20:21:12.974575900,5.392575927734375,0.7863062620162964,-0.0156947840005159,1.1223291158676147
2024-12-07 20:21:12.984589600,5.402589599609375,0.8072240352630615,-0.0817315503954887,1.2765246629714966
2024-12-07 20:21:12.994603500,5.412603515625,0.8210588693618774,-0.1018679812550544,1.4174927473068235
2024-12-07 20:21:13.004616700,5.42261669921875,0.8460745811462402,-0.0526780188083648,1.5305535793304443
2024-12-07 20:21:13.014631000,5.432630859375,0.8654528260231018,0.0012469968060031,1.5830894708633425
2024-12-07 20:21:13.024644600,5.44264453125,0.8675969839096069,0.0305478796362876,1.5489081144332886
2024-12-07 20:21:13.034658600,5.452658447265625,0.8690060377120972,0.0592540949583053,1.4315102100372314
2024-12-07 20:21:13.044671700,5.462671630859375,0.8792036175727844,0.1184653714299202,1.2408181428909302
2024-12-07 20:21:13.054685700,5.472685791015625,0.9122976064682008,0.2490630745887756,1.0489200353622437
2024-12-07 20:21:13.064699600,5.48269970703125,0.9616833329200744,0.4314751029014587,0.9103096127510072
2024-12-07 20:21:13.074713600,5.492713623046875,1.010368585586548,0.6367438435554504,0.8264895081520081
2024-12-07 20:21:13.084726500,5.5027265625,1.0904284715652466,0.8199483752250671,0.793785810470581
2024-12-07 20:21:13.094740700,5.51274072265625,1.1903992891311646,0.8937304615974426,0.7828660607337952
2024-12-07 20:21:13.104754700,5.522754638671875,1.267755389213562,0.8549391627311707,0.7744703888893127
2024-12-07 20:21:13.114768600,5.5327685546875,1.3241305351257324,0.7097359299659729,0.7407925724983215
2024-12-07 20:21:13.124781600,5.542781494140625,1.334543228149414,0.4585019648075104,0.6555249691009521
2024-12-07 20:21:13.134795300,5.552795166015625,1.2978696823120115,0.2037082910537719,0.5312075614929199
2024-12-07 20:21:13.144809200,5.562809326171875,1.2253177165985107,-0.0305691435933113,0.410721868276596
2024-12-07 20:21:13.154823400,5.572823486328125,1.1400738954544067,-0.3166461884975433,0.3508191406726837
2024-12-07 20:21:13.164836000,5.582836181640625,1.0681850910186768,-0.617454469203949,0.3519067764282226
2024-12-07 20:21:13.174850300,5.592850341796875,1.023025631904602,-0.8769629597663879,0.3762970566749573
2024-12-07 20:21:13.184864300,5.6028642578125,0.997668445110321,-1.0864875316619873,0.3835903704166412
2024-12-07 20:21:13.194878200,5.612878173828125,0.9684117436408995,-1.2201117277145386,0.3715606033802032
2024-12-07 20:21:13.204891100,5.62289111328125,0.9170446991920472,-1.2821208238601685,0.3418270349502563
2024-12-07 20:21:13.214905300,5.6329052734375,0.8388130068778992,-1.2884482145309448,0.2998625338077545
2024-12-07 20:21:13.224919300,5.642919189453125,0.7326562404632568,-1.2478957176208496,0.2538553774356842
2024-12-07 20:21:13.234932200,5.65293212890625,0.6297492980957031,-1.1456236839294434,0.1729892641305923
2024-12-07 20:21:13.244946200,5.6629462890625,0.5340676307678223,-0.9618629217147828,0.0360563173890113
2024-12-07 20:21:13.254960400,5.67296044921875,0.4332546889781952,-0.7255297303199768,-0.1307763457298278
2024-12-07 20:21:13.264974000,5.68297412109375,0.3287737369537353,-0.5233973860740662,-0.2724880576133728
2024-12-07 20:21:13.274987300,5.6929873046875,0.2298029363155365,-0.4459369778633117,-0.3407544791698456
2024-12-07 20:21:13.285001200,5.703001220703125,0.1335914134979248,-0.5152782201766968,-0.3465225994586944
2024-12-07 20:21:13.295015400,5.713015380859375,0.0403898246586322,-0.6757345199584961,-0.3016483187675476
2024-12-07 20:21:13.305029000,5.723029052734375,-0.0355167016386985,-0.8587427139282227,-0.240000769495964
2024-12-07 20:21:13.315042300,5.733042236328125,-0.0820565074682235,-0.9900900721549988,-0.2072199136018753
2024-12-07 20:21:13.325056300,5.74305615234375,-0.0979210063815116,-1.0490494966506958,-0.2112771570682525
2024-12-07 20:21:13.335070200,5.7530703125,-0.0919840186834335,-1.0001015663146973,-0.213448941707611
2024-12-07 20:21:13.345084200,5.763084228515625,-0.0808663368225097,-0.9013453125953674,-0.1988546699285507
2024-12-07 20:21:13.355097300,5.773097412109375,-0.0549433939158916,-0.7882182002067566,-0.1585991233587265
2024-12-07 20:21:13.365111000,5.783111083984375,-0.015626972541213,-0.6903373599052429,-0.1012132242321968
2024-12-07 20:21:13.375125200,5.793125244140625,0.0359227731823921,-0.6037436127662659,-0.0517090484499931
2024-12-07 20:21:13.385139200,5.80313916015625,0.1092802956700325,-0.5468602776527405,-0.059378232806921
2024-12-07 20:21:13.395152400,5.81315234375,0.1964154690504074,-0.4960082769393921,-0.1243865266442298
2024-12-07 20:21:13.405166000,5.823166015625,0.2718114554882049,-0.3909289538860321,-0.1936847418546676
2024-12-07 20:21:13.415180300,5.83318017578125,0.2870556712150574,-0.330159068107605,-0.2342044711112976
2024-12-07 20:21:13.425194200,5.8431943359375,0.2244201600551605,-0.3574092984199524,-0.2401218116283416
2024-12-07 20:21:13.435207200,5.853207275390625,0.1091044843196868,-0.4611774981021881,-0.2343691140413284
2024-12-07 20:21:13.445221000,5.86322119140625,-0.0284416154026985,-0.54075026512146,-0.2378464192152023
2024-12-07 20:21:13.455235300,5.8732353515625,-0.1283956468105316,-0.5749146342277527,-0.2701843976974487
2024-12-07 20:21:13.465248000,5.883248046875,-0.1915577948093414,-0.5931799411773682,-0.343325138092041
2024-12-07 20:21:13.475262200,5.89326220703125,-0.229661226272583,-0.5838071703910828,-0.4320632517337799
2024-12-07 20:21:13.485276200,5.903276123046875,-0.2580532729625702,-0.5856431722640991,-0.4907304048538208
2024-12-07 20:21:13.495290400,5.913290283203125,-0.2577816247940063,-0.6297211647033691,-0.511407732963562
2024-12-07 20:21:13.505303000,5.923302978515625,-0.2257219403982162,-0.703697681427002,-0.5193744897842407
2024-12-07 20:21:13.515317200,5.933317138671875,-0.1637350022792816,-0.716704785823822,-0.4915143847465515
2024-12-07 20:21:13.525331200,5.943331298828125,-0.0928855463862419,-0.639079749584198,-0.4282392859458923
2024-12-07 20:21:13.535345400,5.953345458984375,-0.0226518586277961,-0.5455482006072998,-0.3410580456256866
2024-12-07 20:21:13.545358000,5.963358154296875,0.0404517874121665,-0.4645765721797943,-0.2695285379886627
2024-12-07 20:21:13.555372300,5.973372314453125,0.0913637056946754,-0.3922139704227447,-0.2279517650604248
2024-12-07 20:21:13.565386200,5.98338623046875,0.1085884124040603,-0.3711932301521301,-0.2341052144765854
2024-12-07 20:21:13.575400200,5.993400146484375,0.0809221640229225,-0.3982354998588562,-0.2848911881446838
2024-12-07 20:21:13.585413000,6.0034130859375,0.0256828740239143,-0.4421909153461456,-0.3275968730449676
2024-12-07 20:21:13.595427300,6.01342724609375,-0.0244237016886472,-0.4307678043842315,-0.3630725741386413
2024-12-07 20:21:13.605441300,6.023441162109375,-0.0457936599850654,-0.3453538119792938,-0.4119889736175537
2024-12-07 20:21:13.615455200,6.033455322265625,-0.0415994487702846,-0.2674062848091125,-0.4632260501384735
2024-12-07 20:21:13.625468200,6.04346826171875,-0.0495172925293445,-0.3194740116596222,-0.5173449516296387
2024-12-07 20:21:13.635482400,6.053482421875,-0.1079840660095214,-0.5364865064620972,-0.5667023658752441
2024-12-07 20:21:13.645496000,6.06349609375,-0.1998188197612762,-0.7191336750984192,-0.6174055933952332
2024-12-07 20:21:13.655510300,6.07351025390625,-0.2739689648151397,-0.7415556311607361,-0.5853887796401978
2024-12-07 20:21:13.665523200,6.083523193359375,-0.2636737525463104,-0.749297022819519,-0.4454371333122253
2024-12-07 20:21:13.675537200,6.093537109375,-0.1147646978497505,-0.7598189115524292,-0.2306915372610092
2024-12-07 20:21:13.685551000,6.103551025390625,0.1232471987605094,-0.6620733737945557,-0.0339228026568889
2024-12-07 20:21:13.695564300,6.113564208984375,0.3297625482082367,-0.4222064614295959,0.0324977673590183
2024-12-07 20:21:13.705578200,6.123578125,0.4240903258323669,-0.1370048820972442,-0.0719849541783332
2024-12-07 20:21:13.715592200,6.13359228515625,0.3110173046588897,0.0173761658370494,-0.2719012498855591
2024-12-07 20:21:13.725606100,6.143606201171875,0.0606593675911426,-0.0635903850197792,-0.382157951593399
2024-12-07 20:21:13.735619300,6.153619384765625,-0.1716516315937042,-0.199016124010086,-0.3043174743652344
2024-12-07 20:21:13.745633000,6.163633056640625,-0.3098022937774658,-0.283157080411911,-0.2058641016483307
2024-12-07 20:21:13.755647200,6.173647216796875,-0.3797536790370941,-0.2532415390014648,-0.2041389048099517
2024-12-07 20:21:13.765661200,6.1836611328125,-0.4534221291542053,-0.0899203941226005,-0.2655623257160187
2024-12-07 20:21:13.775674000,6.193674072265625,-0.483814924955368,0.1109599769115448,-0.3381795287132263
2024-12-07 20:21:13.785688000,6.20368798828125,-0.4358954429626465,0.2490359544754028,-0.3854013085365295
2024-12-07 20:21:13.795702300,6.213702392578125,-0.35747891664505,0.3276751041412353,-0.3977778255939483
2024-12-07 20:21:13.805716200,6.22371630859375,-0.3006804585456848,0.3635876774787903,-0.4225364029407501
2024-12-07 20:21:13.815729200,6.233729248046875,-0.2863034009933471,0.3392943143844604,-0.4545800983905792
2024-12-07 20:21:13.825743000,6.2437431640625,-0.3061392605304718,0.2524930536746979,-0.455079972743988
2024-12-07 20:21:13.835757300,6.25375732421875,-0.3000571429729461,0.1396525055170059,-0.420109748840332
2024-12-07 20:21:13.845771300,6.263771240234375,-0.2908562421798706,0.0426718108355999,-0.3784165680408478
2024-12-07 20:21:13.855784200,6.2737841796875,-0.307967334985733,-0.0178666375577449,-0.3297068178653717
2024-12-07 20:21:13.865798100,6.283798095703125,-0.328591376543045,-0.0404214784502983,-0.2898808419704437
2024-12-07 20:21:13.875812400,6.293812255859375,-0.3445530235767364,0.0047111101448535,-0.2664048075675964
2024-12-07 20:21:13.885825300,6.3038251953125,-0.3700757026672363,0.1091130971908569,-0.2520442306995392
2024-12-07 20:21:13.895839200,6.313839111328125,-0.3965232670307159,0.218774601817131,-0.2435562014579773
2024-12-07 20:21:13.905853200,6.323853271484375,-0.4169960916042328,0.3304530084133148,-0.2442329674959182
2024-12-07 20:21:13.915867400,6.333867431640625,-0.4129938781261444,0.4421028196811676,-0.2623201012611389
2024-12-07 20:21:13.925880300,6.34388037109375,-0.3816112577915191,0.5250920653343201,-0.2931777536869049
2024-12-07 20:21:13.935894300,6.353894287109375,-0.3415522575378418,0.5694126486778259,-0.3292995393276214
2024-12-07 20:21:13.945908200,6.363908203125,-0.3084996342658996,0.6061498522758484,-0.355077177286148
2024-12-07 20:21:13.955922200,6.373922119140625,-0.2794442772865295,0.6369078159332275,-0.357433021068573
2024-12-07 20:21:13.965935000,6.38393505859375,-0.2471753358840942,0.6458152532577515,-0.321683406829834
2024-12-07 20:21:13.975949300,6.39394921875,-0.2105579376220703,0.6148653626441956,-0.2281414568424224
2024-12-07 20:21:13.985963000,6.403962890625,-0.1815231293439865,0.575042724609375,-0.0895730555057525
2024-12-07 20:21:13.995977200,6.413977294921875,-0.1708254814147949,0.560168445110321,0.0294585321098566
2024-12-07 20:21:14.005990100,6.423990234375,-0.1832277774810791,0.5542476773262024,0.0856377258896827
2024-12-07 20:21:14.016004400,6.43400439453125,-0.1969667673110962,0.5330983996391296,0.0750324875116348
2024-12-07 20:21:14.026018000,6.44401806640625,-0.2092983126640319,0.4347203373908996,0.033521581441164
2024-12-07 20:21:14.036032300,6.4540322265625,-0.2216886729001999,0.2498159855604171,-0.0081675443798303
2024-12-07 20:21:14.046045200,6.464045166015625,-0.2268033474683761,0.0619454979896545,-0.0625899359583854
2024-12-07 20:21:14.056059100,6.47405908203125,-0.2070240527391433,-0.0524111725389957,-0.1533944010734558
2024-12-07 20:21:14.066073000,6.484072998046875,-0.1693224310874939,-0.0701401606202125,-0.2480949759483337
2024-12-07 20:21:14.076086300,6.494086181640625,-0.1271038651466369,-0.0225119180977344,-0.299144834280014
2024-12-07 20:21:14.086100200,6.504100341796875,-0.0960962027311325,0.0401963703334331,-0.2872612178325653
2024-12-07 20:21:14.096114200,6.5141142578125,-0.0719525143504142,0.0640990436077117,-0.243966206908226
2024-12-07 20:21:14.106128100,6.524128173828125,-0.0682432204484939,0.0394430048763752,-0.1916209906339645
2024-12-07 20:21:14.116141300,6.534141357421875,-0.0750920698046684,0.0091596683487296,-0.1566808521747589
2024-12-07 20:21:14.126155300,6.5441552734375,-0.0692723095417022,0.0053315423429012,-0.1438659280538559
2024-12-07 20:21:14.136169200,6.554169189453125,-0.0472836568951606,0.0346446894109249,-0.1554128527641296
2024-12-07 20:21:14.146183200,6.56418310546875,-0.0167142078280448,0.1232266798615455,-0.1890273839235305
2024-12-07 20:21:14.156196000,6.574196044921875,0.0044589880853891,0.2520576417446136,-0.2363173961639404
2024-12-07 20:21:14.166210000,6.5842099609375,0.0131975300610065,0.3792620003223419,-0.2547823488712311
2024-12-07 20:21:14.176224300,6.594224365234375,0.0054549216292798,0.4933715164661407,-0.2290058434009552
2024-12-07 20:21:14.186238200,6.60423828125,-0.0046730795875191,0.560575008392334,-0.184494212269783
2024-12-07 20:21:14.196251100,6.614251220703125,-0.0155006945133209,0.5941001772880554,-0.1539461612701416
2024-12-07 20:21:14.206265000,6.62426513671875,-0.0292689707130193,0.5666075944900513,-0.1398274600505828
2024-12-07 20:21:14.216279300,6.634279296875,-0.0365654975175857,0.4743503630161285,-0.1464893519878387
2024-12-07 20:21:14.226293000,6.64429296875,-0.0441504046320915,0.3431589305400848,-0.1765839755535125
2024-12-07 20:21:14.236306200,6.65430615234375,-0.0555268935859203,0.2310313433408737,-0.2189436852931976
2024-12-07 20:21:14.246320000,6.664320068359375,-0.0581509061157703,0.1449724733829498,-0.248698741197586
2024-12-07 20:21:14.256334000,6.674333984375,-0.0408198535442352,0.0966739133000373,-0.2626110911369324
2024-12-07 20:21:14.266348000,6.68434814453125,-0.0098867937922477,0.0962094813585281,-0.2758878469467163
2024-12-07 20:21:14.276361200,6.694361328125,0.0188915897160768,0.1289330720901489,-0.2849926650524139
2024-12-07 20:21:14.286375200,6.704375244140625,0.0210720971226692,0.1806114464998245,-0.2740668952465057
2024-12-07 20:21:14.296389000,6.71438916015625,-0.0060545951128005,0.2196334153413772,-0.2401837855577469
2024-12-07 20:21:14.306402300,6.72440234375,-0.0410825759172439,0.2351147979497909,-0.199144572019577
2024-12-07 20:21:14.316416300,6.734416259765625,-0.075663186609745,0.2185544669628143,-0.1593838334083557
2024-12-07 20:21:14.326430200,6.74443017578125,-0.1132920533418655,0.2074693143367767,-0.1274860948324203
2024-12-07 20:21:14.336444200,6.754444091796875,-0.1418448835611343,0.2141133695840835,-0.1246833801269531
2024-12-07 20:21:14.346457300,6.764457275390625,-0.1572986096143722,0.2349371016025543,-0.1404659450054168
2024-12-07 20:21:14.356471000,6.774470947265625,-0.1631575673818588,0.2459633946418762,-0.1554422378540039
2024-12-07 20:21:14.366485000,6.784485107421875,-0.1676194369792938,0.2353608608245849,-0.1647159904241562
2024-12-07 20:21:14.376499200,6.794499267578125,-0.1630859375,0.1820611506700515,-0.180629163980484
2024-12-07 20:21:14.386512400,6.804512451171875,-0.1561223864555359,0.1398992240428924,-0.2307410687208175
2024-12-07 20:21:14.396526000,6.814526123046875,-0.1577594429254531,0.1414289474487304,-0.2894086241722107
2024-12-07 20:21:14.406540000,6.8245400390625,-0.172970250248909,0.1877405047416687,-0.3089796006679535
2024-12-07 20:21:14.416554200,6.83455419921875,-0.1749670952558517,0.2261134535074234,-0.2561515569686889
2024-12-07 20:21:14.426567200,6.844567138671875,-0.1666799187660217,0.2481695711612701,-0.1676746904850006
2024-12-07 20:21:14.436581000,6.8545810546875,-0.1565061062574386,0.2812148630619049,-0.0897519364953041
2024-12-07 20:21:14.446595000,6.864594970703125,-0.1491995900869369,0.3359434902667999,-0.0379319563508033
2024-12-07 20:21:14.456609300,6.874609375,-0.1473225951194763,0.3777412474155426,-0.0069138528779149
2024-12-07 20:21:14.466622200,6.884622314453125,-0.1421258300542831,0.4095933139324188,0.0080012027174234
2024-12-07 20:21:14.476636200,6.89463623046875,-0.1434808522462844,0.440024197101593,0.005996108520776
2024-12-07 20:21:14.486650000,6.904650146484375,-0.1411463767290115,0.4759013056755066,-0.002763420343399
2024-12-07 20:21:14.496663000,6.9146630859375,-0.1338644921779632,0.5054301619529724,-0.0092980191111564
2024-12-07 20:21:14.506677200,6.92467724609375,-0.1199170723557472,0.5187779068946838,-0.0023096469230949
2024-12-07 20:21:14.516691200,6.934691162109375,-0.1040435656905174,0.5084807872772217,0.0029516941867768
2024-12-07 20:21:14.526705200,6.944705078125,-0.0960314944386482,0.4812775254249573,-0.0013611991889774
2024-12-07 20:21:14.536718000,6.954718017578125,-0.1006158590316772,0.4642146527767181,0.010359639301896
2024-12-07 20:21:14.546732300,6.964732177734375,-0.1187829598784446,0.4731117188930511,0.0367360897362232
2024-12-07 20:21:14.556746200,6.974746337890625,-0.1489371359348297,0.4804002642631531,0.0532895028591156
2024-12-07 20:21:14.566760000,6.984760009765625,-0.1848070323467254,0.4607555568218231,0.0529122278094291
2024-12-07 20:21:14.576773000,6.994773193359375,-0.2223269790410995,0.4244579970836639,0.0393836349248886
2024-12-07 20:21:14.586787300,7.004787353515625,-0.2534126341342926,0.3797172307968139,0.0284223668277263
2024-12-07 20:21:14.596801300,7.01480126953125,-0.2782841622829437,0.3301430344581604,0.0098337680101394
2024-12-07 20:21:14.606815000,7.02481494140625,-0.2988806962966919,0.2859634459018707,-0.0277997385710477
2024-12-07 20:21:14.616828200,7.034828125,-0.318897545337677,0.2477420270442962,-0.0846907123923301
2024-12-07 20:21:14.626842400,7.04484228515625,-0.3268121182918548,0.2177048772573471,-0.1479514092206955
2024-12-07 20:21:14.636856000,7.05485595703125,-0.3231220543384552,0.2292089313268661,-0.2150369733572006
2024-12-07 20:21:14.646870000,7.0648701171875,-0.3157671093940735,0.2756824791431427,-0.2684738636016845
2024-12-07 20:21:14.656883200,7.07488330078125,-0.3185093700885772,0.3363149464130401,-0.2743724882602691
2024-12-07 20:21:14.666897400,7.0848974609375,-0.3465696275234222,0.4023812115192413,-0.2379918247461319
2024-12-07 20:21:14.676911000,7.0949111328125,-0.395342469215393,0.4572311341762543,-0.1840308457612991
2024-12-07 20:21:14.686924300,7.10492431640625,-0.4470505118370056,0.4593165516853332,-0.1317287981510162
2024-12-07 20:21:14.696938200,7.114938232421875,-0.483116090297699,0.437407523393631,-0.1050524413585662
2024-12-07 20:21:14.706952200,7.1249521484375,-0.5017106533050537,0.4199206531047821,-0.1098014190793037
2024-12-07 20:21:14.716966100,7.134966064453125,-0.5041010975837708,0.4009507000446319,-0.1412834376096725
2024-12-07 20:21:14.726979300,7.144979248046875,-0.4929303824901581,0.3804744780063629,-0.1866264045238495
2024-12-07 20:21:14.736993000,7.154992919921875,-0.4708572924137115,0.3599976897239685,-0.2386190295219421
2024-12-07 20:21:14.747007200,7.16500732421875,-0.4476483166217804,0.3314223289489746,-0.2769312858581543
2024-12-07 20:21:14.757021200,7.175021240234375,-0.4138421416282654,0.2928269803524017,-0.2974711656570434
2024-12-07 20:21:14.767034400,7.185034423828125,-0.3624374866485595,0.2424152195453643,-0.2954867780208587
2024-12-07 20:21:14.777048000,7.195048095703125,-0.3006233870983124,0.2012041360139846,-0.285088449716568
2024-12-07 20:21:14.787062300,7.205062255859375,-0.2452965676784515,0.1954744160175323,-0.2858883440494537
2024-12-07 20:21:14.797076200,7.215076171875,-0.2143008261919021,0.2024710774421692,-0.300626277923584
2024-12-07 20:21:14.807089200,7.225089111328125,-0.2116864025592804,0.2013347595930099,-0.3015659153461456
2024-12-07 20:21:14.817103000,7.23510302734375,-0.2385366559028625,0.1979866325855255,-0.2869440913200378
2024-12-07 20:21:14.827117300,7.245117431640625,-0.2750331461429596,0.1995495855808258,-0.2766399979591369
2024-12-07 20:21:14.837131300,7.25513134765625,-0.3160165250301361,0.216454267501831,-0.2847650349140167
2024-12-07 20:21:14.847144200,7.265144287109375,-0.3358684778213501,0.2505731880664825,-0.2973160445690155
2024-12-07 20:21:14.857158100,7.275158203125,-0.3390411138534546,0.3049280345439911,-0.2865470051765442
2024-12-07 20:21:14.867172400,7.28517236328125,-0.3261004686355591,0.366746723651886,-0.2294128090143203
2024-12-07 20:21:14.877186000,7.29518603515625,-0.3012388050556183,0.4385031759738922,-0.137329488992691
2024-12-07 20:21:14.887199200,7.30519921875,-0.2775089144706726,0.501503050327301,-0.0225681215524673
2024-12-07 20:21:14.897213200,7.315213134765625,-0.2659161686897278,0.5556754469871521,0.0912716314196586
2024-12-07 20:21:14.907227400,7.325227294921875,-0.2420586496591568,0.5877181887626648,0.1864738017320633
2024-12-07 20:21:14.917240000,7.335239990234375,-0.1814126074314117,0.5888449549674988,0.2606393694877624
2024-12-07 20:21:14.927254300,7.345254150390625,-0.1129695102572441,0.5557669997215271,0.3185953497886657
2024-12-07 20:21:14.937268200,7.355268310546875,-0.0551746524870395,0.5054295063018799,0.3717818856239319
2024-12-07 20:21:14.947282200,7.3652822265625,-0.0100005120038986,0.4585436880588531,0.4006389677524566
2024-12-07 20:21:14.957295000,7.375295166015625,0.0164745040237903,0.3953476548194885,0.3943038582801819
2024-12-07 20:21:14.967309300,7.385309326171875,0.0451602116227149,0.3373593091964721,0.3652406632900238
2024-12-07 20:21:14.977323300,7.3953232421875,0.0703270807862281,0.2957492768764496,0.3332249522209167
2024-12-07 20:21:14.987337200,7.405337158203125,0.0875265747308731,0.244564801454544,0.3039403855800628
2024-12-07 20:21:14.997350100,7.41535009765625,0.0955248475074768,0.1879569292068481,0.2916011810302734
2024-12-07 20:21:15.007364400,7.4253642578125,0.0992247760295867,0.1373515427112579,0.2984018325805664
2024-12-07 20:21:15.017378000,7.4353779296875,0.1091357320547103,0.0927244052290916,0.3211351037025451
2024-12-07 20:21:15.027392300,7.445392333984375,0.12228624522686,0.0458908416330814,0.348466157913208
2024-12-07 20:21:15.037405200,7.4554052734375,0.1285161823034286,0.0126396771520376,0.366285115480423
2024-12-07 20:21:15.047419100,7.465419189453125,0.1295502781867981,-0.0037497952580451,0.3590754866600036
2024-12-07 20:21:15.057433000,7.47543310546875,0.1282027214765548,-0.0210278518497943,0.347049206495285
2024-12-07 20:21:15.067446300,7.4854462890625,0.1281973421573639,-0.046423640102148,0.3531668186187744
2024-12-07 20:21:15.077460200,7.495460205078125,0.1297789961099624,-0.0665654018521308,0.3808445334434509
2024-12-07 20:21:15.087474200,7.50547412109375,0.1419709622859954,-0.0760250985622406,0.4217101037502289
2024-12-07 20:21:15.097488100,7.515488037109375,0.1583715081214904,-0.0798169076442718,0.4559128284454345
2024-12-07 20:21:15.107501300,7.525501220703125,0.1785576939582824,-0.0814884081482887,0.4836656749248504
2024-12-07 20:21:15.117515000,7.535514892578125,0.212571308016777,-0.0889966562390327,0.5148739218711853
2024-12-07 20:21:15.127529200,7.545529296875,0.2640677690505981,-0.0888267904520034,0.5668444633483887
2024-12-07 20:21:15.137543700,7.555543701171875,0.3328622579574585,-0.0778945162892341,0.623749852180481
2024-12-07 20:21:15.147556600,7.565556640625,0.405350923538208,-0.0476826727390289,0.6794772148132324
2024-12-07 20:21:15.157570600,7.575570556640625,0.4804824292659759,0.0045230062678456,0.7346954345703125
2024-12-07 20:21:15.167584800,7.585584716796875,0.5475671887397766,0.0741016045212745,0.790627121925354
2024-12-07 20:21:15.177598500,7.595598388671875,0.5994282364845276,0.1465057730674743,0.8489381074905396
2024-12-07 20:21:15.187611600,7.605611572265625,0.6503573656082153,0.2274588048458099,0.9061236381530762
2024-12-07 20:21:15.197625600,7.61562548828125,0.688644289970398,0.324322760105133,0.9650841355323792
2024-12-07 20:21:15.207639800,7.625639892578125,0.7299612164497375,0.4267556667327881,1.0198545455932615
2024-12-07 20:21:15.217653500,7.635653564453125,0.7768328189849854,0.5193391442298889,1.061166286468506
2024-12-07 20:21:15.227666700,7.645666748046875,0.8262901902198792,0.6166631579399109,1.0820437669754028
2024-12-07 20:21:15.237680600,7.6556806640625,0.8766553401947021,0.7090977430343628,1.0715352296829224
2024-12-07 20:21:15.247694600,7.665694580078125,0.9396417140960692,0.7839136123657227,1.031718611717224
2024-12-07 20:21:15.257708500,7.67570849609375,1.0182936191558838,0.8186566233634949,0.9614058136940002
2024-12-07 20:21:15.267721700,7.6857216796875,1.093611240386963,0.8181082010269165,0.8867046236991882
2024-12-07 20:21:15.277735700,7.695735595703125,1.1412498950958252,0.830912172794342,0.8403752446174622
2024-12-07 20:21:15.287749600,7.70574951171875,1.1537367105484009,0.8359929323196411,0.8244829773902893
2024-12-07 20:21:15.297762600,7.715762451171875,1.163835883140564,0.7857611775398254,0.8098347783088684
2024-12-07 20:21:15.307776800,7.72577685546875,1.1726064682006836,0.6782986521720886,0.7544689774513245
2024-12-07 20:21:15.317790500,7.73579052734375,1.1707940101623535,0.4807259142398834,0.6364243626594543
2024-12-07 20:21:15.327804700,7.7458046875,1.1498063802719116,0.2433066219091415,0.4885145723819732
2024-12-07 20:21:15.337817600,7.755817626953125,1.116215705871582,0.0366700924932956,0.3543367981910705
2024-12-07 20:21:15.347831600,7.76583154296875,1.0800291299819946,-0.0714018791913986,0.2950522005558014
2024-12-07 20:21:15.357845500,7.775845458984375,1.067447066307068,-0.0984974130988121,0.3030898869037628
2024-12-07 20:21:15.367859700,7.785859619140625,1.062658429145813,-0.149998739361763,0.3085110783576965
2024-12-07 20:21:15.377872600,7.79587255859375,1.042797565460205,-0.2821924686431885,0.2875541150569916
2024-12-07 20:21:15.387886600,7.805886474609375,0.9957045316696168,-0.5114818215370178,0.2604363262653351
2024-12-07 20:21:15.397900500,7.815900634765625,0.9331287741661072,-0.7329244613647461,0.2425393462181091
2024-12-07 20:21:15.407914800,7.825914794921875,0.872369110584259,-0.851148784160614,0.2348735481500625
2024-12-07 20:21:15.417927400,7.835927490234375,0.8340566158294678,-0.8755939602851868,0.2207532078027725
2024-12-07 20:21:15.427941600,7.845941650390625,0.8253929615020752,-0.8432952761650085,0.1766209453344345
2024-12-07 20:21:15.437955600,7.85595556640625,0.821448802947998,-0.7672378420829773,0.1047696620225906
2024-12-07 20:21:15.447968500,7.865968505859375,0.7906732559204102,-0.6974812150001526,0.0210430957376956
2024-12-07 20:21:15.457982500,7.875982421875,0.7355729937553406,-0.6839765906333923,-0.0467455349862575
2024-12-07 20:21:15.467996700,7.88599658203125,0.6631860733032227,-0.7561068534851074,-0.0908200442790985
2024-12-07 20:21:15.478010600,7.8960107421875,0.5884971618652344,-0.8627254366874695,-0.1168993115425109
2024-12-07 20:21:15.488023600,7.9060234375,0.5046952962875366,-0.9331598281860352,-0.1256080716848373
2024-12-07 20:21:15.498037500,7.91603759765625,0.4202826619148254,-0.9480890035629272,-0.1176396310329437
2024-12-07 20:21:15.508051700,7.9260517578125,0.3631736636161804,-0.9293105602264404,-0.1044619679450988
2024-12-07 20:21:15.518065700,7.936065673828125,0.3321358561515808,-0.8999635577201843,-0.0891144424676895
2024-12-07 20:21:15.528078600,7.94607861328125,0.3174536824226379,-0.8463477492332458,-0.0651373565196991
2024-12-07 20:21:15.538092500,7.956092529296875,0.304931491613388,-0.7739449143409729,-0.0420040786266326
2024-12-07 20:21:15.548106800,7.966106689453125,0.2858498394489288,-0.7097266316413879,-0.0320196002721786
2024-12-07 20:21:15.558120400,7.976120361328125,0.2624821960926056,-0.6242972016334534,-0.0177711527794599
2024-12-07 20:21:15.568133600,7.986133544921875,0.2342277765274047,-0.5502432584762573,0.0060177319683134
2024-12-07 20:21:15.578147600,7.996147705078125,0.2093573212623596,-0.4784039855003357,0.0445661880075931
2024-12-07 20:21:15.588161800,8.006161865234375,0.1848909109830856,-0.4412942230701446,0.0877657160162925
2024-12-07 20:21:15.598174500,8.016174560546874,0.169378787279129,-0.4318093657493591,0.1259264200925827
2024-12-07 20:21:15.608188700,8.026188720703125,0.1616690754890442,-0.3941131234169006,0.1472027450799942
2024-12-07 20:21:15.618202600,8.03620263671875,0.1587366610765457,-0.3600701987743377,0.1460016667842865
2024-12-07 20:21:15.628216600,8.046216552734375,0.1502382159233093,-0.3538230955600738,0.1094118356704711
2024-12-07 20:21:15.638229500,8.0562294921875,0.1204515472054481,-0.3401592373847961,0.0534582883119583
2024-12-07 20:21:15.648243700,8.06624365234375,0.0777774974703788,-0.3053200840950012,0.0055328560993075
2024-12-07 20:21:15.658257400,8.07625732421875,0.0217041112482547,-0.2777859270572662,-0.0299284663051366
2024-12-07 20:21:15.668271600,8.086271728515625,-0.0532146953046321,-0.3013220429420471,-0.0817327946424484
2024-12-07 20:21:15.678284500,8.096284423828125,-0.1322434693574905,-0.3460050821304321,-0.1610012650489807
2024-12-07 20:21:15.688298800,8.106298828125,-0.1887937784194946,-0.3820694088935852,-0.2682887017726898
2024-12-07 20:21:15.698312400,8.1163125,-0.2097225040197372,-0.4451639652252197,-0.3436731994152069
2024-12-07 20:21:15.708326700,8.12632666015625,-0.2005439549684524,-0.5318242311477661,-0.3854985237121582
2024-12-07 20:21:15.718339600,8.136339599609375,-0.1643026024103164,-0.5825684070587158,-0.4139943420886993
2024-12-07 20:21:15.728353500,8.146353515625,-0.1184447854757309,-0.57429438829422,-0.4345215260982513
2024-12-07 20:21:15.738367500,8.156367431640625,-0.0780691280961036,-0.5892941355705261,-0.4424505531787872
2024-12-07 20:21:15.748380700,8.166380615234376,-0.0297307167202234,-0.6553559899330139,-0.4226121604442596
2024-12-07 20:21:15.758394400,8.176394287109375,0.0377732254564762,-0.7116109728813171,-0.3901605010032654
2024-12-07 20:21:15.768408600,8.18640869140625,0.0871044248342514,-0.7176046967506409,-0.3869751989841461
2024-12-07 20:21:15.778422500,8.196422607421875,0.1015494093298912,-0.7460256814956665,-0.4122182428836822
2024-12-07 20:21:15.788435700,8.206435791015625,0.0908854007720947,-0.7601597905158997,-0.4673419296741485
2024-12-07 20:21:15.798449400,8.216449462890624,0.0476798750460147,-0.7709152698516846,-0.5359295606613159
2024-12-07 20:21:15.808463600,8.226463623046875,-0.0423839725553989,-0.8323610424995422,-0.5805875658988953
2024-12-07 20:21:15.818477600,8.2364775390625,-0.1677813082933426,-0.9031475782394408,-0.6036622524261475
2024-12-07 20:21:15.828490500,8.246490478515625,-0.2764368057250976,-0.8496198058128357,-0.6220526099205017
2024-12-07 20:21:15.838504400,8.25650439453125,-0.3430874943733215,-0.714205265045166,-0.682547926902771
2024-12-07 20:21:15.848518700,8.2665185546875,-0.3909303247928619,-0.623587429523468,-0.7546253204345703
2024-12-07 20:21:15.858532600,8.27653271484375,-0.4705495238304138,-0.6635873317718506,-0.7984210252761841
2024-12-07 20:21:15.868545500,8.286545654296875,-0.6069139242172241,-0.8045417666435242,-0.8147342205047607
2024-12-07 20:21:15.878559500,8.2965595703125,-0.7751064300537109,-0.9127827882766724,-0.7553880214691162
2024-12-07 20:21:15.888573700,8.30657373046875,-0.9032609462738036,-0.9522241950035096,-0.5761730074882507
2024-12-07 20:21:15.898587600,8.316587646484376,-0.8639100790023804,-0.8952812552452087,-0.3298095464706421
2024-12-07 20:21:15.908600600,8.3266005859375,-0.662506103515625,-0.7852787375450134,-0.1866942644119262
2024-12-07 20:21:15.918614500,8.336614501953125,-0.4352585077285766,-0.6664072275161743,-0.1637785583734512
2024-12-07 20:21:15.928628700,8.346628662109374,-0.2669386863708496,-0.5200008749961853,-0.1794388592243194
2024-12-07 20:21:15.938641700,8.3566416015625,-0.174850583076477,-0.4295324683189392,-0.1901056170463562
2024-12-07 20:21:15.948655600,8.366655517578126,-0.1499534994363784,-0.4844201803207397,-0.1830954104661941
2024-12-07 20:21:15.958669600,8.376669677734375,-0.1626708805561065,-0.5758845806121826,-0.1753613203763961
2024-12-07 20:21:15.968683500,8.38668359375,-0.1708375066518783,-0.591575562953949,-0.2229604423046112
2024-12-07 20:21:15.978696700,8.39669677734375,-0.1768546551465988,-0.4737336039543152,-0.2993255257606506
2024-12-07 20:21:15.988710700,8.406710693359376,-0.2092485129833221,-0.2416544109582901,-0.3178106248378753
2024-12-07 20:21:15.998724600,8.416724609375,-0.2716554403305053,-0.0305549446493387,-0.2961447536945343
2024-12-07 20:21:16.008738600,8.426738525390626,-0.2979491353034973,0.0656501576304435,-0.2900024652481079
2024-12-07 20:21:16.018751700,8.436751708984374,-0.2891071736812591,0.1749513447284698,-0.3110890984535217
2024-12-07 20:21:16.028765700,8.446765625,-0.2599453926086426,0.3206426501274109,-0.3403710722923279
2024-12-07 20:21:16.038779400,8.456779296875,-0.2167995423078537,0.4600237011909485,-0.3737420737743377
2024-12-07 20:21:16.048793600,8.466793701171875,-0.1663495898246765,0.5459992289543152,-0.4093737006187439
2024-12-07 20:21:16.058806800,8.476806884765624,-0.0987979844212532,0.5154061913490295,-0.404656708240509
2024-12-07 20:21:16.068820500,8.486820556640625,-0.0465215034782886,0.395757794380188,-0.3274628818035126
2024-12-07 20:21:16.078834400,8.49683447265625,-0.0216113608330488,0.2692914605140686,-0.2163869440555572
2024-12-07 20:21:16.088847600,8.50684765625,-0.0339617244899272,0.204501211643219,-0.1479140222072601
2024-12-07 20:21:16.098861600,8.516861572265626,-0.0696898996829986,0.2465613186359405,-0.13897006213665
2024-12-07 20:21:16.108875500,8.52687548828125,-0.1012257263064384,0.3160865902900696,-0.1508344858884811
2024-12-07 20:21:16.118889500,8.536889404296875,-0.1187714263796806,0.3781222701072693,-0.1617262810468673
2024-12-07 20:21:16.128902700,8.546902587890624,-0.1344745755195617,0.4262228012084961,-0.1671936959028244
2024-12-07 20:21:16.138916000,8.556916015625,-0.1452896744012832,0.4859913289546966,-0.1745280474424362
2024-12-07 20:21:16.148929800,8.5669296875,-0.1493953317403793,0.5778915286064148,-0.1825145781040191
2024-12-07 20:21:16.158944000,8.576944091796875,-0.1494549810886383,0.7093545198440552,-0.1937336772680282
2024-12-07 20:21:16.168957000,8.58695703125,-0.1429949551820755,0.8199114203453064,-0.1832935959100723
2024-12-07 20:21:16.178971000,8.596970947265625,-0.1352076083421707,0.8980432152748108,-0.1532640606164932
2024-12-07 20:21:16.188984800,8.60698486328125,-0.1185810044407844,0.9348461627960204,-0.10848880559206
2024-12-07 20:21:16.198999000,8.6169990234375,-0.1165250465273857,0.9307183027267456,-0.0608421862125396
2024-12-07 20:21:16.209012000,8.627011962890625,-0.1326273679733276,0.8884674310684204,0.0103252064436674
2024-12-07 20:21:16.219026000,8.63702587890625,-0.1557689011096954,0.7974070310592651,0.0942800268530845
2024-12-07 20:21:16.229039900,8.647039794921875,-0.1593037247657776,0.681904137134552,0.1263144314289093
2024-12-07 20:21:16.239054000,8.65705419921875,-0.1517957299947738,0.55839604139328,0.1058847978711128
2024-12-07 20:21:16.249066800,8.667066650390625,-0.1444860994815826,0.411165326833725,0.0559483878314495
2024-12-07 20:21:16.259081000,8.6770810546875,-0.1359642595052719,0.2523644864559173,0.0102464109659194
2024-12-07 20:21:16.269095000,8.687094970703125,-0.1222857758402824,0.1251320987939834,-0.0446436405181884
2024-12-07 20:21:16.279107800,8.69710791015625,-0.1069494262337684,0.0423471964895725,-0.1243214309215545
2024-12-07 20:21:16.289121800,8.707121826171875,-0.0964598581194877,0.0019572889432311,-0.1987367421388626
2024-12-07 20:21:16.299136000,8.717135986328126,-0.0910656228661537,-0.0130903702229261,-0.2078191936016082
2024-12-07 20:21:16.309150000,8.72714990234375,-0.0831696614623069,-0.0047920583747327,-0.1777616292238235
2024-12-07 20:21:16.319163000,8.737162841796875,-0.0739407464861869,0.0107006151229143,-0.156210258603096
2024-12-07 20:21:16.329176800,8.7471767578125,-0.0676184445619583,0.0020970629993826,-0.1376170068979263
2024-12-07 20:21:16.339191000,8.75719091796875,-0.0622274093329906,-0.0077230767346918,-0.1164701730012893
2024-12-07 20:21:16.349205000,8.767205078125,-0.058155745267868,-0.0164614282548427,-0.1215701624751091
2024-12-07 20:21:16.359218000,8.777218017578125,-0.0589120835065841,-0.0276666786521673,-0.1361485719680786
2024-12-07 20:21:16.369232000,8.78723193359375,-0.0703132972121238,-0.0274763740599155,-0.1434697061777115
2024-12-07 20:21:16.379246000,8.79724609375,-0.083001397550106,0.0205694492906332,-0.152545228600502
2024-12-07 20:21:16.389259800,8.807259765625,-0.0923524647951126,0.1101999282836914,-0.1677549034357071
2024-12-07 20:21:16.399273000,8.81727294921875,-0.1104308068752288,0.2053533345460891,-0.1835618317127227
2024-12-07 20:21:16.409287000,8.827286865234376,-0.1286970674991607,0.2964497208595276,-0.1672198474407196
2024-12-07 20:21:16.419301000,8.837301025390625,-0.1463953852653503,0.3827041685581207,-0.1286306381225586
2024-12-07 20:21:16.429313800,8.847313720703125,-0.1636516004800796,0.4423049092292785,-0.0870475098490715
2024-12-07 20:21:16.439328000,8.857327880859375,-0.1746810227632522,0.4257146716117859,-0.0568348430097103
2024-12-07 20:21:16.449342000,8.867342041015625,-0.1778064370155334,0.3099517822265625,-0.0502835735678672
2024-12-07 20:21:16.459356000,8.87735595703125,-0.1739456504583358,0.1624531149864196,-0.0928779020905494
2024-12-07 20:21:16.469368800,8.887368896484375,-0.16030253469944,0.0266395211219787,-0.1622137427330017
2024-12-07 20:21:16.479383000,8.897383056640624,-0.1514235585927963,-0.0542678460478782,-0.2227031886577606
2024-12-07 20:21:16.489396700,8.907396728515625,-0.1476487815380096,-0.0452134571969509,-0.2427843511104583
2024-12-07 20:21:16.499411000,8.917410888671874,-0.1520754992961883,0.0251901317387819,-0.2451833188533783
2024-12-07 20:21:16.509423900,8.927423828125,-0.1519303023815155,0.0902511477470398,-0.2251491248607635
2024-12-07 20:21:16.519438000,8.93743798828125,-0.1296809315681457,0.1057539358735084,-0.19804348051548
2024-12-07 20:21:16.529451800,8.94745166015625,-0.1118708625435829,0.0922602415084838,-0.1777963787317276
2024-12-07 20:21:16.539466000,8.957466064453126,-0.1037125363945961,0.0641061067581176,-0.1529871672391891
2024-12-07 20:21:16.549479000,8.96747900390625,-0.1037215888500213,0.0366044379770755,-0.1586549133062362
2024-12-07 20:21:16.559492900,8.977492919921875,-0.1166232749819755,0.0115936286747455,-0.1959332972764969
2024-12-07 20:21:16.569506800,8.9875068359375,-0.1380035877227783,-0.0235413704067468,-0.2340269088745117
2024-12-07 20:21:16.579520000,8.99752001953125,-0.1558283865451812,-0.0547107420861721,-0.2590481042861938
2024-12-07 20:21:16.589534000,9.007533935546874,-0.1770164966583252,-0.0504409372806549,-0.2619220912456512
2024-12-07 20:21:16.599548000,9.0175478515625,-0.1846579015254974,-0.0348033905029296,-0.2392625957727432
2024-12-07 20:21:16.609561900,9.027561767578124,-0.2003739178180694,0.0016240577679127,-0.2348775416612625
2024-12-07 20:21:16.619575000,9.037574951171877,-0.2283024787902832,0.0639209896326065,-0.271511971950531
2024-12-07 20:21:16.629588700,9.047588623046876,-0.2589935958385467,0.1147220209240913,-0.3242313265800476
2024-12-07 20:21:16.639603000,9.05760302734375,-0.2922045588493347,0.1484874486923217,-0.3613896071910858
2024-12-07 20:21:16.649617000,9.067616943359376,-0.3336601257324219,0.187974601984024,-0.3644128143787384
2024-12-07 20:21:16.659629800,9.0776298828125,-0.3736394941806793,0.2320504486560821,-0.3569026887416839
2024-12-07 20:21:16.669643800,9.087643798828124,-0.4065171182155609,0.2613907158374786,-0.3572923243045807
2024-12-07 20:21:16.679658000,9.097657958984374,-0.4270136058330536,0.2896433770656585,-0.3796237111091614
2024-12-07 20:21:16.689672000,9.107671875,-0.4456642866134643,0.3169871568679809,-0.4069150984287262
2024-12-07 20:21:16.699684900,9.117684814453124,-0.4599023461341858,0.3337120711803436,-0.4202580749988556
2024-12-07 20:21:16.709698800,9.12769873046875,-0.4728110432624817,0.3341107070446014,-0.4131885170936584
2024-12-07 20:21:16.719713000,9.137713134765624,-0.4814276993274688,0.3326131999492645,-0.3934139907360077
2024-12-07 20:21:16.729726000,9.147725830078125,-0.4953258037567138,0.3307240307331085,-0.3754607737064361
2024-12-07 20:21:16.739740000,9.157739990234376,-0.5207171440124512,0.3234418928623199,-0.367399126291275
2024-12-07 20:21:16.749753900,9.16775390625,-0.5618902444839478,0.3059958517551422,-0.3662865161895752
2024-12-07 20:21:16.759768000,9.17776806640625,-0.6073296070098877,0.2687390148639679,-0.3791389465332031
2024-12-07 20:21:16.769781000,9.187781005859376,-0.6443153619766235,0.2221852391958236,-0.4125247597694397
2024-12-07 20:21:16.779795000,9.197794921875,-0.6776514649391174,0.1908576786518097,-0.4502862691879272
2024-12-07 20:21:16.789809000,9.207808837890624,-0.691263735294342,0.1964943706989288,-0.4716790616512298
2024-12-07 20:21:16.799823000,9.217822998046875,-0.68244469165802,0.2449306100606918,-0.4855144619941711
2024-12-07 20:21:16.809836000,9.2278359375,-0.6494441628456116,0.3175376057624817,-0.488118976354599
2024-12-07 20:21:16.819850000,9.23785009765625,-0.5915933847427368,0.3867946863174438,-0.4655244350433349
2024-12-07 20:21:16.829864000,9.247864013671874,-0.5077112913131714,0.4102526307106018,-0.4188669323921203
2024-12-07 20:21:16.839878000,9.2578779296875,-0.4069510996341705,0.389657586812973,-0.345366895198822
2024-12-07 20:21:16.849891000,9.26789111328125,-0.2975319027900696,0.3464363813400268,-0.25368332862854
2024-12-07 20:21:16.859905000,9.277905029296877,-0.1730520129203796,0.2793324589729309,-0.1448292732238769
2024-12-07 20:21:16.869918700,9.287918701171876,-0.0455519370734691,0.179500326514244,-0.0488127171993255
2024-12-07 20:21:16.879932000,9.297931884765624,0.0725387558341026,0.0820267722010612,-0.0054585840553045
2024-12-07 20:21:16.889945900,9.30794580078125,0.17151740193367,0.0250645019114017,-0.0184768475592136
2024-12-07 20:21:16.899960000,9.3179599609375,0.2425444424152374,0.0315905772149562,-0.059113223105669
2024-12-07 20:21:16.909973800,9.327973876953124,0.2879020571708679,0.0913590490818023,-0.0932021737098693
2024-12-07 20:21:16.919987000,9.337987060546874,0.2938060164451599,0.1631424278020858,-0.0845732614398002
2024-12-07 20:21:16.930001000,9.3480009765625,0.2692495584487915,0.2128540575504303,-0.0345122292637825
2024-12-07 20:21:16.940014800,9.358014892578124,0.213137000799179,0.2480533123016357,0.0529009737074375
2024-12-07 20:21:16.950028800,9.36802880859375,0.136842593550682,0.2738447785377502,0.1657071262598037
2024-12-07 20:21:16.960042000,9.3780419921875,0.0579986423254013,0.2836603820323944,0.2679826319217682
2024-12-07 20:21:16.970056000,9.388055908203125,-0.0125296283513307,0.2942229807376861,0.3371278941631317
2024-12-07 20:21:16.980070000,9.39806982421875,-0.0683276504278183,0.3057496845722198,0.3633549511432647
2024-12-07 20:21:16.990083000,9.4080830078125,-0.0960323363542556,0.2990787327289581,0.3582974970340729
2024-12-07 20:21:17.000097000,9.418096923828124,-0.0941484197974205,0.2593899071216583,0.3407752215862274
2024-12-07 20:21:17.010111000,9.428111083984374,-0.0850099101662635,0.1941899061203003,0.3248621523380279
2024-12-07 20:21:17.020125000,9.438125,-0.0670290440320968,0.1136721596121788,0.3112102746963501
2024-12-07 20:21:17.030138000,9.44813818359375,-0.0490322485566139,0.040353313088417,0.2889487445354461
2024-12-07 20:21:17.040151800,9.45815185546875,-0.0335518270730972,-0.0085809370502829,0.2749599516391754
2024-12-07 20:21:17.050166000,9.468166015625,-0.0080889873206615,-0.0212975461035966,0.2830906808376312
2024-12-07 20:21:17.060180000,9.478179931640623,0.0317774713039398,-0.0179219897836446,0.3072207868099212
2024-12-07 20:21:17.070193000,9.48819287109375,0.0705282017588615,-0.0129622444510459,0.3392477333545685
2024-12-07 20:21:17.080206800,9.498206787109376,0.1000823602080345,-0.0226596109569072,0.3754810988903045
2024-12-07 20:21:17.090221000,9.508220947265626,0.1262280344963073,-0.0476385913789272,0.4014828205108642
2024-12-07 20:21:17.100235000,9.518235107421877,0.150149866938591,-0.0710879862308502,0.4073026180267334
2024-12-07 20:21:17.110248000,9.528248046875,0.1722572594881057,-0.0959854498505592,0.4063774943351745
2024-12-07 20:21:17.120262000,9.538261962890624,0.1985144317150116,-0.1074945703148841,0.4200800061225891
2024-12-07 20:21:17.130275800,9.54827587890625,0.2194279283285141,-0.097315527498722,0.4587006866931915
2024-12-07 20:21:17.140289500,9.55828955078125,0.243922621011734,-0.0708636790513992,0.526928722858429
2024-12-07 20:21:17.150303500,9.568303466796875,0.2733665108680725,-0.045142438262701,0.6238012313842773
2024-12-07 20:21:17.160317400,9.5783173828125,0.3024684488773346,-0.033909223973751,0.7296667098999023
2024-12-07 20:21:17.170331400,9.588331298828123,0.3362706899642944,-0.0474656969308853,0.8236768245697021
2024-12-07 20:21:17.180344300,9.59834423828125,0.3679974675178528,-0.0646976828575134,0.8951461911201477
2024-12-07 20:21:17.190358500,9.608358642578125,0.3983764350414276,-0.0635739937424659,0.9414356350898744
2024-12-07 20:21:17.200372500,9.61837255859375,0.4225776493549347,-0.0305787622928619,0.9808616042137146
2024-12-07 20:21:17.210386400,9.628386474609377,0.4461507201194763,0.042558554559946,1.018771052360535
2024-12-07 20:21:17.220399400,9.6383994140625,0.4795760810375213,0.1463693678379058,1.0643954277038574
2024-12-07 20:21:17.230413300,9.648413330078125,0.5383597016334534,0.2597904801368713,1.1102068424224854
2024-12-07 20:21:17.240427500,9.658427490234375,0.6122139692306519,0.3615647852420807,1.1454870700836182
2024-12-07 20:21:17.250441200,9.668441162109374,0.6943140625953674,0.4522792398929596,1.1629701852798462
2024-12-07 20:21:17.260454400,9.678454345703123,0.7672948241233826,0.53754061460495,1.1731969118118286
2024-12-07 20:21:17.270468400,9.68846826171875,0.8145836591720581,0.6299212574958801,1.1760607957839966
2024-12-07 20:21:17.280482600,9.698482666015623,0.8293184041976929,0.7193499207496643,1.1619374752044678
2024-12-07 20:21:17.290495500,9.70849560546875,0.8226237893104553,0.815191388130188,1.1270265579223633
2024-12-07 20:21:17.300509400,9.718509521484377,0.820930004119873,0.898059070110321,1.061699151992798
2024-12-07 20:21:17.310523400,9.7285234375,0.8352397680282593,0.926824152469635,0.949813425540924
2024-12-07 20:21:17.320537300,9.738537353515625,0.8508762121200562,0.8617317080497742,0.7953444719314575
2024-12-07 20:21:17.330550500,9.748550537109375,0.849014163017273,0.7389378547668457,0.6268337368965149
2024-12-07 20:21:17.340564500,9.758564453125,0.8501987457275391,0.5811218619346619,0.4904894828796386
2024-12-07 20:21:17.350578400,9.768578369140624,0.8613030910491943,0.4206935465335846,0.3915433287620544
2024-12-07 20:21:17.360592400,9.77859228515625,0.8475127220153809,0.266481339931488,0.3272407650947571
2024-12-07 20:21:17.370605600,9.78860546875,0.8327712416648865,0.1369801014661789,0.278229683637619
2024-12-07 20:21:17.380619500,9.79861962890625,0.8519039750099182,0.0656420066952705,0.2600536048412323
2024-12-07 20:21:17.390633500,9.808633544921875,0.899644136428833,0.0243642851710319,0.2598982155323028
2024-12-07 20:21:17.400647400,9.8186474609375,0.9068791270256042,-0.0176771748811006,0.2659201622009277
2024-12-07 20:21:17.410660600,9.82866064453125,0.8784103393554688,-0.1018249467015266,0.2589999139308929
2024-12-07 20:21:17.420674300,9.83867431640625,0.8406837582588196,-0.2156705558300018,0.2204732894897461
2024-12-07 20:21:17.430688300,9.848688232421877,0.804416298866272,-0.350554496049881,0.1521024256944656
2024-12-07 20:21:17.440701400,9.858701416015624,0.7696777582168579,-0.4943702518939972,0.0626737549901008
2024-12-07 20:21:17.450715600,9.868715576171876,0.7341591119766235,-0.6133501529693604,-0.0213831029832363
2024-12-07 20:21:17.460729300,9.878729248046875,0.6912806630134583,-0.7130730152130127,-0.0791033953428268
2024-12-07 20:21:17.470743300,9.888743408203124,0.6418578624725342,-0.7882792353630066,-0.1002850458025932
2024-12-07 20:21:17.480756500,9.898756591796875,0.5788309574127197,-0.8329601287841797,-0.0976008474826812
2024-12-07 20:21:17.490770400,9.9087705078125,0.5221134424209595,-0.8703703880310059,-0.06836698949337
2024-12-07 20:21:17.500784400,9.918784423828123,0.4830677807331085,-0.9131415486335754,-0.0315695591270923
2024-12-07 20:21:17.510798300,9.92879833984375,0.4641026258468628,-0.9247806668281556,0.0077259140089154
2024-12-07 20:21:17.520811300,9.938811279296877,0.4562819898128509,-0.8924248218536377,0.0470932945609092
2024-12-07 20:21:17.530825500,9.948825439453126,0.4601574838161468,-0.8240455389022827,0.0797552168369293
2024-12-07 20:21:17.540839400,9.95883935546875,0.4727648794651031,-0.7356842756271362,0.0947176590561866
2024-12-07 20:21:17.550852600,9.9688525390625,0.4749909937381744,-0.6441858410835266,0.0984216332435607
2024-12-07 20:21:17.560866300,9.9788662109375,0.4666734039783478,-0.5931301116943359,0.0971883237361908
2024-12-07 20:21:17.570880500,9.988880615234375,0.4512182772159576,-0.5763057470321655,0.1065345928072929
2024-12-07 20:21:17.580894500,9.99889453125,0.4359551668167114,-0.6005303859710693,0.1277285665273666
2024-12-07 20:21:17.590907400,10.008907470703123,0.4267464578151703,-0.6634712219238281,0.1525991708040237
2024-12-07 20:21:17.600921300,10.01892138671875,0.4276843965053558,-0.7043020129203796,0.1706173121929168
2024-12-07 20:21:17.610935600,10.028935546875,0.4359989464282989,-0.7122318148612976,0.1784463226795196
2024-12-07 20:21:17.620949500,10.038949462890624,0.4432355463504791,-0.6733211874961853,0.1650064140558242
2024-12-07 20:21:17.630962400,10.04896240234375,0.434184193611145,-0.6228523254394531,0.1370696872472763
2024-12-07 20:21:17.640976400,10.058976318359376,0.386709600687027,-0.5828929543495178,0.097924955189228
2024-12-07 20:21:17.650990600,10.068990478515625,0.3223571479320526,-0.5072378516197205,0.0536974519491195
2024-12-07 20:21:17.661004500,10.079004638671876,0.2363154739141464,-0.4387144446372986,0.0117713082581758
2024-12-07 20:21:17.671017500,10.089017578125,0.1422171294689178,-0.40208300948143,-0.0339149385690689
2024-12-07 20:21:17.681031400,10.099031494140624,0.0435603186488151,-0.3963987529277801,-0.1002721264958381
2024-12-07 20:21:17.691045600,10.109045654296876,-0.041699543595314,-0.4106490612030029,-0.1781747639179229
2024-12-07 20:21:17.701058300,10.119058349609375,-0.1123140603303909,-0.4596434831619262,-0.2549965679645538
2024-12-07 20:21:17.711072500,10.129072509765624,-0.1514405161142349,-0.5084963440895081,-0.3219550251960754
2024-12-07 20:21:17.721086500,10.13908642578125,-0.1676836609840393,-0.5326472520828247,-0.3757088184356689
2024-12-07 20:21:17.731100400,10.149100341796874,-0.1608705073595047,-0.5409947633743286,-0.412291020154953
2024-12-07 20:21:17.741113300,10.15911328125,-0.1335033327341079,-0.5135272145271301,-0.4524190127849579
2024-12-07 20:21:17.751127600,10.16912744140625,-0.0959087163209915,-0.4322095811367035,-0.4996647834777832
2024-12-07 20:21:17.761141500,10.1791416015625,-0.0546017587184906,-0.3237313032150268,-0.5540651679039001
2024-12-07 20:21:17.771155500,10.189155517578126,-0.0124589651823043,-0.2677487432956695,-0.5891753435134888
2024-12-07 20:21:17.781168400,10.19916845703125,0.0141659881919622,-0.2782605290412903,-0.6075159907341003
2024-12-07 20:21:17.791182600,10.2091826171875,0.0214099623262882,-0.3201605677604675,-0.6010025143623352
2024-12-07 20:21:17.801196300,10.2191962890625,0.0126087479293346,-0.3489953875541687,-0.5649883151054382
2024-12-07 20:21:17.811209500,10.22920947265625,0.0046303626149892,-0.3354386389255523,-0.5211849212646484
2024-12-07 20:21:17.821223400,10.239223388671874,0.0038167666643857,-0.3304028809070587,-0.4802505373954773
2024-12-07 20:21:17.831237400,10.2492373046875,0.0191639419645071,-0.3633365333080292,-0.4429278373718261
2024-12-07 20:21:17.841251300,10.259251220703124,0.0327798873186111,-0.3947703540325165,-0.4049617946147918
2024-12-07 20:21:17.851264500,10.269264404296877,0.0234136804938316,-0.4114862382411957,-0.3969841599464416
2024-12-07 20:21:17.861278500,10.279278564453126,-0.0030458893161267,-0.4227908253669739,-0.3817005455493927
2024-12-07 20:21:17.871292400,10.28929248046875,-0.0500469505786895,-0.4556228220462799,-0.3492363393306732
2024-12-07 20:21:17.881306400,10.299306396484376,-0.1120512038469314,-0.515201210975647,-0.3448333442211151
2024-12-07 20:21:17.891319600,10.309319580078125,-0.1620842665433883,-0.5520430207252502,-0.3647162914276123
2024-12-07 20:21:17.901333200,10.319333251953124,-0.1978199034929275,-0.5054976344108582,-0.3992961049079895
2024-12-07 20:21:17.911347500,10.329347412109374,-0.2115830332040786,-0.4082716405391693,-0.4422675371170044
2024-12-07 20:21:17.921361400,10.339361328125,-0.20721997320652,-0.3522081077098846,-0.4378490746021271
2024-12-07 20:21:17.931374300,10.349374267578124,-0.1621742397546768,-0.375343918800354,-0.3665559589862823
2024-12-07 20:21:17.941388300,10.35938818359375,-0.0801606029272079,-0.409745842218399,-0.2651087045669555
2024-12-07 20:21:17.951402500,10.369402587890624,0.0475397892296314,-0.4006871879100799,-0.1418889760971069
2024-12-07 20:21:17.961415400,10.37941552734375,0.20962455868721,-0.3610907793045044,-0.0646085664629936
2024-12-07 20:21:17.971429400,10.389429443359376,0.3500291407108307,-0.3660151064395904,-0.019133286550641
2024-12-07 20:21:17.981443300,10.399443359375,0.4121886789798736,-0.4447847306728363,-0.0039386213757097
2024-12-07 20:21:17.991457500,10.40945751953125,0.378909558057785,-0.5653967261314392,-0.0255439560860395
2024-12-07 20:21:18.001470200,10.41947021484375,0.2829992771148681,-0.6675153970718384,-0.0518328174948692
2024-12-07 20:21:18.011484400,10.429484375,0.1773375123739242,-0.6701226234436035,-0.0788724720478057
2024-12-07 20:21:18.021498400,10.439498291015624,0.085733026266098,-0.599940836429596,-0.1535568237304687
2024-12-07 20:21:18.031512600,10.4495126953125,0.0135324643924832,-0.4059593677520752,-0.2338715344667434
2024-12-07 20:21:18.041525200,10.459525146484374,-0.0570370405912399,-0.1456846445798874,-0.2509964406490326
2024-12-07 20:21:18.051539500,10.46953955078125,-0.1266737729310989,0.0132315848022699,-0.2121270149946212
2024-12-07 20:21:18.061553400,10.479553466796874,-0.1798896044492721,0.077463299036026,-0.1715321838855743
2024-12-07 20:21:18.071566300,10.48956640625,-0.2090923488140106,0.1071427017450332,-0.1430504471063614
2024-12-07 20:21:18.081580300,10.499580322265626,-0.2187367230653762,0.1109227910637855,-0.1507887989282608
2024-12-07 20:21:18.091594500,10.509594482421877,-0.2269775569438934,0.1099806278944015,-0.1857912242412567
2024-12-07 20:21:18.101608400,10.5196083984375,-0.2325840443372726,0.1278714835643768,-0.2259178757667541
2024-12-07 20:21:18.111621400,10.529621337890624,-0.2433905452489853,0.1506284326314926,-0.2897175550460815
2024-12-07 20:21:18.121635300,10.53963525390625,-0.2677690982818603,0.155141681432724,-0.3738864958286285
2024-12-07 20:21:18.131649300,10.549649169921874,-0.3202578425407409,0.1371145844459533,-0.4617583155632019
2024-12-07 20:21:18.141663200,10.559663330078124,-0.3840506672859192,0.0945063978433609,-0.5207420587539673
2024-12-07 20:21:18.151676400,10.569676513671874,-0.4512377083301544,0.0699628144502639,-0.5293100476264954
2024-12-07 20:21:18.161690000,10.579690185546877,-0.5021371245384216,0.0725546032190322,-0.4951089024543762
2024-12-07 20:21:18.171704300,10.589704345703124,-0.5431200265884399,0.1146121546626091,-0.4387938976287842
2024-12-07 20:21:18.181717500,10.599717529296877,-0.5948271751403809,0.2108529359102249,-0.3815066218376159
2024-12-07 20:21:18.191731500,10.6097314453125,-0.654206395149231,0.3408433496952057,-0.3338488340377807
2024-12-07 20:21:18.201745200,10.6197451171875,-0.7147315144538879,0.4709765911102295,-0.2956551015377044
2024-12-07 20:21:18.211759400,10.62975927734375,-0.7470918297767639,0.576958179473877,-0.2770185768604278
2024-12-07 20:21:18.221772500,10.6397724609375,-0.745749294757843,0.6750301718711853,-0.2879343330860138
2024-12-07 20:21:18.231786200,10.6497861328125,-0.7063188552856445,0.7773913741111755,-0.3263243436813354
2024-12-07 20:21:18.241800200,10.65980029296875,-0.6469977498054504,0.8990808129310608,-0.375298261642456
2024-12-07 20:21:18.251814400,10.669814453125,-0.5863082408905029,1.03243088722229,-0.4117633402347564
2024-12-07 20:21:18.261827300,10.679827392578124,-0.5343717932701111,1.133426547050476,-0.4168795347213745
2024-12-07 20:21:18.271841300,10.68984130859375,-0.4797613620758056,1.1642855405807495,-0.3831838965415954
2024-12-07 20:21:18.281855200,10.699855224609376,-0.4234056770801544,1.1462167501449585,-0.3220236301422119
2024-12-07 20:21:18.291869400,10.709869384765623,-0.3771421313285827,1.1178982257843018,-0.2452879548072815
2024-12-07 20:21:18.301882400,10.71988232421875,-0.3494346141815185,1.093443751335144,-0.1557333022356033
2024-12-07 20:21:18.311896300,10.729896240234376,-0.3352716863155365,1.0420684814453125,-0.0550889372825622
2024-12-07 20:21:18.321910300,10.73991015625,-0.3158572316169739,0.9297102689743042,0.0288656186312437
2024-12-07 20:21:18.331923200,10.749923095703124,-0.2794871032238006,0.7563304901123047,0.0488856025040149
2024-12-07 20:21:18.341937400,10.7599375,-0.2353494763374328,0.5287052989006042,0.0071442797780036
2024-12-07 20:21:18.351951400,10.769951416015624,-0.1836830526590347,0.3276545107364654,-0.0543395914137363
2024-12-07 20:21:18.361965300,10.77996533203125,-0.1448136866092682,0.268320620059967,-0.1053979843854904
2024-12-07 20:21:18.371978200,10.789978271484374,-0.1032915338873863,0.3306668102741241,-0.1435230076313018
2024-12-07 20:21:18.381992400,10.799992431640623,-0.0582564175128936,0.4276863038539886,-0.1711463779211044
2024-12-07 20:21:18.392006400,10.81000634765625,-0.0093373889103531,0.4962333440780639,-0.1760780066251754
2024-12-07 20:21:18.402020400,10.820020263671877,0.0679046660661697,0.4981867671012878,-0.1593799889087677
2024-12-07 20:21:18.412033300,10.830033203125,0.1597535908222198,0.4309574663639068,-0.1443854421377182
2024-12-07 20:21:18.422047500,10.840047607421877,0.2056616842746734,0.3441802263259887,-0.111649602651596
2024-12-07 20:21:18.432061400,10.8500615234375,0.1970607936382293,0.3136717081069946,-0.0561061948537826
2024-12-07 20:21:18.442074400,10.860074462890625,0.1615659147500991,0.336542934179306,0.0093545690178871
2024-12-07 20:21:18.452088300,10.87008837890625,0.1240338459610939,0.3676974475383758,0.0626321956515312
2024-12-07 20:21:18.462102500,10.8801025390625,0.0953026041388511,0.3777050673961639,0.0957525968551635
2024-12-07 20:21:18.472116200,10.8901162109375,0.074140690267086,0.3617254793643951,0.0999792888760566
2024-12-07 20:21:18.482129400,10.90012939453125,0.0588011443614959,0.3307467997074127,0.0781988948583602
2024-12-07 20:21:18.492143400,10.910143310546877,0.0382531657814979,0.3266677260398865,0.0548786707222461
2024-12-07 20:21:18.502157600,10.920157470703124,-0.0007482960354536,0.3526263535022735,0.0395138263702392
2024-12-07 20:21:18.512171300,10.930171142578123,-0.0457259826362133,0.3326055109500885,0.007591463625431
2024-12-07 20:21:18.522184400,10.940184326171876,-0.088142417371273,0.2953444421291351,-0.0587271079421043
2024-12-07 20:21:18.532198400,10.950198486328125,-0.135922759771347,0.2968976497650146,-0.1519434154033661
2024-12-07 20:21:18.542212400,10.96021240234375,-0.1836423426866531,0.3090651035308838,-0.2473122775554657
2024-12-07 20:21:18.552225300,10.970225341796874,-0.2315083593130111,0.3040237426757812,-0.3272539377212524
2024-12-07 20:21:18.562239500,10.980239501953124,-0.2734078764915466,0.294396162033081,-0.3818714022636413
2024-12-07 20:21:18.572253200,10.990253173828124,-0.3021929562091827,0.3151171505451202,-0.3855495154857635
2024-12-07 20:21:18.582267400,11.000267333984375,-0.3195077776908874,0.3672839403152466,-0.3464577794075012
2024-12-07 20:21:18.592280300,11.0102802734375,-0.3228153884410858,0.4101539850234985,-0.2823211848735809
2024-12-07 20:21:18.602294500,11.02029443359375,-0.3176850974559784,0.4196793138980865,-0.2197896242141723
2024-12-07 20:21:18.612308200,11.03030810546875,-0.2932907044887543,0.3999283909797668,-0.1849944293498993
2024-12-07 20:21:18.622322400,11.040322509765623,-0.2641898095607757,0.3475072681903839,-0.1776337176561355
2024-12-07 20:21:18.632335400,11.05033544921875,-0.2403916418552398,0.2942736446857452,-0.1835578083992004
2024-12-07 20:21:18.642349300,11.060349365234377,-0.2254875302314758,0.2644456923007965,-0.1942229568958282
2024-12-07 20:21:18.652363300,11.07036328125,-0.2207058221101761,0.2777064740657806,-0.1940264701843261
2024-12-07 20:21:18.662376400,11.08037646484375,-0.2104923278093338,0.2759858071804046,-0.1850404292345047
2024-12-07 20:21:18.672390400,11.090390380859375,-0.1903821378946304,0.2340001165866851,-0.1778744161128997
2024-12-07 20:21:18.682404400,11.100404296875,-0.1592327505350113,0.1685649156570434,-0.1871331632137298
2024-12-07 20:21:18.692418300,11.110418212890623,-0.1398252248764038,0.1263554692268371,-0.2277187258005142
2024-12-07 20:21:18.702431500,11.120431396484374,-0.1309925764799118,0.1232595443725586,-0.2801084220409393
2024-12-07 20:21:18.712445200,11.130445068359377,-0.1487146317958831,0.1430824697017669,-0.3117997944355011
2024-12-07 20:21:18.722459400,11.14045947265625,-0.1812712401151657,0.1684653162956237,-0.3127513229846954
2024-12-07 20:21:18.732473300,11.150473388671877,-0.2047376781702041,0.1501317918300628,-0.2685148417949676
2024-12-07 20:21:18.742486300,11.160486328125,-0.2181656062602996,0.1284603327512741,-0.1959018856287002
2024-12-07 20:21:18.752500200,11.170500244140625,-0.2181071192026138,0.1241320222616195,-0.1307878047227859
2024-12-07 20:21:18.762514400,11.180514404296876,-0.2164873778820037,0.1414119452238083,-0.0974072068929672
2024-12-07 20:21:18.772527400,11.19052734375,-0.2265906631946563,0.1850490570068359,-0.0835334137082099
2024-12-07 20:21:18.782541300,11.200541259765624,-0.236759677529335,0.2339108735322952,-0.078120544552803
2024-12-07 20:21:18.792555300,11.21055517578125,-0.2417776882648468,0.2611719965934753,-0.0907521694898605
2024-12-07 20:21:18.802569500,11.220569580078124,-0.2473934888839721,0.2778348624706268,-0.1273557096719741
2024-12-07 20:21:18.812582100,11.23058203125,-0.2556315958499908,0.2701850831508636,-0.1709202975034713
2024-12-07 20:21:18.822596400,11.240596435546877,-0.2655971348285675,0.2525011599063873,-0.206398144364357
2024-12-07 20:21:18.832610300,11.2506103515625,-0.2771463692188263,0.2293220609426498,-0.2260441929101944
2024-12-07 20:21:18.842624500,11.26062451171875,-0.2750651240348816,0.202576458454132,-0.2167729288339615
2024-12-07 20:21:18.852637200,11.27063720703125,-0.2792892754077911,0.1760214865207672,-0.2009801566600799
2024-12-07 20:21:18.862651400,11.2806513671875,-0.2859141528606415,0.1820801645517349,-0.1935294270515442
2024-12-07 20:21:18.872665300,11.290665283203126,-0.2930983901023865,0.2131165117025375,-0.1844924688339233
2024-12-07 20:21:18.882679600,11.300679443359376,-0.2960816621780395,0.2240013778209686,-0.1702493578195572
2024-12-07 20:21:18.892692200,11.310692138671875,-0.3073826134204864,0.2245777696371078,-0.1722761839628219
2024-12-07 20:21:18.902706400,11.32070654296875,-0.2998170852661133,0.1944632828235626,-0.1837812960147857
2024-12-07 20:21:18.912720400,11.330720458984375,-0.3006488978862762,0.1814790368080139,-0.218226209282875
2024-12-07 20:21:18.922733300,11.3407333984375,-0.3092125654220581,0.198471337556839,-0.2727168798446655
2024-12-07 20:21:18.932747300,11.350747314453123,-0.3258954286575317,0.2283500432968139,-0.315468281507492
2024-12-07 20:21:18.942761500,11.360761474609374,-0.3539920449256897,0.2403606325387954,-0.3353780806064605
2024-12-07 20:21:18.952775200,11.370775146484377,-0.3796003460884094,0.2356059253215789,-0.3380275964736938
2024-12-07 20:21:18.962788400,11.380788330078126,-0.4085569083690643,0.2409165203571319,-0.3375442326068878
2024-12-07 20:21:18.972802300,11.39080224609375,-0.4347158074378967,0.2609177529811859,-0.3466369211673736
