time,seconds_elapsed,z,y,x
2024-12-07 20:26:41.525889000,0.019888916015625,0.0358867011964321,-0.0149577306583523,-0.0359758511185646
2024-12-07 20:26:41.535902000,0.02990185546875,0.0140170883387327,-0.0510124042630195,-0.0629922896623611
2024-12-07 20:26:41.545916200,0.039916259765625,-0.0017552524805068,-0.0784613788127899,-0.0998850613832473
2024-12-07 20:26:41.555929900,0.049929931640625,-0.0139874182641506,-0.0984545275568962,-0.1214742437005043
2024-12-07 20:26:41.565943000,0.059943115234375,-0.0146481934934854,-0.1062033623456955,-0.1191372722387313
2024-12-07 20:26:41.575957000,0.06995703125,-0.0185012556612491,-0.1017079502344131,-0.1019343137741088
2024-12-07 20:26:41.585971000,0.079970947265625,-0.0231997855007648,-0.1179156526923179,-0.0830206796526908
2024-12-07 20:26:41.595984000,0.08998388671875,-0.0271753519773483,-0.1226371750235557,-0.0633143559098243
2024-12-07 20:26:41.605998000,0.099998046875,-0.0357170067727565,-0.110470600426197,-0.0353962406516075
2024-12-07 20:26:41.616011800,0.11001171875,-0.0614732317626476,-0.1120061799883842,-0.0096064545214176
2024-12-07 20:26:41.626025000,0.12002490234375,-0.0744317173957824,-0.1231758296489715,-0.006206935737282
2024-12-07 20:26:41.636039000,0.130038818359375,-0.0803239569067955,-0.125755101442337,-0.0309492982923984
2024-12-07 20:26:41.646053000,0.14005322265625,-0.0871085450053215,-0.1058840528130531,-0.0755775421857833
2024-12-07 20:26:41.656066000,0.150066162109375,-0.1154509708285331,-0.0996386706829071,-0.1102130189538002
2024-12-07 20:26:41.666080000,0.160080078125,-0.1638852655887603,-0.1599950790405273,-0.1852518767118454
2024-12-07 20:26:41.676094000,0.170093994140625,-0.3346687257289886,-0.0779364258050918,-0.3546068370342254
2024-12-07 20:26:41.686107000,0.18010693359375,-0.8508684635162354,0.3190056085586548,-0.6383895874023438
2024-12-07 20:26:41.696121000,0.19012109375,-1.3412609100341797,0.3272694051265716,-0.753204345703125
2024-12-07 20:26:41.706135000,0.200135009765625,-1.763604760169983,0.1185049042105674,-0.7021629810333252
2024-12-07 20:26:41.716148000,0.21014794921875,-2.1987195014953613,-0.0493663847446441,-0.4728080928325653
2024-12-07 20:26:41.726162000,0.220161865234375,-2.6744861602783203,-0.2433300465345382,-0.2295399457216262
2024-12-07 20:26:41.736176000,0.230176025390625,-3.079777240753174,-0.3217662572860718,-0.1258929073810577
2024-12-07 20:26:41.746188800,0.240188720703125,-3.379823684692383,-0.2032731175422668,-0.100401222705841
2024-12-07 20:26:41.756203000,0.250203125,-3.521353960037231,-0.112599954009056,-0.1222223788499832
2024-12-07 20:26:41.766217000,0.260217041015625,-3.491434335708618,-0.1729011535644531,-0.2822944819927215
2024-12-07 20:26:41.776230000,0.27022998046875,-3.3929035663604736,-0.1569879800081253,-0.463150292634964
2024-12-07 20:26:41.786243800,0.280243896484375,-3.172706365585327,-0.0409269705414772,-0.4766507148742676
2024-12-07 20:26:41.796257800,0.2902578125,-2.7479941844940186,0.0529912672936916,-0.3966014087200165
2024-12-07 20:26:41.806270700,0.300270751953125,-2.104987859725952,0.0614350549876689,-0.2775954604148865
2024-12-07 20:26:41.816285000,0.310284912109375,-1.403550386428833,0.0466912649571895,-0.1415127217769622
2024-12-07 20:26:41.826298600,0.320298583984375,-0.7879967093467712,0.0375718176364898,-0.0066884318366646
2024-12-07 20:26:41.836311800,0.330311767578125,-0.336432933807373,0.0992426425218582,0.1063579618930816
2024-12-07 20:26:41.846325800,0.34032568359375,-0.0832279920578002,0.221156433224678,0.1773301512002945
2024-12-07 20:26:41.856339700,0.350339599609375,0.0142255928367376,0.1903029084205627,0.1540442705154419
2024-12-07 20:26:41.866353000,0.360352783203125,-0.1269722580909729,-0.2947900593280792,-0.3844321668148041
2024-12-07 20:26:41.876366800,0.370366943359375,-0.767059862613678,-1.1515713930130005,-1.4312180280685425
2024-12-07 20:26:41.886380800,0.380380859375,-1.102553367614746,-1.0776617527008057,-1.3349244594573977
2024-12-07 20:26:41.896393700,0.390393798828125,-1.2881200313568115,-0.7903774380683899,-0.7431634068489075
2024-12-07 20:26:41.906408000,0.400407958984375,-1.4786882400512695,-0.6003178954124451,-0.2063941955566406
2024-12-07 20:26:41.916422000,0.410421875,-1.5608209371566772,-0.3809509575366974,0.0358131155371665
2024-12-07 20:26:41.926435600,0.420435546875,-1.3677133321762085,-0.2443824261426925,-0.0593401342630386
2024-12-07 20:26:41.936448800,0.43044873046875,-1.1773185729980469,-0.0640802904963493,-0.2150812745094299
2024-12-07 20:26:41.946463000,0.440462890625,-1.0225331783294678,0.037113394588232,-0.3615570068359375
2024-12-07 20:26:41.956476700,0.4504765625,-0.9293070435523988,0.0595473311841487,-0.4469142556190491
2024-12-07 20:26:41.966489900,0.46048974609375,-0.927573561668396,0.0838799998164177,-0.4372953772544861
2024-12-07 20:26:41.976503800,0.47050390625,-0.9660308957099916,0.0874662101268768,-0.3399589657783508
2024-12-07 20:26:41.986518000,0.48051806640625,-0.8489987850189209,0.1030154377222061,-0.2077666372060775
2024-12-07 20:26:41.996530700,0.49053076171875,-0.4504386484622955,0.0310344584286212,-0.1112281009554863
2024-12-07 20:26:42.006545000,0.500544921875,0.0812146440148353,0.0374363176524639,-0.0143788997083902
2024-12-07 20:26:42.016557600,0.5105576171875,0.5055068135261536,0.1218207031488418,0.1205261871218681
2024-12-07 20:26:42.026571800,0.52057177734375,0.4510568380355835,0.2621621489524841,0.2623578608036041
2024-12-07 20:26:42.036585700,0.530585693359375,0.0073353238403797,0.2675446569919586,0.3007963299751282
2024-12-07 20:26:42.046599000,0.540598876953125,-0.1477017253637313,0.0423123128712177,0.2503820955753326
2024-12-07 20:26:42.056612600,0.550612548828125,-0.1336849778890609,-0.1596474349498748,0.13753142952919
2024-12-07 20:26:42.066626800,0.560626708984375,-0.1472873389720916,-0.2541611492633819,0.0034684394486248
2024-12-07 20:26:42.076640800,0.570640869140625,-0.1925730556249618,-0.1638762652873993,-0.0553434789180755
2024-12-07 20:26:42.086653700,0.58065380859375,-0.1666034013032913,-0.0510581284761428,-0.057260051369667
2024-12-07 20:26:42.096667600,0.590667724609375,-0.1004800498485565,-0.0076930774375796,-0.0538613274693489
2024-12-07 20:26:42.106681900,0.600681884765625,-0.0246875304728746,0.0461548194289207,-0.0163180585950613
2024-12-07 20:26:42.116694800,0.61069482421875,0.1391810327768325,0.3243254721164703,0.1376137137413025
2024-12-07 20:26:42.126708700,0.620708740234375,0.0590939000248909,0.287919133901596,0.1084325090050697
2024-12-07 20:26:42.136722700,0.63072265625,0.0027262326329946,0.1171183586120605,0.0031367111951112
2024-12-07 20:26:42.146735900,0.64073583984375,0.0018758394289761,0.0019978014752268,-0.0442054495215415
2024-12-07 20:26:42.156749800,0.650749755859375,0.0038290016818791,0.0228194594383239,0.0067378911189734
2024-12-07 20:26:42.166763800,0.660763671875,0.0044529493898153,0.054777231067419,0.0541029162704944
2024-12-07 20:26:42.176777000,0.67077685546875,-0.0018646011594682,0.0807933881878852,0.0557644627988338
2024-12-07 20:26:42.186790700,0.680790771484375,-0.005185009445995,0.1151759624481201,0.0546514131128788
2024-12-07 20:26:42.196804900,0.690804931640625,-0.0025578010827302,0.1557659953832626,0.0550961606204509
2024-12-07 20:26:42.206817800,0.70081787109375,0.0022249238099902,0.1802227795124054,0.0573875978589057
2024-12-07 20:26:42.216831700,0.710831787109375,0.005292885005474,0.2178527265787124,0.0588627234101295
2024-12-07 20:26:42.226845700,0.720845703125,0.0107821207493543,0.2441872805356979,0.0726549625396728
2024-12-07 20:26:42.236859000,0.73085888671875,0.0184176694601774,0.2384369969367981,0.101581685245037
2024-12-07 20:26:42.246872800,0.740872802734375,0.0248089469969272,0.231369286775589,0.1223662942647934
2024-12-07 20:26:42.256886800,0.75088671875,0.0340415947139263,0.2234106957912445,0.1165603324770927
2024-12-07 20:26:42.266899700,0.760899658203125,0.0402815081179142,0.211257591843605,0.103652685880661
2024-12-07 20:26:42.276914000,0.770913818359375,0.0422743521630764,0.1909086555242538,0.0939984619617462
2024-12-07 20:26:42.286927600,0.780927734375,0.0379579104483127,0.18759386241436,0.086410254240036
2024-12-07 20:26:42.296940800,0.79094091796875,0.0267289597541093,0.2006209790706634,0.0835771858692169
2024-12-07 20:26:42.306954800,0.800954833984375,0.0111635932698845,0.2236792147159576,0.0861401483416557
2024-12-07 20:26:42.316969000,0.810968994140625,-0.0043695596978068,0.2508890032768249,0.1008131057024002
2024-12-07 20:26:42.326982000,0.82098193359375,-0.014022683724761,0.2759222090244293,0.1188230067491531
2024-12-07 20:26:42.336995800,0.830995849609375,-0.0190997347235679,0.2759975790977478,0.1254561394453048
2024-12-07 20:26:42.347009800,0.841009765625,-0.0223989412188529,0.2498904764652252,0.1093371361494064
2024-12-07 20:26:42.357022700,0.851022705078125,-0.018360523506999,0.1967407166957855,0.089078202843666
2024-12-07 20:26:42.367037000,0.861036865234375,-0.0042130476795136,0.140809491276741,0.0646476969122886
2024-12-07 20:26:42.377051000,0.87105078125,0.0107227582484483,0.083152063190937,0.0284348297864198
2024-12-07 20:26:42.387063800,0.881063720703125,0.0260427668690681,0.0254233200103044,0.0041540986858308
2024-12-07 20:26:42.397077800,0.891077880859375,0.0375830419361591,-0.0267831590026617,0.0082308650016784
2024-12-07 20:26:42.407092000,0.901092041015625,0.0460375025868415,-0.0553400255739688,0.0096511859446764
2024-12-07 20:26:42.417104600,0.911104736328125,0.0548557639122009,-0.0680326446890831,0.0041128769516944
2024-12-07 20:26:42.427118800,0.921118896484375,0.0614777579903602,-0.0739317163825035,0.0020435471087694
2024-12-07 20:26:42.437132800,0.9311328125,0.0553812496364116,-0.0873942673206329,0.0068803802132606
2024-12-07 20:26:42.447145700,0.941145751953125,0.0333295240998268,-0.0931404754519462,0.0117318071424961
2024-12-07 20:26:42.457159700,0.95115966796875,0.0205570012331008,-0.0947964265942573,0.0120985247194767
2024-12-07 20:26:42.467172900,0.9611728515625,0.0066921561956405,-0.1231540516018867,0.0099925976246595
2024-12-07 20:26:42.477186800,0.971186767578125,-0.0042110914364457,-0.1559665948152542,-0.0058707878924906
2024-12-07 20:26:42.487200800,0.98120068359375,-0.0109251048415899,-0.1720197200775146,-0.032730683684349
2024-12-07 20:26:42.497214000,0.9912138671875,-0.0166892521083354,-0.1756839603185653,-0.0576789081096649
2024-12-07 20:26:42.507228000,1.001227783203125,-0.0194562301039695,-0.1658000648021698,-0.0561705492436885
2024-12-07 20:26:42.517241600,1.01124169921875,-0.0208858139812946,-0.1418931484222412,-0.0422944128513336
2024-12-07 20:26:42.527254800,1.0212548828125,-0.0212221015244722,-0.1186947897076606,-0.0379649065434932
2024-12-07 20:26:42.537269000,1.03126904296875,-0.0338385589420795,-0.0963308960199356,-0.0415303446352481
2024-12-07 20:26:42.547282700,1.04128271484375,-0.0427026487886905,-0.0654728338122367,-0.0367489643394947
2024-12-07 20:26:42.557296600,1.051296630859375,-0.0463511794805526,-0.034979909658432,-0.0210584215819835
2024-12-07 20:26:42.567309800,1.061309814453125,-0.0480739213526248,-0.0106455069035291,-0.0168617460876703
2024-12-07 20:26:42.577324000,1.071323974609375,-0.0417060367763042,-0.0009912815876305,-0.016501685604453
2024-12-07 20:26:42.587336700,1.081336669921875,-0.0280385334044694,-0.0039475210942327,-0.0159847792237997
2024-12-07 20:26:42.597351000,1.091350830078125,-0.0150367124006152,-0.014049956575036,-0.0161972995847463
2024-12-07 20:26:42.607364900,1.10136474609375,-0.0027852347120642,-0.0092064384371042,-0.006479853298515
2024-12-07 20:26:42.617378800,1.11137890625,0.0050412630662322,0.0023878999054431,0.0061573791317641
2024-12-07 20:26:42.627391700,1.121391845703125,0.0076220040209591,0.00739680044353,-0.0011571547947824
2024-12-07 20:26:42.637406000,1.131406005859375,0.0028211236931383,0.0042896904051303,-0.0090710036456584
2024-12-07 20:26:42.647418600,1.141418701171875,-0.002377945696935,0.003734856378287,-0.0084570916369557
2024-12-07 20:26:42.657432800,1.151432861328125,-0.008549821563065,-0.0151099376380443,-0.0045110853388905
2024-12-07 20:26:42.667446800,1.16144677734375,-0.018953213468194,-0.0393477417528629,0.0035746521316468
2024-12-07 20:26:42.677459700,1.171459716796875,-0.027251623570919,-0.0417669564485549,0.0050242105498909
2024-12-07 20:26:42.687473700,1.1814736328125,-0.0284486133605241,-0.0397911742329597,0.0072869337163865
2024-12-07 20:26:42.697488000,1.19148779296875,-0.0237784944474697,-0.0490206256508827,-0.000133431982249
2024-12-07 20:26:42.707500800,1.201500732421875,-0.0161283072084188,-0.067006342113018,-0.0181248914450407
2024-12-07 20:26:42.717514800,1.2115146484375,-0.0146633023396134,-0.0750232562422752,-0.0365987047553062
2024-12-07 20:26:42.727528700,1.22152880859375,-0.0093564465641975,-0.0709922760725021,-0.0433253832161426
2024-12-07 20:26:42.737542000,1.2315419921875,-0.0047542378306388,-0.0615359283983707,-0.0367103554308414
2024-12-07 20:26:42.747555800,1.241555908203125,-0.0036707820836454,-0.0508999191224575,-0.0250976923853158
2024-12-07 20:26:42.757569800,1.25156982421875,0.0012222435325384,-0.0326410233974456,-0.0141486376523971
2024-12-07 20:26:42.767583000,1.2615830078125,0.0002932655625045,-0.0139106838032603,-0.0026545310392975
2024-12-07 20:26:42.777596700,1.2715966796875,-0.001911032712087,0.0043556718155741,0.0261771157383918
2024-12-07 20:26:42.787611000,1.28161083984375,0.0023259499575942,0.0290134828537702,0.0464637354016304
2024-12-07 20:26:42.797623800,1.291623779296875,0.0061976537108421,0.0490798689424991,0.0439449176192283
2024-12-07 20:26:42.807638000,1.301637939453125,0.0035362539347261,0.055207286030054,0.0214530900120735
2024-12-07 20:26:42.817652000,1.31165185546875,0.0040108291432261,0.0580566003918647,0.005288500804454
2024-12-07 20:26:42.827665000,1.321664794921875,0.0059440992772579,0.0671772733330726,0.0085106091573834
2024-12-07 20:26:42.837678800,1.331678955078125,0.0038916009943932,0.0726292952895164,0.0215347986668348
2024-12-07 20:26:42.847693000,1.341693115234375,0.0012281383387744,0.0704135000705719,0.0177485793828964
2024-12-07 20:26:42.857705700,1.351705810546875,-0.0062401639297604,0.0647920966148376,0.0118171861395239
2024-12-07 20:26:42.867720000,1.361719970703125,-0.0148271564394235,0.0711198970675468,0.008441642858088
2024-12-07 20:26:42.877734000,1.37173388671875,-0.0207761246711015,0.0685787126421928,-0.0027907718904316
2024-12-07 20:26:42.887746800,1.381746826171875,-0.0199845656752586,0.0459321998059749,-0.0171328652650117
2024-12-07 20:26:42.897760800,1.3917607421875,-0.020129706710577,0.02962033636868,-0.0225281622260808
2024-12-07 20:26:42.907775000,1.40177490234375,-0.0151960626244544,0.0208031702786684,-0.0252942834049463
2024-12-07 20:26:42.917788000,1.411787841796875,-0.0126037411391735,-0.0059730508364737,-0.0245150420814752
2024-12-07 20:26:42.927801900,1.4218017578125,-0.015113909728825,-0.0327253304421901,-0.0134787410497665
2024-12-07 20:26:42.937815800,1.43181591796875,-0.01519859675318,-0.0413361266255378,-0.0171855948865413
2024-12-07 20:26:42.947829000,1.4418291015625,-0.0208640210330486,-0.0428385585546493,-0.0417476147413253
2024-12-07 20:26:42.957843000,1.451843017578125,-0.0319060198962688,-0.0536858811974525,-0.0733012780547142
2024-12-07 20:26:42.967857000,1.46185693359375,-0.039925817400217,-0.0749037191271781,-0.0916931182146072
2024-12-07 20:26:42.977870000,1.4718701171875,-0.0482764244079589,-0.1178354769945144,-0.1009446829557418
2024-12-07 20:26:42.987884000,1.481884033203125,-0.0518037006258964,-0.1751380413770675,-0.0990493595600128
2024-12-07 20:26:42.997898000,1.49189794921875,-0.0519469752907753,-0.1957572996616363,-0.0821590572595596
2024-12-07 20:26:43.007911000,1.501910888671875,-0.0470910035073757,-0.1930021494626999,-0.0707395151257515
2024-12-07 20:26:43.017925000,1.511925048828125,-0.0505696237087249,-0.1931773871183395,-0.0834566429257392
2024-12-07 20:26:43.027938800,1.521938720703125,-0.0531813353300094,-0.1879344135522842,-0.1086198017001152
2024-12-07 20:26:43.037952000,1.531951904296875,-0.04921855032444,-0.1902074217796325,-0.1215156242251396
2024-12-07 20:26:43.047966000,1.541966064453125,-0.0426678322255611,-0.1930259317159652,-0.1240930259227752
2024-12-07 20:26:43.057980000,1.55197998046875,-0.0334069542586803,-0.2135320156812667,-0.1091753244400024
2024-12-07 20:26:43.067992800,1.561992919921875,-0.0104491859674453,-0.2244193255901336,-0.0835580602288246
2024-12-07 20:26:43.078007000,1.572007080078125,0.0207790415734052,-0.2254470437765121,-0.071723498404026
2024-12-07 20:26:43.088021000,1.58202099609375,0.0466102883219718,-0.2230207920074463,-0.0807694122195243
2024-12-07 20:26:43.098034000,1.592033935546875,0.0778270661830902,-0.2164790034294128,-0.0946258381009101
2024-12-07 20:26:43.108048000,1.6020478515625,0.1010534390807151,-0.2098142355680465,-0.0962036177515983
2024-12-07 20:26:43.118062000,1.61206201171875,0.1087462455034256,-0.2092725485563278,-0.0803785845637321
2024-12-07 20:26:43.128075000,1.622074951171875,0.1061737909913063,-0.1763095259666443,-0.0575189143419265
2024-12-07 20:26:43.138089000,1.6320888671875,0.0966886803507804,-0.1126490533351898,-0.0612334907054901
2024-12-07 20:26:43.148103000,1.64210302734375,0.0743561685085296,-0.0616444125771522,-0.0818373411893844
2024-12-07 20:26:43.158115800,1.65211572265625,0.0352356620132923,-0.0541223101317882,-0.0957811176776886
2024-12-07 20:26:43.168130000,1.662130126953125,-0.0153266247361898,-0.0782344043254852,-0.099835991859436
2024-12-07 20:26:43.178144000,1.67214404296875,-0.0597398988902568,-0.1068415492773056,-0.1006527841091156
2024-12-07 20:26:43.188157000,1.682156982421875,-0.0824587792158126,-0.1308144629001617,-0.1080417782068252
2024-12-07 20:26:43.198171000,1.6921708984375,-0.0825922042131424,-0.1656456887722015,-0.1146743819117546
2024-12-07 20:26:43.208184800,1.702184814453125,-0.0677325055003166,-0.21023990213871,-0.1169605553150177
2024-12-07 20:26:43.218197800,1.71219775390625,-0.0593161210417747,-0.2515524625778198,-0.1258781552314758
2024-12-07 20:26:43.228212000,1.7222119140625,-0.0606628693640232,-0.2824228405952453,-0.1443739533424377
2024-12-07 20:26:43.238226000,1.732225830078125,-0.0665010511875152,-0.2814313471317291,-0.168996199965477
2024-12-07 20:26:43.248239000,1.742239013671875,-0.0625583529472351,-0.2587277889251709,-0.1957875490188598
2024-12-07 20:26:43.258252800,1.752252685546875,-0.0599617697298526,-0.2497052699327469,-0.2021836638450622
2024-12-07 20:26:43.268267000,1.76226708984375,-0.0682877898216247,-0.2560172975063324,-0.183509960770607
2024-12-07 20:26:43.278280000,1.772280029296875,-0.0775819569826126,-0.2696654796600342,-0.1588275283575058
2024-12-07 20:26:43.288294000,1.7822939453125,-0.0791374146938324,-0.30637988448143,-0.1632548719644546
2024-12-07 20:26:43.298307800,1.792307861328125,-0.0750462710857391,-0.3434960842132568,-0.1847468465566635
2024-12-07 20:26:43.308321000,1.802321044921875,-0.0655954182147979,-0.3574937283992767,-0.2047986835241317
2024-12-07 20:26:43.318334700,1.812334716796875,-0.0466741845011711,-0.3280048072338104,-0.2116885483264923
2024-12-07 20:26:43.328349000,1.822348876953125,-0.0200476981699466,-0.2804109752178192,-0.210643857717514
2024-12-07 20:26:43.338361900,1.83236181640625,0.0040403283201158,-0.2354549467563629,-0.1992718875408172
2024-12-07 20:26:43.348376000,1.8423759765625,0.0218571424484252,-0.2104630470275879,-0.174164667725563
2024-12-07 20:26:43.358389800,1.8523896484375,0.0269222073256969,-0.157286912202835,-0.13947594165802
2024-12-07 20:26:43.368403000,1.86240283203125,0.0276750735938549,-0.0644885748624801,-0.0710582062602043
2024-12-07 20:26:43.378417000,1.8724169921875,0.0362840071320533,0.0075552584603428,-0.0185270905494689
2024-12-07 20:26:43.388430800,1.882430908203125,0.0337235443294048,0.0446685552597045,-0.0186518281698226
2024-12-07 20:26:43.398444000,1.892444091796875,0.0276691131293773,0.0432717278599739,-0.0536268539726734
2024-12-07 20:26:43.408458000,1.9024580078125,0.0164600070565938,0.0271401889622211,-0.0917230024933815
2024-12-07 20:26:43.418472000,1.912471923828125,0.0008347078692167,0.0303932409733533,-0.127480998635292
2024-12-07 20:26:43.428484900,1.92248486328125,-0.0182415023446083,0.0491894967854023,-0.1502064317464828
2024-12-07 20:26:43.438499000,1.9324990234375,-0.0359800197184085,0.0709115713834762,-0.1601032763719558
2024-12-07 20:26:43.448513000,1.942512939453125,-0.053205233067274,0.0749005004763603,-0.1613900661468505
2024-12-07 20:26:43.458526000,1.95252587890625,-0.0659580454230308,0.0481650196015834,-0.1643698811531067
2024-12-07 20:26:43.468540000,1.962539794921875,-0.0816910862922668,0.0269717685878276,-0.1795677840709686
2024-12-07 20:26:43.478554000,1.97255419921875,-0.0918736830353736,-0.0011365653481334,-0.1775027811527252
2024-12-07 20:26:43.488566800,1.98256689453125,-0.1011333689093589,-0.0451244339346885,-0.1672730445861816
2024-12-07 20:26:43.498581000,1.9925810546875,-0.11284701526165,-0.0909379944205284,-0.1701655089855194
2024-12-07 20:26:43.508595000,2.002594970703125,-0.1312053799629211,-0.1404611617326736,-0.1811569035053253
2024-12-07 20:26:43.518608000,2.01260791015625,-0.1416353732347488,-0.1891839653253555,-0.1868123859167099
2024-12-07 20:26:43.528621800,2.022621826171875,-0.1304133385419845,-0.2375783324241638,-0.1841796487569809
2024-12-07 20:26:43.538635000,2.032635009765625,-0.1180538684129715,-0.2656219601631164,-0.1675061285495758
2024-12-07 20:26:43.548649000,2.04264892578125,-0.1096756234765052,-0.2762859463691711,-0.1489951759576797
2024-12-07 20:26:43.558663000,2.052662841796875,-0.1039729937911033,-0.2917975187301636,-0.1369510293006897
2024-12-07 20:26:43.568676000,2.062676025390625,-0.1072923839092254,-0.3030818402767181,-0.1278007328510284
2024-12-07 20:26:43.578689800,2.072689697265625,-0.1098783165216445,-0.3162139058113098,-0.1297520399093628
2024-12-07 20:26:43.588703700,2.082703857421875,-0.1108980104327201,-0.3198767602443695,-0.1485960334539413
2024-12-07 20:26:43.598717000,2.092717041015625,-0.1137137711048126,-0.3124651908874511,-0.1721639335155487
2024-12-07 20:26:43.608731100,2.102731201171875,-0.1180462390184402,-0.2904665172100067,-0.1884520351886749
2024-12-07 20:26:43.618744800,2.112744873046875,-0.117549829185009,-0.2635296881198883,-0.1854863464832306
2024-12-07 20:26:43.628758000,2.122758056640625,-0.119724616408348,-0.2452722340822219,-0.1485751569271087
2024-12-07 20:26:43.638772000,2.13277197265625,-0.1216016113758087,-0.2059003263711929,-0.1121945083141326
2024-12-07 20:26:43.648786000,2.142785888671875,-0.1199669241905212,-0.149843156337738,-0.0788985937833786
2024-12-07 20:26:43.658798800,2.152798828125,-0.1169045567512512,-0.109161764383316,-0.0468812696635723
2024-12-07 20:26:43.668813000,2.16281298828125,-0.1065537258982658,-0.0899442657828331,-0.0316820293664932
2024-12-07 20:26:43.678826800,2.17282666015625,-0.0916368290781974,-0.0606207326054573,-0.0433666482567787
2024-12-07 20:26:43.688840000,2.18283984375,-0.1009621173143386,-0.0300187859684228,-0.0592575185000896
2024-12-07 20:26:43.698854000,2.19285400390625,-0.1184247285127639,0.0052633043378591,-0.0531572811305522
2024-12-07 20:26:43.708868000,2.2028681640625,-0.1424918919801712,0.0487064346671104,-0.0443403683602809
2024-12-07 20:26:43.718880800,2.212880859375,-0.1713933199644088,0.0863550081849098,-0.0495636276900768
2024-12-07 20:26:43.728895000,2.22289501953125,-0.2010406851768493,0.1243542060256004,-0.0718541145324707
2024-12-07 20:26:43.738909000,2.232908935546875,-0.2317208349704742,0.1751537322998047,-0.1056778579950332
2024-12-07 20:26:43.748921900,2.242921875,-0.2529293298721313,0.2210802435874939,-0.1154592782258987
2024-12-07 20:26:43.758935800,2.252935791015625,-0.2726034224033355,0.2717777788639068,-0.086276888847351
2024-12-07 20:26:43.768950000,2.262949951171875,-0.2766627371311188,0.3174773156642914,-0.0269532166421413
2024-12-07 20:26:43.778963000,2.272962890625,-0.2619897723197937,0.3371759355068207,0.0276050996035337
2024-12-07 20:26:43.788977000,2.282976806640625,-0.2380599379539489,0.3259049355983734,0.0696164071559906
2024-12-07 20:26:43.798990800,2.292990966796875,-0.2155218720436096,0.2983348369598388,0.1172339916229248
2024-12-07 20:26:43.809003500,2.30300341796875,-0.2046733945608139,0.3154471814632416,0.1677079796791076
2024-12-07 20:26:43.819017700,2.313017822265625,-0.1884089410305023,0.3638887405395508,0.1952392011880874
2024-12-07 20:26:43.829031700,2.32303173828125,-0.1794341951608657,0.3946227133274078,0.1814596503973007
2024-12-07 20:26:43.839044600,2.333044677734375,-0.1700918227434158,0.3882835805416107,0.146920308470726
2024-12-07 20:26:43.849058600,2.34305859375,-0.1622540652751922,0.3546469807624817,0.1045636311173439
2024-12-07 20:26:43.859072800,2.35307275390625,-0.1574401408433914,0.3126012682914734,0.0581412687897682
2024-12-07 20:26:43.869085700,2.363085693359375,-0.1567770838737487,0.274737000465393,0.0120730698108673
2024-12-07 20:26:43.879099600,2.373099609375,-0.1677700877189636,0.2559819519519806,-0.0278762094676494
2024-12-07 20:26:43.889113600,2.383113525390625,-0.1852208226919174,0.2602207660675049,-0.0583260059356689
2024-12-07 20:26:43.899126800,2.393126708984375,-0.2011204361915588,0.2665686905384063,-0.0757998004555702
2024-12-07 20:26:43.909140500,2.403140380859375,-0.2055843770503997,0.2371282875537872,-0.0654973611235618
2024-12-07 20:26:43.919154700,2.41315478515625,-0.1900946348905563,0.191811665892601,-0.0400149077177047
2024-12-07 20:26:43.929168000,2.42316796875,-0.175301656126976,0.1238096207380294,0.012586778961122
2024-12-07 20:26:43.939181600,2.433181640625,-0.1507462412118911,0.0871578678488731,0.0626459494233131
2024-12-07 20:26:43.949195500,2.443195556640625,-0.1219852566719055,0.1038814112544059,0.0922275632619857
2024-12-07 20:26:43.959208700,2.453208740234375,-0.1112186312675476,0.1645780354738235,0.108772188425064
2024-12-07 20:26:43.969223000,2.463222900390625,-0.1081105545163154,0.2215714305639267,0.1378440260887146
2024-12-07 20:26:43.979236600,2.473236572265625,-0.1032891720533371,0.2621265649795532,0.186899185180664
2024-12-07 20:26:43.989249800,2.483249755859375,-0.1048192381858825,0.3028839826583862,0.2505610585212707
2024-12-07 20:26:43.999263700,2.493263671875,-0.0928517878055572,0.351243257522583,0.3248912096023559
2024-12-07 20:26:44.009277700,2.503277587890625,-0.0755248591303825,0.3854453563690185,0.3979827463626861
2024-12-07 20:26:44.019290600,2.51329052734375,-0.0539162345230579,0.4039319455623626,0.4492725431919098
2024-12-07 20:26:44.029304800,2.523304931640625,-0.0357475616037845,0.4063947200775146,0.4750518500804901
2024-12-07 20:26:44.039318500,2.533318603515625,-0.0160920992493629,0.3951199650764465,0.4869953393936157
2024-12-07 20:26:44.049331700,2.543331787109375,0.0090398397296667,0.3837737441062927,0.4939289093017578
2024-12-07 20:26:44.059345700,2.553345703125,0.023819051682949,0.3647316098213196,0.5063427090644836
2024-12-07 20:26:44.069359900,2.56335986328125,0.0428929105401039,0.3467684686183929,0.5217523574829102
2024-12-07 20:26:44.079372500,2.57337255859375,0.0675053149461746,0.3216513991355896,0.5438896417617798
2024-12-07 20:26:44.089386800,2.58338671875,0.0927899405360221,0.2763710916042328,0.5759302973747253
2024-12-07 20:26:44.099400700,2.593400634765625,0.1151439845561981,0.2206524461507797,0.619207501411438
2024-12-07 20:26:44.109413600,2.60341357421875,0.1246266588568687,0.1461714506149292,0.6647220253944397
2024-12-07 20:26:44.119427600,2.613427490234375,0.1435364335775375,0.0786166563630104,0.7116775512695312
2024-12-07 20:26:44.129441800,2.62344189453125,0.1649511456489563,0.0312023684382438,0.7517799139022827
2024-12-07 20:26:44.139454700,2.633454833984375,0.1940451115369796,0.000690265384037,0.797479510307312
2024-12-07 20:26:44.149468700,2.64346875,0.2363716065883636,-0.0156614035367965,0.8531887531280518
2024-12-07 20:26:44.159482600,2.653482666015625,0.2952868342399597,0.0006677695782855,0.9105700254440308
2024-12-07 20:26:44.169495600,2.66349560546875,0.3520140945911407,0.0619305446743965,0.960590660572052
2024-12-07 20:26:44.179509800,2.673509765625,0.4150641560554504,0.1518029123544693,0.9926263689994812
2024-12-07 20:26:44.189523700,2.683523681640625,0.475104808807373,0.2553423643112182,0.994896650314331
2024-12-07 20:26:44.199536600,2.69353662109375,0.5310500860214233,0.3594591617584228,0.9724547266960144
2024-12-07 20:26:44.209550600,2.703550537109375,0.596345841884613,0.4433810114860534,0.9404230117797852
2024-12-07 20:26:44.219564800,2.713564697265625,0.6538996696472168,0.493814080953598,0.903373956680298
2024-12-07 20:26:44.229577700,2.72357763671875,0.6906934380531311,0.4923414587974548,0.8569586277008057
2024-12-07 20:26:44.239591700,2.733591796875,0.7228108644485474,0.4893723130226135,0.805513322353363
2024-12-07 20:26:44.249605600,2.743605712890625,0.7629702687263489,0.4901719391345978,0.7256606817245483
2024-12-07 20:26:44.259618800,2.753618896484375,0.8017266988754272,0.4897170662879944,0.605774998664856
2024-12-07 20:26:44.269632500,2.763632568359375,0.8316519260406494,0.4796067774295807,0.4626775085926056
2024-12-07 20:26:44.279646700,2.773646728515625,0.8557508587837219,0.413935899734497,0.3155117630958557
2024-12-07 20:26:44.289659600,2.78365966796875,0.8563225269317627,0.3228217363357544,0.1839284896850586
2024-12-07 20:26:44.299673900,2.793673828125,0.8098509311676025,0.2099926620721817,0.0874072834849357
2024-12-07 20:26:44.309687600,2.8036875,0.7271823883056641,0.0535884462296962,0.0197454169392585
2024-12-07 20:26:44.319700700,2.81370068359375,0.6467267274856567,-0.1490983515977859,-0.0279185082763433
2024-12-07 20:26:44.329714700,2.823714599609375,0.5868717432022095,-0.3510635197162628,-0.0445164404809474
2024-12-07 20:26:44.339728600,2.833728759765625,0.5533087253570557,-0.4934036135673523,-0.0384883731603622
2024-12-07 20:26:44.349741800,2.843741943359375,0.5304327011108398,-0.5621020793914795,-0.0422176085412502
2024-12-07 20:26:44.359755800,2.853755859375,0.5014968514442444,-0.5777041912078857,-0.0704761445522308
2024-12-07 20:26:44.369769500,2.86376953125,0.4587606489658355,-0.5814636945724487,-0.1357111185789108
2024-12-07 20:26:44.379782700,2.87378271484375,0.4231818914413452,-0.6319668292999268,-0.2167524397373199
2024-12-07 20:26:44.389796600,2.883796630859375,0.3985606431961059,-0.7289651036262512,-0.2913192510604858
2024-12-07 20:26:44.399810800,2.893810791015625,0.3747956752777099,-0.8530111908912659,-0.3478224873542785
2024-12-07 20:26:44.409823700,2.90382373046875,0.3429200351238251,-0.9481197595596312,-0.38266521692276
2024-12-07 20:26:44.419837700,2.913837646484375,0.3092150688171386,-0.9921860694885254,-0.4013376832008362
2024-12-07 20:26:44.429850600,2.9238505859375,0.2875466346740722,-1.0145015716552734,-0.412878006696701
2024-12-07 20:26:44.439864600,2.933864501953125,0.280989408493042,-0.9819864630699158,-0.4169611632823944
2024-12-07 20:26:44.449878800,2.943878662109375,0.2777354121208191,-0.8939957022666931,-0.4062521755695343
2024-12-07 20:26:44.459892700,2.953892822265625,0.2853088974952698,-0.7794012427330017,-0.3771403431892395
2024-12-07 20:26:44.469905700,2.96390576171875,0.2916349172592163,-0.6731640696525574,-0.3272497057914734
2024-12-07 20:26:44.479919600,2.973919677734375,0.2985026836395263,-0.5860363841056824,-0.2622571289539337
2024-12-07 20:26:44.489932800,2.983932861328125,0.3023680746555328,-0.5097131133079529,-0.1902576684951782
2024-12-07 20:26:44.499946500,2.993946533203125,0.3182391822338104,-0.4739876091480255,-0.1322992891073227
2024-12-07 20:26:44.509960700,3.003960693359375,0.3462792336940765,-0.4943085610866546,-0.0917472392320633
2024-12-07 20:26:44.519974700,3.013974609375,0.3828604221343994,-0.5367057919502258,-0.0728960484266281
2024-12-07 20:26:44.529987600,3.023987548828125,0.4462788701057434,-0.6248539090156555,-0.081402763724327
2024-12-07 20:26:44.540001500,3.03400146484375,0.5021160244941711,-0.6516327857971191,-0.0899738818407058
2024-12-07 20:26:44.550014700,3.0440146484375,0.5200023055076599,-0.6289703845977783,-0.1016300693154335
2024-12-07 20:26:44.560028700,3.054028564453125,0.5074540376663208,-0.5965719819068909,-0.1171168833971023
2024-12-07 20:26:44.570042600,3.064042724609375,0.4615826308727264,-0.5281530022621155,-0.1234011426568031
2024-12-07 20:26:44.580055800,3.074055908203125,0.4060868620872497,-0.4666299819946289,-0.1097588390111923
2024-12-07 20:26:44.590069800,3.08406982421875,0.3605323135852813,-0.4567911028861999,-0.0942336097359657
2024-12-07 20:26:44.600083700,3.094083740234375,0.3107708692550659,-0.4793805480003357,-0.0972757339477539
2024-12-07 20:26:44.610096600,3.1040966796875,0.260663777589798,-0.5201599597930908,-0.1376236379146576
2024-12-07 20:26:44.620110800,3.11411083984375,0.2176502794027328,-0.5840787887573242,-0.2079926133155822
2024-12-07 20:26:44.630124500,3.12412451171875,0.1820956766605377,-0.6541730165481567,-0.2994593977928161
2024-12-07 20:26:44.640137700,3.1341376953125,0.1449618935585022,-0.7219043374061584,-0.3973739743232727
2024-12-07 20:26:44.650151700,3.144151611328125,0.113509714603424,-0.7928676605224609,-0.4820900559425354
2024-12-07 20:26:44.660166000,3.154165771484375,0.0908829644322395,-0.818050742149353,-0.539878249168396
2024-12-07 20:26:44.670178600,3.164178466796875,0.0745602548122406,-0.810251772403717,-0.5911480188369751
2024-12-07 20:26:44.680192800,3.17419287109375,0.0813731551170349,-0.8194236755371094,-0.6330893039703369
2024-12-07 20:26:44.690206700,3.184206787109375,0.0953993275761604,-0.7879178524017334,-0.6294271349906921
2024-12-07 20:26:44.700219600,3.1942197265625,0.1064218804240226,-0.7191667556762695,-0.5817709565162659
2024-12-07 20:26:44.710233600,3.204233642578125,0.1085117235779762,-0.6521643400192261,-0.522382915019989
2024-12-07 20:26:44.720247800,3.214247802734375,0.1055833101272583,-0.615409791469574,-0.4675571918487549
2024-12-07 20:26:44.730260700,3.2242607421875,0.0893503949046135,-0.576278805732727,-0.4127908945083618
2024-12-07 20:26:44.740274700,3.234274658203125,0.0602982304990291,-0.5538493990898132,-0.3734011352062225
2024-12-07 20:26:44.750288600,3.24428857421875,0.0212011523544788,-0.5314282774925232,-0.3603683710098266
2024-12-07 20:26:44.760301600,3.254301513671875,-0.0249871145933866,-0.483625590801239,-0.371256947517395
2024-12-07 20:26:44.770315500,3.2643154296875,-0.0771497786045074,-0.4704097807407379,-0.4057164788246155
2024-12-07 20:26:44.780329700,3.274329833984375,-0.1313200742006302,-0.4770700931549072,-0.4456484317779541
2024-12-07 20:26:44.790342700,3.2843427734375,-0.175319954752922,-0.4839285016059875,-0.4389233589172363
2024-12-07 20:26:44.800356400,3.2943564453125,-0.2045212537050247,-0.5162811279296875,-0.4120243787765503
2024-12-07 20:26:44.810370300,3.304370361328125,-0.2273262441158294,-0.5598695278167725,-0.4038312435150146
2024-12-07 20:26:44.820383200,3.31438330078125,-0.2390294969081878,-0.5560790300369263,-0.4238574206829071
2024-12-07 20:26:44.830397400,3.3243974609375,-0.2443911284208297,-0.5710837841033936,-0.4246287047863006
2024-12-07 20:26:44.840411100,3.3344111328125,-0.2657432556152344,-0.6187346577644348,-0.4190778732299804
2024-12-07 20:26:44.850424300,3.34442431640625,-0.3297866284847259,-0.653582751750946,-0.4827369749546051
2024-12-07 20:26:44.860438300,3.354438232421875,-0.4021636247634887,-0.5317087769508362,-0.5648480653762817
2024-12-07 20:26:44.870452500,3.364452392578125,-0.4354383647441864,-0.303449273109436,-0.5747592449188232
2024-12-07 20:26:44.880465200,3.374465087890625,-0.3860713541507721,-0.0665754675865173,-0.4822223484516144
2024-12-07 20:26:44.890479400,3.384479248046875,-0.2773016393184662,0.0087886722758412,-0.3307364881038666
2024-12-07 20:26:44.900493300,3.394493408203125,-0.1524350643157959,-0.1350454539060592,-0.1950284391641616
2024-12-07 20:26:44.910506200,3.40450634765625,-0.0690665990114212,-0.2238257974386215,-0.0663762465119361
2024-12-07 20:26:44.920520200,3.414520263671875,-0.0820564329624176,-0.0244224034249782,-0.0058716251514852
2024-12-07 20:26:44.930534400,3.424534423828125,-0.2033122181892395,0.1907055526971817,-0.0746548548340797
2024-12-07 20:26:44.940547300,3.43454736328125,-0.3352630734443664,0.2066594958305359,-0.2047129869461059
2024-12-07 20:26:44.950561300,3.444561279296875,-0.4213437438011169,0.172230377793312,-0.2486517876386642
2024-12-07 20:26:44.960575200,3.4545751953125,-0.4682449400424957,0.1953966915607452,-0.2260426133871078
2024-12-07 20:26:44.970588200,3.464588134765625,-0.5101059675216675,0.3348407447338104,-0.1861215382814407
2024-12-07 20:26:44.980602400,3.474602294921875,-0.5519232153892517,0.4958567917346954,-0.1517353355884552
2024-12-07 20:26:44.990616300,3.4846162109375,-0.5798851251602173,0.6236373782157898,-0.1470935195684433
2024-12-07 20:26:45.000629200,3.494629150390625,-0.5898192524909973,0.7152131199836731,-0.1736907660961151
2024-12-07 20:26:45.010643200,3.504643310546875,-0.5756822228431702,0.8036239147186279,-0.2209633737802505
2024-12-07 20:26:45.020657400,3.514657470703125,-0.5354458689689636,0.8885417580604553,-0.2682622075080871
2024-12-07 20:26:45.030670300,3.52467041015625,-0.4660159349441528,0.92166668176651,-0.2837942838668823
2024-12-07 20:26:45.040684300,3.534684326171875,-0.3768985867500305,0.8763822913169861,-0.2731259167194366
2024-12-07 20:26:45.050698200,3.5446982421875,-0.2794629335403442,0.776828408241272,-0.2401673942804336
2024-12-07 20:26:45.060711400,3.55471142578125,-0.1784587949514389,0.6454858779907227,-0.1899731904268264
2024-12-07 20:26:45.070725000,3.56472509765625,-0.0869677439332008,0.5558817982673645,-0.122084267437458
2024-12-07 20:26:45.080739300,3.5747392578125,-0.0352614074945449,0.5323082804679871,-0.0422352440655231
2024-12-07 20:26:45.090752300,3.584752197265625,-0.0257324185222387,0.519520103931427,0.0104526365175843
2024-12-07 20:26:45.100766500,3.594766357421875,-0.0372077114880085,0.5058295726776123,0.0374198071658611
2024-12-07 20:26:45.110780200,3.6047802734375,-0.0502610616385936,0.4859326183795929,0.0545506924390792
2024-12-07 20:26:45.120793300,3.61479345703125,-0.0608399324119091,0.469332605600357,0.0677234902977943
2024-12-07 20:26:45.130807300,3.624807373046875,-0.0674851909279823,0.4689567983150482,0.0797896385192871
2024-12-07 20:26:45.140821200,3.6348212890625,-0.0621202550828456,0.4705562889575958,0.0832067281007766
2024-12-07 20:26:45.150834400,3.64483447265625,-0.0483794324100017,0.4707213044166565,0.0519807524979114
2024-12-07 20:26:45.160848400,3.654848388671875,-0.0340159386396408,0.4652019143104553,-0.0085017625242471
2024-12-07 20:26:45.170862000,3.664862060546875,-0.0173860061913728,0.4193372428417206,-0.0539350435137748
2024-12-07 20:26:45.180875300,3.674875244140625,-0.0062031261622905,0.3159416019916534,-0.0687928199768066
2024-12-07 20:26:45.190889500,3.684889404296875,-0.0096564544364809,0.1906000226736068,-0.074291206896305
2024-12-07 20:26:45.200903400,3.6949033203125,-0.0388929024338722,0.0887703448534011,-0.0557425580918788
2024-12-07 20:26:45.210916400,3.704916259765625,-0.0894660875201225,0.0403367727994918,0.0161446146667003
2024-12-07 20:26:45.220930300,3.714930419921875,-0.1476239264011383,0.0253730006515979,0.0941408798098564
2024-12-07 20:26:45.230944500,3.724944580078125,-0.1925931870937347,0.0304217506200075,0.1431128531694412
2024-12-07 20:26:45.240957200,3.734957275390625,-0.2312633395195007,0.0252517573535442,0.1485172063112259
2024-12-07 20:26:45.250971400,3.744971435546875,-0.2538353204727173,-0.0306571349501609,0.1099245250225067
2024-12-07 20:26:45.260985300,3.7549853515625,-0.262076199054718,-0.1124555990099906,0.031690701842308
2024-12-07 20:26:45.270998300,3.764998291015625,-0.2508969008922577,-0.1780581623315811,-0.0775721445679664
2024-12-07 20:26:45.281012200,3.77501220703125,-0.2246011048555374,-0.2003064751625061,-0.2131890952587127
2024-12-07 20:26:45.291026400,3.7850263671875,-0.1781398355960846,-0.1793541312217712,-0.3539450168609619
2024-12-07 20:26:45.301039000,3.7950390625,-0.1145411506295204,-0.1251774430274963,-0.4540159702301025
2024-12-07 20:26:45.311053300,3.80505322265625,-0.0372610837221145,-0.0581761263310909,-0.4946978986263275
2024-12-07 20:26:45.321067300,3.8150673828125,0.0390544608235359,-0.0076346565037965,-0.4990353584289551
2024-12-07 20:26:45.331080200,3.825080078125,0.1082184463739395,-0.0024491397198289,-0.4731850624084472
2024-12-07 20:26:45.341094100,3.83509423828125,0.1508833467960357,-0.0148402964696288,-0.4561336636543274
2024-12-07 20:26:45.351108400,3.8451083984375,0.1592176705598831,-0.0090354466810822,-0.4301595687866211
2024-12-07 20:26:45.361121500,3.85512158203125,0.1499879509210586,0.0094511527568101,-0.3998227119445801
2024-12-07 20:26:45.371135200,3.86513525390625,0.1296922117471695,0.02073067240417,-0.359387457370758
2024-12-07 20:26:45.381149200,3.875149169921875,0.094050332903862,0.0113795138895511,-0.2929264307022095
2024-12-07 20:26:45.391162400,3.885162353515625,0.0634004548192024,-0.0011061128461733,-0.2149889022111892
2024-12-07 20:26:45.401176300,3.89517626953125,0.0400194972753524,-0.0206712912768125,-0.1178101673722267
2024-12-07 20:26:45.411190300,3.905190185546875,0.0140158953145146,0.0204514190554618,-0.0253321565687656
2024-12-07 20:26:45.421203500,3.915203369140625,-0.0019513531588017,0.0495216883718967,0.0215884782373905
2024-12-07 20:26:45.431217200,3.925217041015625,-0.0202115681022405,0.0540077164769172,0.0340886786580085
2024-12-07 20:26:45.441231400,3.9352314453125,-0.0450388900935649,0.0776411369442939,0.0149075267836451
2024-12-07 20:26:45.451244300,3.945244384765625,-0.0812891721725463,0.1114592626690864,-0.0262855533510446
2024-12-07 20:26:45.461258500,3.955258544921875,-0.1223290190100669,0.1470116674900055,-0.0876727476716041
2024-12-07 20:26:45.471272200,3.965272216796875,-0.1542348712682724,0.166243702173233,-0.1755162179470062
2024-12-07 20:26:45.481285400,3.975285400390625,-0.1667695790529251,0.1663766056299209,-0.2851998507976532
2024-12-07 20:26:45.491299300,3.98529931640625,-0.166166290640831,0.1457415670156479,-0.3859933912754059
2024-12-07 20:26:45.501313300,3.995313232421875,-0.1592271476984024,0.1182942241430282,-0.4517532289028168
2024-12-07 20:26:45.511326200,4.005326171875,-0.1593347489833831,0.0866619944572448,-0.4640077650547027
2024-12-07 20:26:45.521340400,4.01534033203125,-0.1549549102783203,0.0478261820971965,-0.4265400171279907
2024-12-07 20:26:45.531354000,4.02535400390625,-0.1440265625715255,-0.0019846300128847,-0.3600716292858124
2024-12-07 20:26:45.541367300,4.0353671875,-0.1336823105812072,-0.0613512881100177,-0.2881170213222503
2024-12-07 20:26:45.551381200,4.04538134765625,-0.121475376188755,-0.1328495591878891,-0.2289096713066101
2024-12-07 20:26:45.561395500,4.0553955078125,-0.1209414154291153,-0.1656003147363662,-0.1957445293664932
2024-12-07 20:26:45.571408400,4.065408447265625,-0.1270177513360977,-0.1470583528280258,-0.1831782013177871
2024-12-07 20:26:45.581422300,4.07542236328125,-0.1357824802398681,-0.1076907142996788,-0.2052448838949203
2024-12-07 20:26:45.591436300,4.085436279296875,-0.1486550569534301,-0.0586871840059757,-0.2574845850467682
2024-12-07 20:26:45.601449200,4.09544921875,-0.1735635995864868,-0.0291697699576616,-0.3013718724250793
2024-12-07 20:26:45.611463400,4.10546337890625,-0.1932940036058426,-0.008672947064042,-0.3207233548164367
2024-12-07 20:26:45.621477400,4.115477294921875,-0.2078127562999725,0.0299149267375469,-0.3370043337345123
2024-12-07 20:26:45.631490300,4.125490234375,-0.2221586853265762,0.0960074067115783,-0.3532733917236328
2024-12-07 20:26:45.641504300,4.135504150390625,-0.232386827468872,0.1586127281188964,-0.3516856133937835
2024-12-07 20:26:45.651518500,4.1455185546875,-0.2509026825428009,0.2310057431459427,-0.3272071480751037
2024-12-07 20:26:45.661531100,4.15553125,-0.2738141119480133,0.3137491047382355,-0.2810385823249817
2024-12-07 20:26:45.671545300,4.16554541015625,-0.295884758234024,0.387145847082138,-0.221140906214714
2024-12-07 20:26:45.681559300,4.175559326171875,-0.3117513358592987,0.4321045577526092,-0.1531234979629516
2024-12-07 20:26:45.691572200,4.185572265625,-0.3255665302276611,0.4425594806671142,-0.0917870625853538
2024-12-07 20:26:45.701586200,4.195586181640625,-0.3321024775505066,0.4435648322105407,-0.0553659349679946
2024-12-07 20:26:45.711600400,4.205600341796875,-0.3282776772975921,0.4575982987880707,-0.049458310008049
2024-12-07 20:26:45.721613300,4.21561328125,-0.3163925409317016,0.4742774069309234,-0.0525763407349586
2024-12-07 20:26:45.731627300,4.225627197265625,-0.3048242926597595,0.4730869233608246,-0.053993884474039
2024-12-07 20:26:45.741641200,4.23564111328125,-0.2935647070407867,0.4587399363517761,-0.0564261488616466
2024-12-07 20:26:45.751654400,4.245654296875,-0.2940602600574493,0.4426880180835724,-0.0537445731461048
2024-12-07 20:26:45.761668000,4.255668212890625,-0.2949050068855285,0.4298345446586609,-0.0473892055451869
2024-12-07 20:26:45.771682300,4.265682373046875,-0.2995436787605285,0.4259892404079437,-0.0468453839421272
2024-12-07 20:26:45.781695500,4.275695556640625,-0.2941323816776275,0.4334958791732788,-0.0542385838925838
2024-12-07 20:26:45.791709200,4.285709228515625,-0.2817191481590271,0.4580355882644653,-0.0794278904795646
2024-12-07 20:26:45.801723400,4.295723388671875,-0.2675095796585083,0.4778782725334167,-0.106985218822956
2024-12-07 20:26:45.811737600,4.305737548828125,-0.2540279328823089,0.5016441345214844,-0.1359354704618454
2024-12-07 20:26:45.821751300,4.315751220703125,-0.2550572454929352,0.5245243906974792,-0.1615617275238037
2024-12-07 20:26:45.831764500,4.325764404296875,-0.2695553004741668,0.529463529586792,-0.1668508648872375
2024-12-07 20:26:45.841778400,4.3357783203125,-0.2796023488044739,0.5012292265892029,-0.1634723842144012
2024-12-07 20:26:45.851792600,4.345792724609375,-0.2768698632717132,0.4597605764865875,-0.1616003513336181
2024-12-07 20:26:45.861806300,4.355806396484375,-0.2601145803928375,0.4384206533432007,-0.1697165966033935
2024-12-07 20:26:45.871819500,4.365819580078125,-0.2314506769180297,0.45916947722435,-0.1897580176591873
2024-12-07 20:26:45.881833500,4.37583349609375,-0.2019628286361694,0.4803794026374817,-0.1916967928409576
2024-12-07 20:26:45.891846400,4.385846435546875,-0.1678849011659622,0.4820014536380768,-0.1625011265277862
2024-12-07 20:26:45.901860400,4.3958603515625,-0.1318371593952179,0.462927907705307,-0.1099987849593162
2024-12-07 20:26:45.911874600,4.40587451171875,-0.0920130163431167,0.4186515212059021,-0.0548201501369476
2024-12-07 20:26:45.921887500,4.415887451171875,-0.063577115535736,0.3649595081806183,-0.0246803574264049
2024-12-07 20:26:45.931901400,4.4259013671875,-0.050730787217617,0.3215395510196686,-0.0277376323938369
2024-12-07 20:26:45.941915400,4.435915283203125,-0.0485392659902572,0.2904612421989441,-0.0409362614154815
2024-12-07 20:26:45.951929600,4.4459296875,-0.0550882518291473,0.2514712512493133,-0.0488559678196907
2024-12-07 20:26:45.961942500,4.455942626953125,-0.0700453594326973,0.211444467306137,-0.0642282664775848
2024-12-07 20:26:45.971956500,4.46595654296875,-0.0792665258049964,0.1760984659194946,-0.0768073797225952
2024-12-07 20:26:45.981969400,4.475969482421875,-0.0824655145406723,0.1847143173217773,-0.0772542580962181
2024-12-07 20:26:45.991983400,4.4859833984375,-0.0911981984972953,0.2494711279869079,-0.0524174571037292
2024-12-07 20:26:46.001997600,4.49599755859375,-0.1062282770872116,0.3533533215522766,0.008686906658113
2024-12-07 20:26:46.012010500,4.506010498046875,-0.1277104020118713,0.4514733850955963,0.093908242881298
2024-12-07 20:26:46.022024400,4.5160244140625,-0.1742323786020279,0.5156912207603455,0.1801171600818634
2024-12-07 20:26:46.032038400,4.526038330078125,-0.2299412041902542,0.5295929908752441,0.2530290484428406
2024-12-07 20:26:46.042051600,4.536051513671875,-0.2517296075820923,0.4957439303398132,0.2791536152362823
2024-12-07 20:26:46.052065300,4.546065185546875,-0.2344273328781128,0.4365597665309906,0.242506518959999
2024-12-07 20:26:46.062079500,4.55607958984375,-0.1888686269521713,0.3636232614517212,0.1671875268220901
2024-12-07 20:26:46.072092400,4.566092529296875,-0.1356415152549743,0.2748288214206695,0.0912314727902412
2024-12-07 20:26:46.082106400,4.5761064453125,-0.0926271900534629,0.200386568903923,0.0445401333272457
2024-12-07 20:26:46.092120300,4.586120361328125,-0.0590654797852039,0.1598087698221206,0.0391965620219707
2024-12-07 20:26:46.102133500,4.596133544921875,-0.0303123965859413,0.1405242830514907,0.07186209410429
2024-12-07 20:26:46.112147500,4.6061474609375,-0.0124992746859788,0.1347902864217758,0.1162324994802475
2024-12-07 20:26:46.122161400,4.616161376953125,-0.0052248509600758,0.1363508999347686,0.1444012820720672
2024-12-07 20:26:46.132174600,4.626174560546875,-0.0143799418583512,0.1373084485530853,0.1489048302173614
2024-12-07 20:26:46.142188500,4.6361884765625,-0.0350442081689834,0.1360999047756195,0.1555954962968826
2024-12-07 20:26:46.152202200,4.6462021484375,-0.0589534938335418,0.1136432886123657,0.1751434206962585
2024-12-07 20:26:46.162215400,4.65621533203125,-0.0794718191027641,0.0909009575843811,0.191213458776474
2024-12-07 20:26:46.172229600,4.666229736328125,-0.0829887092113494,0.0815305933356285,0.1981101632118225
2024-12-07 20:26:46.182243600,4.67624365234375,-0.0753880515694618,0.086695522069931,0.1988739520311355
2024-12-07 20:26:46.192256500,4.686256591796875,-0.0681735500693321,0.0844001471996307,0.1990864723920822
2024-12-07 20:26:46.202270500,4.6962705078125,-0.0496850870549678,0.0886622667312622,0.2002255022525787
2024-12-07 20:26:46.212284700,4.70628466796875,-0.0262981764972209,0.1110681742429733,0.2101091891527176
2024-12-07 20:26:46.222297300,4.71629736328125,-0.0014309114776551,0.1388396173715591,0.2267936319112777
2024-12-07 20:26:46.232311600,4.7263115234375,0.0196818988770246,0.1504413485527038,0.2470278888940811
2024-12-07 20:26:46.242325500,4.736325439453125,0.0413533709943294,0.1558928489685058,0.2728312611579895
2024-12-07 20:26:46.252338400,4.74633837890625,0.0613509081304073,0.1815073639154434,0.2873877286911011
2024-12-07 20:26:46.262352400,4.756352294921875,0.0607985705137252,0.2097959965467453,0.2956025004386902
2024-12-07 20:26:46.272366600,4.76636669921875,0.0700385794043541,0.2299793511629104,0.3215130567550659
2024-12-07 20:26:46.282379300,4.776379150390625,0.0807982832193374,0.2199970334768295,0.3661707937717438
2024-12-07 20:26:46.292393500,4.7863935546875,0.0893123820424079,0.1847090423107147,0.3708806037902832
2024-12-07 20:26:46.302407400,4.796407470703125,0.0961372628808021,0.1479933708906173,0.3411988615989685
2024-12-07 20:26:46.312420400,4.80642041015625,0.0862705186009407,0.0971008986234664,0.3173659741878509
2024-12-07 20:26:46.322434300,4.816434326171875,0.0836968347430229,0.0608555413782596,0.3078126907348633
2024-12-07 20:26:46.332448500,4.826448486328125,0.0835365951061248,0.0560870245099067,0.308224081993103
2024-12-07 20:26:46.342461700,4.836461669921875,0.0819477513432502,0.0522238425910472,0.3332000076770782
2024-12-07 20:26:46.352475400,4.846475341796875,0.0769733116030693,0.0374988354742527,0.3544735312461853
2024-12-07 20:26:46.362489300,4.8564892578125,0.0692791789770126,-0.0027162274345755,0.347126692533493
2024-12-07 20:26:46.372502500,4.86650244140625,0.0470404960215091,-0.055396918207407,0.3317719101905823
2024-12-07 20:26:46.382516500,4.8765166015625,-0.0014767060056328,-0.0810149312019348,0.3137556314468384
2024-12-07 20:26:46.392530400,4.886530517578125,-0.0449616350233554,-0.0729330778121948,0.2745440304279327
2024-12-07 20:26:46.402543600,4.896543701171875,-0.0758495107293129,-0.0456436648964881,0.2115365862846374
2024-12-07 20:26:46.412557300,4.906557373046875,-0.0954000502824783,-0.017809959128499,0.1417330652475357
2024-12-07 20:26:46.422571500,4.916571533203125,-0.1352252215147018,-0.0262708216905593,0.080836147069931
2024-12-07 20:26:46.432584400,4.92658447265625,-0.169481560587883,-0.057541586458683,0.0432737059891223
2024-12-07 20:26:46.442598700,4.9365986328125,-0.1899753808975219,-0.0910188555717468,0.0158127844333648
2024-12-07 20:26:46.452612400,4.9466123046875,-0.2033880352973938,-0.0969848856329917,-0.0195629484951496
2024-12-07 20:26:46.462625500,4.95662548828125,-0.2152761220932006,-0.0962748825550079,-0.0551877915859222
2024-12-07 20:26:46.472639500,4.966639404296875,-0.2113380134105682,-0.0964081734418869,-0.0810969322919845
2024-12-07 20:26:46.482653400,4.9766533203125,-0.1876425445079803,-0.1187688708305358,-0.0882275477051734
2024-12-07 20:26:46.492666400,4.986666259765625,-0.1463665813207626,-0.14225834608078,-0.0738872364163398
2024-12-07 20:26:46.502680600,4.9966806640625,-0.0942415967583656,-0.1482200920581817,-0.0588680729269981
2024-12-07 20:26:46.512694300,5.0066943359375,-0.049271784722805,-0.1386502385139465,-0.0404846370220184
2024-12-07 20:26:46.522707500,5.01670751953125,-0.0130767654627561,-0.1278793513774871,-0.0137715302407741
2024-12-07 20:26:46.532721400,5.026721435546875,0.0270078144967556,-0.1257045567035675,0.0319868475198745
2024-12-07 20:26:46.542735600,5.036735595703125,0.0691014677286148,-0.1189619675278663,0.0953908562660217
2024-12-07 20:26:46.552748500,5.04674853515625,0.1167916506528854,-0.1021302938461303,0.1661256998777389
2024-12-07 20:26:46.562762500,5.056762451171875,0.1691723018884658,-0.0813970491290092,0.238593503832817
2024-12-07 20:26:46.572776400,5.0667763671875,0.2194486707448959,-0.0741027817130088,0.3102985620498657
2024-12-07 20:26:46.582789400,5.076789306640625,0.2734980583190918,-0.0657931864261627,0.3784549832344055
2024-12-07 20:26:46.592803600,5.086803466796875,0.3330775797367096,-0.0465309880673885,0.4508940577507019
2024-12-07 20:26:46.602817500,5.096817626953125,0.3980075716972351,-0.0242677610367536,0.5348280668258667
2024-12-07 20:26:46.612830500,5.10683056640625,0.4671603739261627,-0.0099891843274235,0.6360154747962952
2024-12-07 20:26:46.622844400,5.116844482421875,0.5344139933586121,0.0015217963373288,0.7538688778877258
2024-12-07 20:26:46.632858600,5.126858642578125,0.6092724800109863,0.0275456793606281,0.8790004253387451
2024-12-07 20:26:46.642871300,5.136871337890625,0.6962704658508301,0.0707685202360153,0.9986037611961364
2024-12-07 20:26:46.652885500,5.146885498046875,0.7914060354232788,0.1231753379106521,1.0986764430999756
2024-12-07 20:26:46.662899500,5.1568994140625,0.8833742737770081,0.18364879488945,1.170531153678894
2024-12-07 20:26:46.672912400,5.166912353515625,0.9608188271522522,0.2713832259178161,1.2153788805007937
2024-12-07 20:26:46.682926300,5.17692626953125,1.0194107294082642,0.3944620192050934,1.2378196716308594
2024-12-07 20:26:46.692940500,5.1869404296875,1.0582009553909302,0.5336105823516846,1.24900221824646
2024-12-07 20:26:46.702953500,5.196953369140625,1.0731815099716189,0.6852216720581055,1.2615641355514526
2024-12-07 20:26:46.712967400,5.206967529296875,1.0671123266220093,0.8371379375457764,1.2664989233016968
2024-12-07 20:26:46.722981400,5.2169814453125,1.0594466924667358,0.9536632299423218,1.2386462688446045
2024-12-07 20:26:46.732994600,5.22699462890625,1.045623540878296,1.0423208475112915,1.1851872205734253
2024-12-07 20:26:46.743008300,5.23700830078125,1.0253398418426514,1.12441086769104,1.1173913478851318
2024-12-07 20:26:46.753022500,5.2470224609375,1.0404223203659058,1.112041473388672,1.0304605960845947
2024-12-07 20:26:46.763035600,5.25703564453125,1.0597041845321655,0.9946046471595764,0.8964098691940308
2024-12-07 20:26:46.773049300,5.26704931640625,1.0591901540756226,0.8490659594535828,0.7458862066268921
2024-12-07 20:26:46.783063300,5.277063232421875,0.992891490459442,0.6626569628715515,0.6101858615875244
2024-12-07 20:26:46.793076500,5.287076416015625,0.9001708626747131,0.4381394386291504,0.4956728518009186
2024-12-07 20:26:46.803090000,5.29708984375,0.8184352517127991,0.1948610097169876,0.4060990512371063
2024-12-07 20:26:46.813103900,5.307103759765625,0.7966142892837524,-0.0068638348020613,0.3246285617351532
2024-12-07 20:26:46.823117000,5.317116943359375,0.829079270362854,-0.171448528766632,0.2450780868530273
2024-12-07 20:26:46.833130800,5.327130859375,0.8785142302513123,-0.2833528816699981,0.169580340385437
2024-12-07 20:26:46.843145000,5.33714501953125,0.8934372663497925,-0.3874654471874237,0.0899539589881897
2024-12-07 20:26:46.853158000,5.347157958984375,0.8578478097915649,-0.5108538269996643,-0.0011356216855347
2024-12-07 20:26:46.863171800,5.357171875,0.7869941592216492,-0.6489595174789429,-0.1057222187519073
2024-12-07 20:26:46.873185800,5.367185791015625,0.7003210783004761,-0.7988020181655884,-0.1990246921777725
2024-12-07 20:26:46.883199000,5.377198974609375,0.6129384636878967,-0.9485662579536438,-0.2689409255981445
2024-12-07 20:26:46.893213000,5.387212890625,0.5408861637115479,-1.0747867822647097,-0.3045517802238464
2024-12-07 20:26:46.903227000,5.397226806640625,0.4881010055541992,-1.1348868608474731,-0.3178265690803528
2024-12-07 20:26:46.913240000,5.407239990234375,0.4466832876205444,-1.1024551391601562,-0.3118686079978943
2024-12-07 20:26:46.923254000,5.41725390625,0.4188151657581329,-1.021704077720642,-0.2764352560043335
2024-12-07 20:26:46.933267700,5.427267822265625,0.4163225889205932,-0.9457195401191713,-0.2213263809680938
2024-12-07 20:26:46.943281000,5.437281005859375,0.4288849830627441,-0.8638691306114197,-0.1669824421405792
2024-12-07 20:26:46.953295000,5.447295166015625,0.4442557394504547,-0.771299421787262,-0.1241937577724456
2024-12-07 20:26:46.963308800,5.457308837890625,0.4639724493026733,-0.6644906997680664,-0.0863552913069725
2024-12-07 20:26:46.973322000,5.467322021484375,0.4897497296333313,-0.5591411590576172,-0.046022929251194
2024-12-07 20:26:46.983336000,5.4773359375,0.485183984041214,-0.4689156413078308,0.0023624449968338
2024-12-07 20:26:46.993350100,5.48735009765625,0.4770141541957855,-0.4099748730659485,0.046588696539402
2024-12-07 20:26:47.003362800,5.49736279296875,0.4773933887481689,-0.3620227873325348,0.0905159413814544
2024-12-07 20:26:47.013377000,5.507376953125,0.4953027963638305,-0.3391450643539428,0.1164416521787643
2024-12-07 20:26:47.023391000,5.517390869140625,0.5297731757164001,-0.3838441073894501,0.1199066936969757
2024-12-07 20:26:47.033404000,5.52740380859375,0.5807859301567078,-0.3971032798290252,0.1369980573654174
2024-12-07 20:26:47.043417900,5.53741796875,0.6232582926750183,-0.3615633845329284,0.1687842160463333
2024-12-07 20:26:47.053432000,5.54743212890625,0.6240475177764893,-0.3175046145915985,0.1932846456766128
2024-12-07 20:26:47.063444700,5.55744482421875,0.5813671350479126,-0.3328912854194641,0.2072361558675766
2024-12-07 20:26:47.073459000,5.567458984375,0.5012412667274475,-0.4298690855503082,0.2188743948936462
2024-12-07 20:26:47.083473000,5.577472900390625,0.3912292718887329,-0.6018148064613342,0.2048344761133194
2024-12-07 20:26:47.093485800,5.58748583984375,0.2886753380298614,-0.7711467146873474,0.1669918596744537
2024-12-07 20:26:47.103499800,5.597499755859375,0.22389717400074,-0.8216426372528076,0.1410185843706131
2024-12-07 20:26:47.113514000,5.607513916015625,0.1766653656959533,-0.8342736959457397,0.0910575240850448
2024-12-07 20:26:47.123527000,5.61752685546875,0.1376953423023224,-0.8185599446296692,0.0094441510736942
2024-12-07 20:26:47.133540900,5.627540771484375,0.1094538941979408,-0.803733766078949,-0.1125332117080688
2024-12-07 20:26:47.143554800,5.637554931640625,0.0827021747827529,-0.7677265405654907,-0.2532985806465149
2024-12-07 20:26:47.153568000,5.647568115234375,0.0442037917673587,-0.7318843603134155,-0.3878766298294067
2024-12-07 20:26:47.163582000,5.65758203125,-0.00940085016191,-0.6761345267295837,-0.4879691302776336
2024-12-07 20:26:47.173596000,5.667595947265625,-0.0796235874295234,-0.5976992845535278,-0.5431355237960815
2024-12-07 20:26:47.183609000,5.677609130859375,-0.1607842296361923,-0.5474593043327332,-0.5773622393608093
2024-12-07 20:26:47.193622800,5.687622802734375,-0.2308270335197448,-0.5067921876907349,-0.5954593420028687
2024-12-07 20:26:47.203637000,5.697636962890625,-0.2914104759693146,-0.4752801358699798,-0.5990127921104431
2024-12-07 20:26:47.213650000,5.70764990234375,-0.3454348444938659,-0.4532009065151214,-0.5979681015014648
2024-12-07 20:26:47.223664000,5.7176640625,-0.3942719101905823,-0.4024045765399933,-0.596383810043335
2024-12-07 20:26:47.233677800,5.727677734375,-0.4312739074230194,-0.3068682849407196,-0.5838455557823181
2024-12-07 20:26:47.243691000,5.73769091796875,-0.4597721397876739,-0.1956528127193451,-0.5822330117225647
2024-12-07 20:26:47.253705000,5.747705078125,-0.4790713191032409,-0.0843064710497856,-0.6143423318862915
2024-12-07 20:26:47.263719000,5.757718994140625,-0.503888726234436,0.0193871669471263,-0.6416764855384827
2024-12-07 20:26:47.273731800,5.76773193359375,-0.5416306257247925,0.0210094228386878,-0.6325985789299011
2024-12-07 20:26:47.283746000,5.77774609375,-0.5817008018493652,-0.0325542017817497,-0.6280091404914856
2024-12-07 20:26:47.293759700,5.787759765625,-0.6234174966812134,0.0065183378756046,-0.6223457455635071
2024-12-07 20:26:47.303773000,5.79777294921875,-0.6309023499488831,0.0811859145760536,-0.6164811849594116
2024-12-07 20:26:47.313787000,5.807786865234375,-0.573077917098999,0.08292256295681,-0.5875622034072876
2024-12-07 20:26:47.323801000,5.817801025390625,-0.4370526969432831,0.0232525784522295,-0.4962511956691742
2024-12-07 20:26:47.333814000,5.82781396484375,-0.219848170876503,-0.0948829650878906,-0.3404063284397125
2024-12-07 20:26:47.343828000,5.837827880859375,-0.0066597294062376,-0.204235553741455,-0.2248102128505706
2024-12-07 20:26:47.353842000,5.847842041015625,0.1014048382639885,-0.2527203261852264,-0.1866269260644912
2024-12-07 20:26:47.363854800,5.857854736328125,0.0832511335611343,-0.3375265598297119,-0.190228059887886
2024-12-07 20:26:47.373869000,5.867869140625,0.0197625011205673,-0.4517248570919037,-0.2206593006849289
2024-12-07 20:26:47.383883000,5.877883056640625,-0.0398646108806133,-0.5385713577270508,-0.2791876196861267
2024-12-07 20:26:47.393896000,5.88789599609375,-0.1032252013683319,-0.5636812448501587,-0.3554860949516296
2024-12-07 20:26:47.403910000,5.897909912109375,-0.1778416633605957,-0.5392491221427917,-0.4227303862571716
2024-12-07 20:26:47.413924000,5.907924072265625,-0.2676040232181549,-0.490152895450592,-0.4435403645038605
2024-12-07 20:26:47.423936800,5.917936767578125,-0.3559551835060119,-0.4098148941993713,-0.4008653461933136
2024-12-07 20:26:47.433951000,5.927950927734375,-0.4263408184051513,-0.3161993026733398,-0.3513221442699432
2024-12-07 20:26:47.443965000,5.93796484375,-0.4700078964233398,-0.1960534304380417,-0.3386074006557464
2024-12-07 20:26:47.453977900,5.947977783203125,-0.4850183129310608,-0.0861683189868927,-0.3557889461517334
2024-12-07 20:26:47.463991800,5.95799169921875,-0.473014622926712,-0.0072599174454808,-0.3844102025032043
2024-12-07 20:26:47.474006000,5.968006103515625,-0.4377621412277221,0.0697197243571281,-0.4083693027496338
2024-12-07 20:26:47.484019000,5.97801904296875,-0.3759123384952545,0.139656201004982,-0.4203154444694519
2024-12-07 20:26:47.494033000,5.988032958984375,-0.2989035546779632,0.1713593602180481,-0.3975787162780761
2024-12-07 20:26:47.504046800,5.998046875,-0.2245097458362579,0.1592768728733062,-0.3334048092365265
2024-12-07 20:26:47.514060000,6.00806005859375,-0.1646285206079483,0.1124262511730194,-0.2664645314216614
2024-12-07 20:26:47.524073700,6.01807373046875,-0.1216685399413108,0.0744154825806617,-0.2231322526931762
2024-12-07 20:26:47.534088000,6.028087890625,-0.1061724126338958,0.0792042985558509,-0.2201836258172989
2024-12-07 20:26:47.544101000,6.03810107421875,-0.1197034046053886,0.0927139818668365,-0.2435653805732727
2024-12-07 20:26:47.554114800,6.04811474609375,-0.1371029317378997,0.1119551509618759,-0.250389814376831
2024-12-07 20:26:47.564128800,6.058128662109375,-0.1346179395914077,0.1299067288637161,-0.2255963236093521
2024-12-07 20:26:47.574142000,6.068141845703125,-0.1132172644138336,0.1161416843533515,-0.2052740007638931
2024-12-07 20:26:47.584156200,6.07815625,-0.0896520242094993,0.0929447561502456,-0.194538801908493
2024-12-07 20:26:47.594169900,6.088169921875,-0.075163684785366,0.1168839335441589,-0.2008069306612014
2024-12-07 20:26:47.604183000,6.09818310546875,-0.0795389860868454,0.1772695034742355,-0.2341076433658599
2024-12-07 20:26:47.614197000,6.108197021484375,-0.0956568196415901,0.2220310866832733,-0.2395986020565033
2024-12-07 20:26:47.624211000,6.1182109375,-0.1115630790591239,0.2339601814746856,-0.2191537618637085
2024-12-07 20:26:47.634223900,6.128223876953125,-0.1136563345789909,0.2101296335458755,-0.2114478498697281
2024-12-07 20:26:47.644238000,6.138238037109375,-0.1117487177252769,0.1813957244157791,-0.2087724506855011
2024-12-07 20:26:47.654251800,6.148251708984375,-0.1090167760848999,0.1665663868188858,-0.2172965854406356
2024-12-07 20:26:47.664265000,6.158264892578125,-0.1137588024139404,0.1619253009557724,-0.2442416548728943
2024-12-07 20:26:47.674279000,6.16827880859375,-0.1290099769830703,0.1661550402641296,-0.2695591449737549
2024-12-07 20:26:47.684293000,6.178293212890625,-0.1336968839168548,0.1958652734756469,-0.2754862904548645
2024-12-07 20:26:47.694305800,6.188305908203125,-0.1317072808742523,0.2199412733316421,-0.2693837285041809
2024-12-07 20:26:47.704320000,6.198320068359375,-0.1216312199831008,0.2323774397373199,-0.2437427937984466
2024-12-07 20:26:47.714334000,6.208333984375,-0.1122824698686599,0.2428800910711288,-0.2164842188358307
2024-12-07 20:26:47.724347000,6.218346923828125,-0.0962382555007934,0.2565218806266784,-0.2007968723773956
2024-12-07 20:26:47.734360800,6.22836083984375,-0.0760341361165046,0.2768871486186981,-0.2091880142688751
2024-12-07 20:26:47.744375000,6.238375,-0.0611662417650222,0.305135577917099,-0.2153020948171615
2024-12-07 20:26:47.754388000,6.248387939453125,-0.0515102483332157,0.3344849944114685,-0.2058661431074142
2024-12-07 20:26:47.764402000,6.25840185546875,-0.0463029667735099,0.3441141843795776,-0.1852519512176513
2024-12-07 20:26:47.774416000,6.268415771484375,-0.0422620624303817,0.3562267124652862,-0.1565892398357391
2024-12-07 20:26:47.784428800,6.2784287109375,-0.0336054563522338,0.3805594742298126,-0.1246307864785194
2024-12-07 20:26:47.794443000,6.288443115234375,-0.0180491171777248,0.3860953152179718,-0.0937981903553009
2024-12-07 20:26:47.804457000,6.29845703125,-0.0128935035318136,0.3778754770755768,-0.0746852159500122
2024-12-07 20:26:47.814470000,6.308469970703125,-0.0273735634982585,0.3729602396488189,-0.066791646182537
2024-12-07 20:26:47.824483800,6.31848388671875,-0.0529838502407074,0.367611825466156,-0.0703730657696724
2024-12-07 20:26:47.834498000,6.328498046875,-0.0688322857022285,0.3451128304004669,-0.0787753015756607
2024-12-07 20:26:47.844511000,6.338510986328125,-0.0745365098118782,0.2555331587791443,-0.0820701643824577
2024-12-07 20:26:47.854525000,6.34852490234375,-0.0795580893754959,0.1402932107448578,-0.06930723041296
2024-12-07 20:26:47.864539000,6.358538818359375,-0.0904224514961242,0.0403261296451091,-0.0629686415195465
2024-12-07 20:26:47.874552000,6.368552001953125,-0.110536091029644,-0.0287460125982761,-0.0591661855578422
2024-12-07 20:26:47.884565800,6.378565673828125,-0.1367631703615188,-0.0878980159759521,-0.075939305126667
2024-12-07 20:26:47.894580000,6.388580078125,-0.161446139216423,-0.1532555669546127,-0.090444840490818
2024-12-07 20:26:47.904593000,6.398593017578125,-0.1727888137102127,-0.1951691955327987,-0.098818615078926
2024-12-07 20:26:47.914606800,6.40860693359375,-0.1686933785676956,-0.2163300365209579,-0.1180973574519157
2024-12-07 20:26:47.924620800,6.418620849609375,-0.1487516164779663,-0.2420985251665115,-0.1425912380218505
2024-12-07 20:26:47.934634000,6.428634033203125,-0.1242358833551406,-0.2512407004833221,-0.1774138212203979
2024-12-07 20:26:47.944648000,6.43864794921875,-0.0930883511900901,-0.2075816094875335,-0.2330565750598907
2024-12-07 20:26:47.954662000,6.448661865234375,-0.0696779265999794,-0.10095976293087,-0.2826282978057861
2024-12-07 20:26:47.964675000,6.458675048828125,-0.0475739538669586,-0.0241163782775402,-0.2901709079742431
2024-12-07 20:26:47.974689000,6.46868896484375,-0.0175451207906007,-0.0010662579443305,-0.279173195362091
2024-12-07 20:26:47.984702700,6.47870263671875,0.0386941842734813,0.0037061267066746,-0.2832867205142975
2024-12-07 20:26:47.994716000,6.4887158203125,0.1034996584057807,-0.0235576797276735,-0.2947260439395904
2024-12-07 20:26:48.004730000,6.498730224609375,0.1577655524015426,-0.0446291416883468,-0.2674667239189148
2024-12-07 20:26:48.014744000,6.508744140625,0.1868157386779785,-0.0103066284209489,-0.1982871443033218
2024-12-07 20:26:48.024757000,6.518757080078125,0.1900791823863983,0.0697999224066734,-0.1166229099035263
2024-12-07 20:26:48.034771000,6.52877099609375,0.1757754832506179,0.1664192229509353,-0.0402870811522007
2024-12-07 20:26:48.044785000,6.538784912109375,0.1543572843074798,0.2437600940465927,0.0384077318012714
2024-12-07 20:26:48.054797800,6.5487978515625,0.1293170154094696,0.2862460613250732,0.0837965607643127
2024-12-07 20:26:48.064812000,6.55881201171875,0.1036824956536293,0.2939407229423523,0.0911428928375244
2024-12-07 20:26:48.074826000,6.568825927734375,0.0700692981481552,0.2627888917922973,0.0627053454518318
2024-12-07 20:26:48.084839000,6.5788388671875,0.030508043244481,0.2281553000211715,0.0117263179272413
2024-12-07 20:26:48.094852900,6.588852783203125,-0.0170672461390495,0.2108989804983139,-0.034950315952301
2024-12-07 20:26:48.104867000,6.5988671875,-0.0680494681000709,0.2045007348060608,-0.0801393687725067
2024-12-07 20:26:48.114879700,6.608879638671875,-0.1208991929888725,0.2276290357112884,-0.1462754160165786
2024-12-07 20:26:48.124894000,6.61889404296875,-0.1754684299230575,0.2702028453350067,-0.2276919782161712
2024-12-07 20:26:48.134908000,6.628907958984375,-0.2169308364391327,0.2884714901447296,-0.29184490442276
2024-12-07 20:26:48.144920800,6.6389208984375,-0.259722501039505,0.2851840853691101,-0.3244388103485107
2024-12-07 20:26:48.154934800,6.648934814453125,-0.3035799562931061,0.2627374529838562,-0.3261518776416778
2024-12-07 20:26:48.164949000,6.658948974609375,-0.3457090258598327,0.210933119058609,-0.3142997324466705
2024-12-07 20:26:48.174962000,6.6689619140625,-0.3676863014698028,0.1230214908719062,-0.3032243251800537
2024-12-07 20:26:48.184976000,6.678975830078125,-0.3789658546447754,0.0291107054799795,-0.2988202571868896
2024-12-07 20:26:48.194989800,6.68898974609375,-0.3740337193012237,-0.0620731003582477,-0.3045188188552856
2024-12-07 20:26:48.205003000,6.6990029296875,-0.354773998260498,-0.1395076960325241,-0.3243300914764404
2024-12-07 20:26:48.215017000,6.709016845703125,-0.3264950513839721,-0.1870316267013549,-0.3526560068130493
2024-12-07 20:26:48.225031000,6.719031005859375,-0.2979840338230133,-0.1874907612800598,-0.378571480512619
2024-12-07 20:26:48.235044000,6.729044189453125,-0.2751419842243194,-0.1435089409351349,-0.3875504434108734
2024-12-07 20:26:48.245057800,6.739057861328125,-0.2566055953502655,-0.091597281396389,-0.3622064888477325
2024-12-07 20:26:48.255072000,6.749072021484375,-0.2449130415916443,-0.0442123860120773,-0.3212722539901733
2024-12-07 20:26:48.265085000,6.7590849609375,-0.2371866852045059,-0.0073840646073222,-0.2850644290447235
2024-12-07 20:26:48.275099100,6.76909912109375,-0.231616660952568,0.0271027963608503,-0.283057153224945
2024-12-07 20:26:48.285112800,6.77911279296875,-0.2294832020998001,0.0586066581308841,-0.3092906177043915
2024-12-07 20:26:48.295126000,6.7891259765625,-0.2301944643259048,0.0814647749066352,-0.3430253267288208
2024-12-07 20:26:48.305140000,6.799139892578125,-0.2249781340360641,0.1052792966365814,-0.3630943894386291
2024-12-07 20:26:48.315154000,6.80915380859375,-0.2104409635066986,0.1274624019861221,-0.3511751294136047
2024-12-07 20:26:48.325166800,6.819166748046875,-0.1945890337228775,0.1612738966941833,-0.2921762466430664
2024-12-07 20:26:48.335181000,6.82918115234375,-0.1795199960470199,0.2450254559516906,-0.1915395706892013
2024-12-07 20:26:48.345194800,6.83919482421875,-0.1530617624521255,0.3618548810482025,-0.0754044353961944
2024-12-07 20:26:48.355208000,6.8492080078125,-0.1367628127336502,0.4612008333206177,0.0068523674272
2024-12-07 20:26:48.365222000,6.859221923828125,-0.1381854712963104,0.5178049802780151,0.0424918532371521
2024-12-07 20:26:48.375236000,6.869236083984375,-0.1474230289459228,0.5268160700798035,0.0500046759843826
2024-12-07 20:26:48.385249000,6.8792490234375,-0.1629178375005722,0.503372311592102,0.0437822043895721
2024-12-07 20:26:48.395263000,6.889262939453125,-0.1724020689725875,0.4671534597873688,0.0287680476903915
2024-12-07 20:26:48.405277000,6.89927685546875,-0.1830672323703766,0.4304697513580322,-0.0013427161611616
2024-12-07 20:26:48.415289900,6.909289794921875,-0.1910249143838882,0.4014965891838074,-0.0366759859025478
2024-12-07 20:26:48.425304000,6.919303955078125,-0.195356011390686,0.358256995677948,-0.0756247192621231
2024-12-07 20:26:48.435318000,6.929318115234375,-0.1961450278759002,0.3021870255470276,-0.1232371479272842
2024-12-07 20:26:48.445331000,6.9393310546875,-0.1985093802213668,0.2557004690170288,-0.1652844697237014
2024-12-07 20:26:48.455345000,6.949344970703125,-0.1980268955230713,0.2342735975980758,-0.1909735351800918
2024-12-07 20:26:48.465358800,6.95935888671875,-0.2019779682159423,0.2440047860145568,-0.1996213495731353
2024-12-07 20:26:48.475371800,6.969371826171875,-0.2062553167343139,0.2622004747390747,-0.1927069276571273
2024-12-07 20:26:48.485386000,6.979385986328125,-0.2116530090570449,0.2857734560966491,-0.1769636571407318
2024-12-07 20:26:48.495400000,6.98939990234375,-0.221455693244934,0.3020541667938232,-0.1659154295921325
2024-12-07 20:26:48.505412900,6.999412841796875,-0.2364128082990646,0.3038493990898132,-0.1644746512174606
2024-12-07 20:26:48.515426800,7.0094267578125,-0.2541673481464386,0.2979278862476349,-0.163885623216629
2024-12-07 20:26:48.525441000,7.01944091796875,-0.2674985826015472,0.2889258861541748,-0.1674742400646209
2024-12-07 20:26:48.535454000,7.029453857421875,-0.2724883556365967,0.3031079173088074,-0.1744127571582794
2024-12-07 20:26:48.545468000,7.039468017578125,-0.2777185142040252,0.3386898934841156,-0.1867700815200805
2024-12-07 20:26:48.555481900,7.04948193359375,-0.2781430780887604,0.3695577681064605,-0.1842768341302871
2024-12-07 20:26:48.565496000,7.05949609375,-0.2716071307659149,0.3953707218170166,-0.1579070091247558
2024-12-07 20:26:48.575508700,7.0695087890625,-0.2586333453655243,0.4171868860721588,-0.1180724278092384
2024-12-07 20:26:48.585523000,7.07952294921875,-0.2432799488306045,0.4197938442230224,-0.076896496117115
2024-12-07 20:26:48.595536000,7.089535888671875,-0.24012091755867,0.3902000188827514,-0.0472917072474956
2024-12-07 20:26:48.605549800,7.0995498046875,-0.2463673651218414,0.3499324917793274,-0.0202347915619611
2024-12-07 20:26:48.615563800,7.109563720703125,-0.2467631250619888,0.3194763660430908,0.0043503232300281
2024-12-07 20:26:48.625578000,7.119577880859375,-0.2334766089916229,0.2775411903858185,0.0300365108996629
2024-12-07 20:26:48.635591000,7.1295908203125,-0.2087987065315246,0.220837652683258,0.043260496109724
2024-12-07 20:26:48.645604900,7.13960498046875,-0.1750705689191818,0.1484638452529907,0.0250777639448642
2024-12-07 20:26:48.655618000,7.1496181640625,-0.1333783268928527,0.0734427273273468,-0.0227245949208736
2024-12-07 20:26:48.665632000,7.159632080078125,-0.078593373298645,0.0143226776272058,-0.0852223336696624
2024-12-07 20:26:48.675646000,7.16964599609375,-0.0271686613559722,-0.0141957560554146,-0.1554713547229766
2024-12-07 20:26:48.685660000,7.179659912109375,0.0201866030693054,-0.0194009039551019,-0.2094818502664566
2024-12-07 20:26:48.695673000,7.189673095703125,0.0475910380482673,-0.0075740618631243,-0.2334623485803604
2024-12-07 20:26:48.705687000,7.19968701171875,0.0517013594508171,0.023875206708908,-0.2315669804811477
2024-12-07 20:26:48.715701000,7.209700927734375,0.0344010964035987,0.0381340570747852,-0.1952492892742157
2024-12-07 20:26:48.725714000,7.2197138671875,-0.0052927853539586,0.0656314566731453,-0.1245825737714767
2024-12-07 20:26:48.735728000,7.22972802734375,-0.0521681383252143,0.1229472681879997,-0.0234797149896621
2024-12-07 20:26:48.745741800,7.239741943359375,-0.0953430384397506,0.1933806985616684,0.1051477640867233
2024-12-07 20:26:48.755755000,7.249755126953125,-0.1215332895517349,0.2480778396129608,0.2211729139089584
2024-12-07 20:26:48.765769000,7.25976904296875,-0.1293709874153137,0.2896998524665832,0.3053714334964752
2024-12-07 20:26:48.775783000,7.269782958984375,-0.1212759315967559,0.3042140603065491,0.3567824959754944
2024-12-07 20:26:48.785795800,7.2797958984375,-0.0983762070536613,0.2808709144592285,0.3767420947551727
2024-12-07 20:26:48.795810000,7.28981005859375,-0.0721165537834167,0.2388767451047897,0.3770720064640045
2024-12-07 20:26:48.805824000,7.299823974609375,-0.0388321056962013,0.1979205161333084,0.3626315295696258
2024-12-07 20:26:48.815837200,7.309837158203125,-0.0004849708639085,0.1678281873464584,0.3401427268981933
2024-12-07 20:26:48.825851000,7.319850830078125,0.0409652702510356,0.1478994935750961,0.3149358928203583
2024-12-07 20:26:48.835865000,7.329864990234375,0.0726577341556549,0.1245420649647712,0.2933349311351776
2024-12-07 20:26:48.845878000,7.3398779296875,0.0974083542823791,0.0951655358076095,0.2786950170993805
2024-12-07 20:26:48.855892000,7.34989208984375,0.115208625793457,0.0743208155035972,0.2696936726570129
2024-12-07 20:26:48.865906000,7.359906005859375,0.1249997317790985,0.0603541284799575,0.2739685773849487
2024-12-07 20:26:48.875919000,7.369919189453125,0.1288111954927444,0.0395484678447246,0.2890600860118866
2024-12-07 20:26:48.885933000,7.37993310546875,0.1275693625211715,0.0049335015937685,0.3148645162582397
2024-12-07 20:26:48.895947000,7.389947021484375,0.1249052882194519,-0.0351788029074668,0.3420010209083557
2024-12-07 20:26:48.905960200,7.399960205078125,0.1223771497607231,-0.0688608661293983,0.3654738366603851
2024-12-07 20:26:48.915974100,7.40997412109375,0.1271511614322662,-0.0948252454400062,0.3786135017871856
2024-12-07 20:26:48.925987800,7.41998779296875,0.1356974989175796,-0.1163419932126998,0.3868919312953949
2024-12-07 20:26:48.936001000,7.4300009765625,0.1482119858264923,-0.1359249502420425,0.3963170647621155
2024-12-07 20:26:48.946015200,7.44001513671875,0.1659025698900222,-0.1425431817770004,0.4150896966457367
2024-12-07 20:26:48.956029000,7.45002880859375,0.1803213506937027,-0.1368280798196792,0.437132716178894
2024-12-07 20:26:48.966042000,7.4600419921875,0.2042085826396942,-0.1276945024728775,0.45940101146698
2024-12-07 20:26:48.976056000,7.47005615234375,0.2348081767559051,-0.1165328472852706,0.4811870157718658
2024-12-07 20:26:48.986070300,7.4800703125,0.264735460281372,-0.0964720547199249,0.5163143873214722
2024-12-07 20:26:48.996083000,7.4900830078125,0.2994545102119446,-0.0681260526180267,0.5682429671287537
2024-12-07 20:26:49.006097200,7.50009716796875,0.3364940285682678,-0.0258246716111898,0.6339729428291321
2024-12-07 20:26:49.016111000,7.510111083984375,0.3776473999023437,0.0314335934817791,0.7030811905860901
2024-12-07 20:26:49.026124000,7.5201240234375,0.4178049564361572,0.1019660830497741,0.7653557658195496
2024-12-07 20:26:49.036138000,7.530137939453125,0.4559113979339599,0.1808742582798004,0.8214329481124878
2024-12-07 20:26:49.046152200,7.540152099609375,0.4840418398380279,0.2612047791481018,0.8804174661636353
2024-12-07 20:26:49.056164900,7.550164794921875,0.5132086277008057,0.3351341485977173,0.9454332590103148
2024-12-07 20:26:49.066179000,7.560178955078125,0.5526332259178162,0.3991533517837524,1.0309282541275024
2024-12-07 20:26:49.076193000,7.570193115234375,0.5956579446792603,0.4533621966838836,1.1333787441253662
2024-12-07 20:26:49.086206000,7.5802060546875,0.6450393795967102,0.483372300863266,1.234872579574585
2024-12-07 20:26:49.096220000,7.590219970703125,0.698083758354187,0.4928029179573059,1.3145135641098022
2024-12-07 20:26:49.106234000,7.600234130859375,0.751739501953125,0.5157148838043213,1.3525447845458984
2024-12-07 20:26:49.116247000,7.6102470703125,0.8055175542831421,0.5960025787353516,1.3542232513427734
2024-12-07 20:26:49.126261000,7.620260986328125,0.8498203158378601,0.7000477313995361,1.337304711341858
2024-12-07 20:26:49.136275000,7.63027490234375,0.8897225856781006,0.7654495239257812,1.2840023040771484
2024-12-07 20:26:49.146288000,7.6402880859375,0.903073251247406,0.7902920246124268,1.187413454055786
2024-12-07 20:26:49.156302000,7.650302001953125,0.8780316710472107,0.7890013456344604,1.06730055809021
2024-12-07 20:26:49.166316000,7.66031591796875,0.8299597501754761,0.7398313879966736,0.9406129121780396
2024-12-07 20:26:49.176329200,7.6703291015625,0.7856318950653076,0.6463083624839783,0.8194600939750671
2024-12-07 20:26:49.186343000,7.680343017578125,0.7502102851867676,0.5761446952819824,0.7091397047042847
2024-12-07 20:26:49.196357000,7.690357177734375,0.7224288582801819,0.5190646648406982,0.6131010055541992
2024-12-07 20:26:49.206370000,7.7003701171875,0.6848586201667786,0.4363892078399658,0.5384307503700256
2024-12-07 20:26:49.216384000,7.710384033203125,0.6441429853439331,0.3093883097171783,0.4584128260612488
2024-12-07 20:26:49.226398000,7.72039794921875,0.6073753833770752,0.1432121098041534,0.360215961933136
2024-12-07 20:26:49.236411100,7.7304111328125,0.6048284769058228,-0.0500991158187389,0.2515448927879333
2024-12-07 20:26:49.246425000,7.740425048828125,0.6457748413085938,-0.2534687519073486,0.1701922416687011
2024-12-07 20:26:49.256439000,7.75043896484375,0.6957023739814758,-0.4199088811874389,0.1237793043255806
2024-12-07 20:26:49.266452000,7.760451904296875,0.7132701873779297,-0.5075498223304749,0.0817026868462562
2024-12-07 20:26:49.276466200,7.770466064453125,0.688875675201416,-0.5481060743331909,0.0235481914132833
2024-12-07 20:26:49.286480000,7.78047998046875,0.6197418570518494,-0.5743778944015503,-0.0486439801752567
2024-12-07 20:26:49.296493000,7.7904931640625,0.5378278493881226,-0.6191970705986023,-0.1223503574728965
2024-12-07 20:26:49.306507000,7.800507080078125,0.4568794667720794,-0.6898416876792908,-0.1980011910200119
2024-12-07 20:26:49.316521200,7.810521240234375,0.3818389177322387,-0.7707335352897644,-0.2666808664798736
2024-12-07 20:26:49.326534100,7.8205341796875,0.3076539039611816,-0.8430077433586121,-0.3232663869857788
2024-12-07 20:26:49.336548000,7.830548095703125,0.2348838150501251,-0.888733446598053,-0.3712642192840576
2024-12-07 20:26:49.346562000,7.84056201171875,0.1663857102394104,-0.894640326499939,-0.4034168124198913
2024-12-07 20:26:49.356575000,7.850574951171875,0.1197480782866478,-0.8874454498291016,-0.4174539744853973
2024-12-07 20:26:49.366589200,7.860589111328125,0.0970233231782913,-0.876875638961792,-0.3991372585296631
2024-12-07 20:26:49.376603100,7.87060302734375,0.089516669511795,-0.8581565618515015,-0.3486874103546142
2024-12-07 20:26:49.386616000,7.880615966796875,0.0804067999124527,-0.8609323501586914,-0.2720509469509125
2024-12-07 20:26:49.396630000,7.890630126953125,0.0728131309151649,-0.8561648726463318,-0.1789052039384842
2024-12-07 20:26:49.406644200,7.900644287109375,0.0689406245946884,-0.7890095114707947,-0.0836492627859115
2024-12-07 20:26:49.416657000,7.910656982421875,0.061455700546503,-0.6610766053199768,-0.0118627343326807
2024-12-07 20:26:49.426671000,7.920671142578125,0.0680845752358436,-0.5062124729156494,0.0307723432779312
2024-12-07 20:26:49.436685000,7.93068505859375,0.1074117571115493,-0.3291672766208648,0.057853914797306
2024-12-07 20:26:49.446698000,7.940697998046875,0.16971455514431,-0.1717137396335601,0.077039323747158
2024-12-07 20:26:49.456712000,7.9507119140625,0.2628810107707977,-0.1051055863499641,0.0915740057826042
2024-12-07 20:26:49.466726100,7.96072607421875,0.3671685457229614,-0.1044118329882621,0.1033478453755378
2024-12-07 20:26:49.476739000,7.970739013671875,0.4217325448989868,-0.1533595919609069,0.1247858256101608
2024-12-07 20:26:49.486753000,7.9807529296875,0.4024408757686615,-0.2133688628673553,0.1632144302129745
2024-12-07 20:26:49.496767000,7.99076708984375,0.3388634324073791,-0.2164472937583923,0.2073430120944976
2024-12-07 20:26:49.506780200,8.0007802734375,0.2631343007087707,-0.1799255013465881,0.2179690152406692
2024-12-07 20:26:49.516793900,8.0107939453125,0.1931315511465072,-0.1222679540514946,0.1734818667173385
2024-12-07 20:26:49.526808000,8.02080810546875,0.1281192749738693,-0.049167912453413,0.0883611142635345
2024-12-07 20:26:49.536821200,8.0308212890625,0.0704573914408683,-0.0055323028936982,-0.0314240381121635
2024-12-07 20:26:49.546835000,8.0408349609375,0.0140649620443582,-0.0594866126775741,-0.1437646895647049
2024-12-07 20:26:49.556849000,8.050848876953125,-0.0365111008286476,-0.2127257138490677,-0.2237233817577362
2024-12-07 20:26:49.566862000,8.060862060546874,-0.0827124193310737,-0.4105868637561798,-0.2927407920360565
2024-12-07 20:26:49.576876300,8.070876220703125,-0.1228633373975753,-0.5653469562530518,-0.3603938817977905
2024-12-07 20:26:49.586890000,8.080889892578124,-0.1370787620544433,-0.5866828560829163,-0.3995154500007629
2024-12-07 20:26:49.596903200,8.090903076171875,-0.1025266274809837,-0.5605810284614563,-0.4303608536720276
2024-12-07 20:26:49.606917000,8.100917236328126,-0.0558874830603599,-0.5406906604766846,-0.4623733758926391
2024-12-07 20:26:49.616931000,8.11093115234375,-0.0150814531370997,-0.5105675458908081,-0.4877123534679413
2024-12-07 20:26:49.626944000,8.120944091796876,0.0153891034424304,-0.4563435018062591,-0.4824206531047821
2024-12-07 20:26:49.636958200,8.130958251953125,0.0214032381772995,-0.4221558570861816,-0.4601083993911743
2024-12-07 20:26:49.646972000,8.140971923828126,-0.0011974121443927,-0.4148952662944793,-0.4272782802581787
2024-12-07 20:26:49.656985000,8.150985107421874,-0.0401837863028049,-0.4252066612243652,-0.3974446356296539
2024-12-07 20:26:49.666999000,8.1609990234375,-0.0751790553331375,-0.4449532032012939,-0.3827682137489319
2024-12-07 20:26:49.677013200,8.17101318359375,-0.11424171179533,-0.4711210131645202,-0.3921557068824768
2024-12-07 20:26:49.687026000,8.18102587890625,-0.1589841395616531,-0.5288772583007812,-0.4096353650093078
2024-12-07 20:26:49.697040100,8.1910400390625,-0.1876543462276458,-0.5560601353645325,-0.4381867945194244
2024-12-07 20:26:49.707054000,8.20105419921875,-0.220277264714241,-0.4773567616939544,-0.4931434988975525
2024-12-07 20:26:49.717067000,8.21106689453125,-0.2730624675750732,-0.3945516347885132,-0.5383298993110657
2024-12-07 20:26:49.727081000,8.2210810546875,-0.3515679240226745,-0.4286150634288788,-0.6082842350006104
2024-12-07 20:26:49.737095200,8.23109521484375,-0.4687008857727051,-0.5134909152984619,-0.7097393274307251
2024-12-07 20:26:49.747108000,8.241108154296874,-0.5903093814849854,-0.5267246961593628,-0.726547360420227
2024-12-07 20:26:49.757122000,8.2511220703125,-0.6274477243423462,-0.4742987751960754,-0.5836578607559204
2024-12-07 20:26:49.767136000,8.261135986328124,-0.5098507404327393,-0.5077603459358215,-0.3539104163646698
2024-12-07 20:26:49.777149000,8.27114892578125,-0.293503850698471,-0.6536900401115417,-0.16680908203125
2024-12-07 20:26:49.787163100,8.2811630859375,-0.1138288974761962,-0.6914533972740173,-0.1073468104004859
2024-12-07 20:26:49.797176600,8.291176513671875,-0.0256624780595302,-0.5766575932502747,-0.1515965163707733
2024-12-07 20:26:49.807189500,8.301189453125,0.0464876182377338,-0.5286551713943481,-0.1825336664915084
2024-12-07 20:26:49.817203500,8.311203369140625,0.0926669538021087,-0.5995935797691345,-0.1754539757966995
2024-12-07 20:26:49.827217700,8.3212177734375,0.0856111720204353,-0.7163913249969482,-0.1790891885757446
2024-12-07 20:26:49.837230300,8.331230224609374,0.0439244322478771,-0.786622941493988,-0.2301003783941269
2024-12-07 20:26:49.847244500,8.34124462890625,-0.0042380355298519,-0.7634299993515015,-0.304831326007843
2024-12-07 20:26:49.857258500,8.351258544921874,-0.0420777797698974,-0.6525982022285461,-0.3389393091201782
2024-12-07 20:26:49.867271700,8.361271728515625,-0.0643665790557861,-0.4570217728614807,-0.3175804913043976
2024-12-07 20:26:49.877285400,8.371285400390626,-0.0537720881402492,-0.2439454197883606,-0.3007935881614685
2024-12-07 20:26:49.887299600,8.381299560546875,-0.0546836890280246,-0.0812156349420547,-0.2957953810691833
2024-12-07 20:26:49.897312800,8.391312744140626,-0.0772940590977668,-0.0085821496322751,-0.3025738298892975
2024-12-07 20:26:49.907326500,8.401326416015625,-0.0961020961403846,-0.0281105767935514,-0.3142142295837402
2024-12-07 20:26:49.917340400,8.41134033203125,-0.0980960428714752,-0.081972524523735,-0.3330039083957672
2024-12-07 20:26:49.927353600,8.421353515625,-0.110512763261795,-0.1177470311522483,-0.3506215214729309
2024-12-07 20:26:49.937367600,8.431367431640625,-0.1391677409410476,-0.1869450807571411,-0.3623405992984772
2024-12-07 20:26:49.947381500,8.441381591796874,-0.15744049847126,-0.2699232995510101,-0.3666408061981201
2024-12-07 20:26:49.957394700,8.451394775390625,-0.1691817045211792,-0.3113065361976623,-0.3624564111232757
2024-12-07 20:26:49.967408600,8.46140869140625,-0.1824727356433868,-0.2939062416553497,-0.3558723032474518
2024-12-07 20:26:49.977422600,8.471422607421875,-0.2003408968448639,-0.2219363749027252,-0.3421400487422943
2024-12-07 20:26:49.987435500,8.481435546875,-0.2180916666984558,-0.0894081741571426,-0.3177201747894287
2024-12-07 20:26:49.997449700,8.49144970703125,-0.2228609323501587,0.045253187417984,-0.2846780717372894
2024-12-07 20:26:50.007463400,8.50146337890625,-0.2116916328668594,0.0987441167235374,-0.2504753470420837
2024-12-07 20:26:50.017476600,8.5114765625,-0.210070714354515,0.1269009560346603,-0.2422293722629547
2024-12-07 20:26:50.027490600,8.521490478515625,-0.2311248779296875,0.1528835445642471,-0.2417260408401489
2024-12-07 20:26:50.037504500,8.53150439453125,-0.2648999392986297,0.2074137479066848,-0.2524914443492889
2024-12-07 20:26:50.047517400,8.541517333984375,-0.2915632128715515,0.2790128290653229,-0.2495627403259277
2024-12-07 20:26:50.057531600,8.55153173828125,-0.3051702678203583,0.3251787424087524,-0.236758217215538
2024-12-07 20:26:50.067545600,8.561545654296875,-0.2993791997432709,0.3365091681480407,-0.2305037826299667
2024-12-07 20:26:50.077558500,8.57155859375,-0.2727105319499969,0.3325063288211822,-0.2423668950796127
2024-12-07 20:26:50.087572500,8.581572509765625,-0.2391901016235351,0.3017683923244476,-0.250881016254425
2024-12-07 20:26:50.097586700,8.591586669921876,-0.198681965470314,0.2850768566131592,-0.2759600281715393
2024-12-07 20:26:50.107599600,8.601599609375,-0.1762778609991073,0.2972696125507355,-0.3161524534225464
2024-12-07 20:26:50.117613600,8.611613525390625,-0.1673917174339294,0.3161879479885101,-0.3578037917613983
2024-12-07 20:26:50.127627500,8.62162744140625,-0.1669182181358337,0.3291159868240356,-0.3697366118431091
2024-12-07 20:26:50.137640400,8.631640380859375,-0.1686962693929672,0.332630306482315,-0.3369719088077545
2024-12-07 20:26:50.147654700,8.641654541015624,-0.1630277186632156,0.3416909277439117,-0.2910661995410919
2024-12-07 20:26:50.157668600,8.651668701171875,-0.1511645913124084,0.3464419543743133,-0.2491974234580993
2024-12-07 20:26:50.167681500,8.661681640625,-0.1508348882198333,0.335972249507904,-0.2159846127033233
2024-12-07 20:26:50.177695500,8.671695556640625,-0.1678289026021957,0.3506993055343628,-0.1897374540567398
2024-12-07 20:26:50.187709700,8.681709716796876,-0.2046005129814148,0.4119285643100738,-0.1753206849098205
2024-12-07 20:26:50.197722400,8.691722412109375,-0.2539460659027099,0.5087467432022095,-0.1546904146671295
2024-12-07 20:26:50.207736600,8.701736572265625,-0.2950495779514313,0.6014202237129211,-0.1076549962162971
2024-12-07 20:26:50.217750500,8.71175048828125,-0.3222293555736542,0.6418081521987915,-0.0314245074987411
2024-12-07 20:26:50.227763700,8.721763671875,-0.3289461135864258,0.6335036158561707,0.0415426418185234
2024-12-07 20:26:50.237777400,8.73177734375,-0.3054337203502655,0.580047607421875,0.0794057101011276
2024-12-07 20:26:50.247791600,8.74179150390625,-0.2522621154785156,0.4782043099403381,0.0735914930701255
2024-12-07 20:26:50.257804500,8.751804443359376,-0.1921146959066391,0.366744726896286,0.0312953405082225
2024-12-07 20:26:50.267818500,8.761818603515625,-0.1371284127235412,0.2861121892929077,-0.0215806607156991
2024-12-07 20:26:50.277832400,8.77183251953125,-0.0994905084371566,0.2546826899051666,-0.073960892856121
2024-12-07 20:26:50.287845600,8.781845703125,-0.0731300041079521,0.2422342747449875,-0.1150209754705429
2024-12-07 20:26:50.297859600,8.791859619140626,-0.0616172552108764,0.2271789610385894,-0.1446421444416046
2024-12-07 20:26:50.307873500,8.80187353515625,-0.0532900840044021,0.1986762136220932,-0.1542316526174545
2024-12-07 20:26:50.317886500,8.811886474609375,-0.053996205329895,0.1921901702880859,-0.1389264166355133
2024-12-07 20:26:50.327900700,8.821900634765624,-0.0493449941277504,0.2289732247591018,-0.1060454398393631
2024-12-07 20:26:50.337914400,8.831914306640625,-0.030176643282175,0.3106610476970672,-0.0784967839717865
2024-12-07 20:26:50.347927600,8.841927490234376,-0.0109821781516075,0.3778025209903717,-0.0604802370071411
2024-12-07 20:26:50.357941500,8.85194140625,0.0084802024066448,0.4342239797115326,-0.0573835112154483
2024-12-07 20:26:50.367955500,8.86195556640625,0.0328217595815658,0.474014014005661,-0.0583491772413253
2024-12-07 20:26:50.377968600,8.87196875,0.0511707291007041,0.4233603179454803,-0.030440954491496
2024-12-07 20:26:50.387982600,8.881982666015626,0.071980133652687,0.3272548317909241,0.0235200133174657
2024-12-07 20:26:50.397996500,8.89199658203125,0.085177481174469,0.2863689959049225,0.0964863151311874
2024-12-07 20:26:50.408009500,8.902009521484375,0.095808021724224,0.3134589493274688,0.1781753301620483
2024-12-07 20:26:50.418023700,8.912023681640624,0.1211964190006256,0.3663817346096039,0.2032476961612701
2024-12-07 20:26:50.428037600,8.92203759765625,0.1468240171670913,0.4315290451049804,0.1809975206851959
2024-12-07 20:26:50.438050600,8.932050537109374,0.1481105834245681,0.4649122059345245,0.1434872299432754
2024-12-07 20:26:50.448064500,8.942064453125,0.1299299746751785,0.4959186017513275,0.1230719611048698
2024-12-07 20:26:50.458078700,8.95207861328125,0.1118165329098701,0.5618550777435303,0.1216662898659706
2024-12-07 20:26:50.468091400,8.96209130859375,0.0906260311603546,0.6106143593788147,0.1090732663869857
2024-12-07 20:26:50.478105600,8.972105712890626,0.0576066225767135,0.5970134139060974,0.063737004995346
2024-12-07 20:26:50.488119600,8.98211962890625,0.0113951852545142,0.521945595741272,-0.0206835996359586
2024-12-07 20:26:50.498132500,8.992132568359375,-0.0296491645276546,0.396772563457489,-0.1040047034621238
2024-12-07 20:26:50.508146400,9.002146484375,-0.0688889771699905,0.2658997476100921,-0.1560740172863006
2024-12-07 20:26:50.518160600,9.01216064453125,-0.094698466360569,0.1667697727680206,-0.180642545223236
2024-12-07 20:26:50.528173600,9.022173583984374,-0.1045244634151458,0.1163201853632927,-0.2018572837114334
2024-12-07 20:26:50.538187500,9.0321875,-0.1053795516490936,0.1037071645259857,-0.2193810194730758
2024-12-07 20:26:50.548201500,9.042201416015626,-0.1020306274294853,0.1028887778520584,-0.2258703559637069
2024-12-07 20:26:50.558214700,9.052214599609377,-0.1022997722029686,0.0991009473800659,-0.2184789180755615
2024-12-07 20:26:50.568228600,9.062228515625,-0.1001210361719131,0.1001201421022415,-0.1997283995151519
2024-12-07 20:26:50.578242600,9.07224267578125,-0.0960853546857833,0.1094070225954055,-0.1916747540235519
2024-12-07 20:26:50.588255700,9.082255859375,-0.0964717790484428,0.1445511579513549,-0.1989528983831405
2024-12-07 20:26:50.598269400,9.09226953125,-0.0959773212671279,0.1986088752746582,-0.231360524892807
2024-12-07 20:26:50.608283400,9.102283447265624,-0.1007209420204162,0.2593283951282501,-0.2789117991924286
2024-12-07 20:26:50.618296600,9.112296630859374,-0.1111344471573829,0.283709317445755,-0.3056741058826446
2024-12-07 20:26:50.628310500,9.122310546875,-0.1317486464977264,0.2743240892887115,-0.2844953238964081
2024-12-07 20:26:50.638324500,9.132324462890624,-0.1494295746088028,0.2694675922393799,-0.2423443347215652
2024-12-07 20:26:50.648337700,9.142337646484377,-0.1668160259723663,0.273039162158966,-0.2197988182306289
2024-12-07 20:26:50.658351600,9.1523515625,-0.1844458281993866,0.2729471623897552,-0.2321405559778213
2024-12-07 20:26:50.668365600,9.162365478515625,-0.213266834616661,0.2838432192802429,-0.2600254416465759
2024-12-07 20:26:50.678378500,9.17237841796875,-0.2366894632577896,0.2777494490146637,-0.2907700538635254
2024-12-07 20:26:50.688392700,9.182392822265625,-0.2653930187225342,0.2720747888088226,-0.3286924064159393
2024-12-07 20:26:50.698406400,9.192406494140624,-0.2930453419685364,0.2789416313171386,-0.370880126953125
2024-12-07 20:26:50.708419600,9.202419677734374,-0.3245814442634582,0.2435991019010543,-0.4048945605754852
2024-12-07 20:26:50.718433500,9.21243359375,-0.3393418192863464,0.1734874546527862,-0.4290999174118042
2024-12-07 20:26:50.728447500,9.222447509765624,-0.3463017344474792,0.0854878202080726,-0.4283347725868225
2024-12-07 20:26:50.738460400,9.23246044921875,-0.3505979180335998,0.0215136725455522,-0.3974378407001495
2024-12-07 20:26:50.748474600,9.242474609375,-0.3477014601230621,0.0095688644796609,-0.3393188714981079
2024-12-07 20:26:50.758488600,9.252488525390625,-0.3333889544010162,0.058597844094038,-0.2694096267223358
2024-12-07 20:26:50.768501500,9.26250146484375,-0.3246130347251892,0.1407379806041717,-0.2113428711891174
2024-12-07 20:26:50.778515500,9.272515380859376,-0.3244405686855316,0.2175563126802444,-0.1771578043699264
2024-12-07 20:26:50.788529700,9.28252978515625,-0.3332721292972564,0.2538975477218628,-0.1500188559293747
2024-12-07 20:26:50.798542800,9.29254296875,-0.3442270159721374,0.2606782615184784,-0.1272598057985305
2024-12-07 20:26:50.808556800,9.302556884765623,-0.332003116607666,0.2574843466281891,-0.1039683297276496
2024-12-07 20:26:50.818570800,9.31257080078125,-0.3212410807609558,0.2405403554439544,-0.078465312719345
2024-12-07 20:26:50.828584000,9.322583984375,-0.3085711002349853,0.2206057906150818,-0.0599824413657188
2024-12-07 20:26:50.838598000,9.332597900390626,-0.291333794593811,0.2112671583890915,-0.0475164502859115
2024-12-07 20:26:50.848611800,9.34261181640625,-0.2751473486423492,0.2233885377645492,-0.0427637733519077
2024-12-07 20:26:50.858625000,9.352625,-0.2654451429843902,0.2510189116001129,-0.0252660047262907
2024-12-07 20:26:50.868638700,9.362638671875,-0.2642890810966491,0.2790774703025818,-0.0033857380039989
2024-12-07 20:26:50.878653000,9.37265283203125,-0.2651655077934265,0.2856256365776062,0.0050785862840712
2024-12-07 20:26:50.888665900,9.382665771484374,-0.2743092179298401,0.2693143188953399,-0.0102031640708446
2024-12-07 20:26:50.898679800,9.3926796875,-0.2952120304107666,0.2380467653274536,-0.0553310140967369
2024-12-07 20:26:50.908693800,9.40269384765625,-0.3212593495845794,0.1953309923410415,-0.1192572638392448
2024-12-07 20:26:50.918707000,9.41270703125,-0.3419681191444397,0.148068830370903,-0.1839448064565658
2024-12-07 20:26:50.928721000,9.422720947265624,-0.3421891629695892,0.1027466207742691,-0.2317850291728973
2024-12-07 20:26:50.938734800,9.43273486328125,-0.3246895968914032,0.0927279964089393,-0.2638498246669769
2024-12-07 20:26:50.948748800,9.442748779296876,-0.3108164072036743,0.1229974851012229,-0.265483945608139
2024-12-07 20:26:50.958762000,9.452761962890625,-0.2907007932662964,0.1493255496025085,-0.2303723245859146
2024-12-07 20:26:50.968775700,9.462775634765626,-0.2504290044307709,0.1420202255249023,-0.1831075996160507
2024-12-07 20:26:50.978790000,9.472789794921876,-0.2039803117513656,0.132587045431137,-0.1541503220796585
2024-12-07 20:26:50.988802800,9.482802734375,-0.1725592762231826,0.1325196772813797,-0.1418433189392089
2024-12-07 20:26:50.998816800,9.492816650390624,-0.1515784859657287,0.1116423904895782,-0.1321551650762558
2024-12-07 20:26:51.008830000,9.502829833984377,-0.1338636726140976,0.0550962872803211,-0.122065782546997
2024-12-07 20:26:51.018844000,9.512843994140624,-0.1113051772117614,-0.0109222857281565,-0.1095896214246749
2024-12-07 20:26:51.028857900,9.52285791015625,-0.0892006754875183,-0.0377288684248924,-0.1029492989182472
2024-12-07 20:26:51.038871800,9.532871826171874,-0.0669644549489021,-0.031589850783348,-0.0922118872404098
2024-12-07 20:26:51.048885000,9.542885009765625,-0.0589454062283039,0.0236502364277839,-0.0701958015561103
2024-12-07 20:26:51.058899000,9.55289892578125,-0.0610529892146587,0.1079834401607513,-0.0310960356146097
2024-12-07 20:26:51.068912600,9.56291259765625,-0.0832475051283836,0.1950088888406753,0.0321676209568977
2024-12-07 20:26:51.078925800,9.57292578125,-0.1118044331669807,0.2486634105443954,0.116699069738388
2024-12-07 20:26:51.088940000,9.58293994140625,-0.1219899579882621,0.2718140184879303,0.1836919486522674
2024-12-07 20:26:51.098952700,9.59295263671875,-0.1144556179642677,0.2710038125514984,0.2111449390649795
2024-12-07 20:26:51.108967000,9.602966796875,-0.0942038744688034,0.2579719126224518,0.2137393802404403
2024-12-07 20:26:51.118980900,9.61298095703125,-0.07188281416893,0.2286103814840316,0.207019105553627
2024-12-07 20:26:51.128994800,9.622994873046874,-0.0473076961934566,0.1803829371929168,0.1997606605291366
2024-12-07 20:26:51.139007700,9.6330078125,-0.0126759391278028,0.1198472082614898,0.1907498091459274
2024-12-07 20:26:51.149022000,9.64302197265625,0.0256240461021661,0.0643426701426506,0.1824505925178527
2024-12-07 20:26:51.159036000,9.653035888671877,0.0684579238295555,0.0253640823066234,0.1884870827198028
2024-12-07 20:26:51.169048800,9.663048828125,0.1118842288851738,0.0074942726641893,0.2083398848772049
2024-12-07 20:26:51.179062800,9.673062744140625,0.1519392877817154,0.0062986654229462,0.243627980351448
2024-12-07 20:26:51.189077000,9.683076904296875,0.1854573041200637,0.0144356880336999,0.2885400652885437
2024-12-07 20:26:51.199089700,9.693089599609374,0.1986653208732605,0.0341093428432941,0.3285039961338043
2024-12-07 20:26:51.209104000,9.703103759765623,0.2086444497108459,0.053348820656538,0.3550839424133301
2024-12-07 20:26:51.219116800,9.71311669921875,0.2109663039445877,0.0517235323786735,0.3779956996440887
2024-12-07 20:26:51.229130800,9.723130859375,0.1988113671541214,0.0470763146877288,0.3950207531452179
2024-12-07 20:26:51.239144700,9.733144775390626,0.1931997537612915,0.04652776196599,0.4157602787017822
2024-12-07 20:26:51.249158000,9.743157958984376,0.2013788521289825,0.0538128390908241,0.4494963884353637
2024-12-07 20:26:51.259171800,9.753171875,0.2164080440998077,0.0567049011588096,0.494227647781372
2024-12-07 20:26:51.269185800,9.763185791015625,0.2366563230752945,0.053337600082159,0.5412055850028992
2024-12-07 20:26:51.279199700,9.77319970703125,0.2604467570781708,0.0364238806068897,0.5847846269607544
2024-12-07 20:26:51.289213000,9.783212890625,0.2865327000617981,0.0090889297425746,0.627856969833374
2024-12-07 20:26:51.299227000,9.793226806640623,0.3141343593597412,-0.0205853711813688,0.6713431477546692
2024-12-07 20:26:51.309240800,9.80324072265625,0.3402272164821625,-0.0428107790648937,0.7084449529647827
2024-12-07 20:26:51.319254000,9.81325390625,0.3581427931785583,-0.0513972789049148,0.737083375453949
2024-12-07 20:26:51.329267700,9.823267822265626,0.3656262755393982,-0.0370521619915962,0.7505112886428833
2024-12-07 20:26:51.339282000,9.833281982421877,0.3709674775600433,-0.0058484417386353,0.7556389570236206
2024-12-07 20:26:51.349294800,9.843294921875,0.3792248666286468,0.0428011193871498,0.7725532054901123
2024-12-07 20:26:51.359309000,9.85330908203125,0.4059740006923675,0.0963074192404747,0.8114328980445862
2024-12-07 20:26:51.369322800,9.86332275390625,0.4446622729301452,0.1341980695724487,0.8849992752075195
2024-12-07 20:26:51.379336000,9.8733359375,0.485312283039093,0.1581100225448608,0.9839855432510376
2024-12-07 20:26:51.389350000,9.883349853515623,0.536411702632904,0.1941308677196502,1.0929673910140991
2024-12-07 20:26:51.399363800,9.89336376953125,0.588050901889801,0.2537263631820678,1.197381854057312
2024-12-07 20:26:51.409376800,9.903376708984377,0.6336591243743896,0.3377280533313751,1.2992311716079712
2024-12-07 20:26:51.419391000,9.913390869140626,0.6620063185691833,0.4206991493701935,1.3852708339691162
2024-12-07 20:26:51.429404700,9.92340478515625,0.6813845038414001,0.4822157621383667,1.4418246746063232
2024-12-07 20:26:51.439417900,9.93341796875,0.7057357430458069,0.5194594860076904,1.4672996997833252
2024-12-07 20:26:51.449431800,9.943431884765625,0.7447667717933655,0.5527468323707581,1.4628037214279177
2024-12-07 20:26:51.459446000,9.953446044921876,0.7928387522697449,0.6038113236427307,1.418557047843933
2024-12-07 20:26:51.469459000,9.963458984375,0.8419021964073181,0.6596319675445557,1.328879952430725
2024-12-07 20:26:51.479473000,9.973472900390624,0.8775752186775208,0.6753105521202087,1.2199424505233765
2024-12-07 20:26:51.489486800,9.98348681640625,0.914531409740448,0.6480562686920166,1.0991146564483645
2024-12-07 20:26:51.499499800,9.993499755859377,0.9153244495391846,0.6172362565994263,0.9764787554740906
2024-12-07 20:26:51.509513700,10.003513671875,0.8906651735305786,0.5672223567962646,0.8589457273483276
2024-12-07 20:26:51.519528000,10.01352783203125,0.8543207049369812,0.495036780834198,0.7364720106124878
2024-12-07 20:26:51.529540900,10.023540771484376,0.8022404313087463,0.3951093852519989,0.6184143424034119
2024-12-07 20:26:51.539554800,10.033554931640625,0.7276578545570374,0.2335290610790252,0.5096836090087891
2024-12-07 20:26:51.549568800,10.04356884765625,0.6511567234992981,0.0268443264067173,0.3980551064014435
2024-12-07 20:26:51.559581700,10.053581787109374,0.6098341941833496,-0.2132908701896667,0.2894034683704376
2024-12-07 20:26:51.569596000,10.063595947265624,0.6008654832839966,-0.4377476871013641,0.1859708130359649
2024-12-07 20:26:51.579609900,10.07360986328125,0.6080074906349182,-0.5555061101913452,0.0847310721874237
2024-12-07 20:26:51.589622800,10.083622802734377,0.6131753325462341,-0.5825236439704895,-0.0231426693499088
2024-12-07 20:26:51.599636700,10.09363671875,0.5871626734733582,-0.614995002746582,-0.1379043459892273
2024-12-07 20:26:51.609651000,10.10365087890625,0.5265483260154724,-0.6878290176391602,-0.2583255469799042
2024-12-07 20:26:51.619664000,10.113663818359376,0.4503316879272461,-0.7577104568481445,-0.3717643618583679
2024-12-07 20:26:51.629677800,10.123677734375,0.3772098124027252,-0.8007950782775879,-0.4631264805793762
2024-12-07 20:26:51.639691800,10.13369189453125,0.3096562922000885,-0.8252382874488831,-0.5179325938224792
2024-12-07 20:26:51.649705000,10.143705078125,0.2458999454975128,-0.8431914448738098,-0.5375909805297852
2024-12-07 20:26:51.659718700,10.15371875,0.1840530931949615,-0.8697769641876221,-0.538060188293457
2024-12-07 20:26:51.669732900,10.16373291015625,0.1299211531877517,-0.905278503894806,-0.5394551753997803
2024-12-07 20:26:51.679745800,10.173745849609375,0.0806275755167007,-0.9577832818031312,-0.5551996231079102
2024-12-07 20:26:51.689759700,10.183759765625,0.0431526415050029,-0.9867520928382874,-0.5670469403266907
2024-12-07 20:26:51.699773700,10.193773681640623,0.0292062889784574,-0.959926962852478,-0.5544353127479553
2024-12-07 20:26:51.709787000,10.203786865234376,0.0599833764135837,-0.8565150499343872,-0.4929307401180267
2024-12-07 20:26:51.719800800,10.21380078125,0.1002704873681068,-0.7009632587432861,-0.3883229792118072
2024-12-07 20:26:51.729814800,10.223814697265626,0.1308161467313766,-0.5416553616523743,-0.2611860632896423
2024-12-07 20:26:51.739828000,10.233827880859376,0.1508327424526214,-0.4102379083633423,-0.1393984407186508
2024-12-07 20:26:51.749842000,10.243842041015624,0.1719233691692352,-0.3347314298152923,-0.0318517349660396
2024-12-07 20:26:51.759855900,10.25385595703125,0.2324361503124237,-0.2717327177524566,0.0619657337665557
2024-12-07 20:26:51.769868800,10.263868896484375,0.323384165763855,-0.2032713890075683,0.1356125175952911
2024-12-07 20:26:51.779883000,10.273883056640624,0.4077997505664825,-0.1083596795797348,0.1591880917549133
2024-12-07 20:26:51.789896700,10.283896728515623,0.4901942312717438,0.0282982997596263,0.1283484250307083
2024-12-07 20:26:51.799909600,10.29390966796875,0.5549368262290955,0.152058720588684,0.0863705724477768
2024-12-07 20:26:51.809923600,10.303923583984377,0.548325777053833,0.1484027355909347,0.0688248723745346
2024-12-07 20:26:51.819937500,10.3139375,0.4688935577869415,0.0189217273145914,0.098024234175682
2024-12-07 20:26:51.829950500,10.323950439453125,0.3886823356151581,-0.135505124926567,0.133160650730133
2024-12-07 20:26:51.839964700,10.333964599609375,0.310654878616333,-0.2626793980598449,0.1464062184095382
2024-12-07 20:26:51.849978400,10.343978271484374,0.2314269095659256,-0.3718506097793579,0.1201237365603447
2024-12-07 20:26:51.859991600,10.353991455078123,0.1482135504484176,-0.4785959124565124,0.0587362796068191
2024-12-07 20:26:51.870005500,10.364005615234374,0.0754365399479866,-0.5886382460594177,-0.0216206107288599
2024-12-07 20:26:51.880019700,10.374019775390623,0.0047136265784502,-0.6713268160820007,-0.0683688819408416
2024-12-07 20:26:51.890032600,10.38403271484375,-0.0626033619046211,-0.7466409802436829,-0.1021875664591789
2024-12-07 20:26:51.900046600,10.394046630859377,-0.0967754125595092,-0.808462917804718,-0.1451085805892944
2024-12-07 20:26:51.910060500,10.404060546875,-0.0953847095370292,-0.8306912779808044,-0.1814751029014587
2024-12-07 20:26:51.920073500,10.414073486328125,-0.0607210658490657,-0.8002861142158508,-0.235865518450737
2024-12-07 20:26:51.930087700,10.424087646484375,-0.0008095279335975,-0.6394282579421997,-0.3008647561073303
2024-12-07 20:26:51.940101600,10.4341015625,0.0807067230343818,-0.4128386080265045,-0.3600925207138061
2024-12-07 20:26:51.950114600,10.444114501953123,0.1617120951414108,-0.2078633457422256,-0.3883526623249054
2024-12-07 20:26:51.960128500,10.45412841796875,0.2266587615013122,-0.0565132163465023,-0.3871465921401977
2024-12-07 20:26:51.970142700,10.464142822265623,0.2605253756046295,0.0333615466952323,-0.3825132250785827
2024-12-07 20:26:51.980155400,10.4741552734375,0.2646297514438629,0.0224615093320608,-0.3977445065975189
2024-12-07 20:26:51.990169600,10.484169677734377,0.2548383772373199,-0.0467721596360206,-0.4073649048805237
2024-12-07 20:26:52.000183600,10.49418359375,0.2460298538208007,-0.1176763400435447,-0.3908242285251617
2024-12-07 20:26:52.010196500,10.504196533203125,0.2554465234279632,-0.1061334013938903,-0.3402081727981567
2024-12-07 20:26:52.020210400,10.51421044921875,0.2757525146007538,-0.0506175011396408,-0.2912771105766296
2024-12-07 20:26:52.030224600,10.524224609375,0.2667129635810852,-0.048207338899374,-0.274472564458847
2024-12-07 20:26:52.040237600,10.534237548828123,0.1881957352161407,-0.1071418598294258,-0.2969684898853302
2024-12-07 20:26:52.050251500,10.54425146484375,0.0626173019409179,-0.1839061379432678,-0.3413306474685669
2024-12-07 20:26:52.060265500,10.554265380859375,-0.0679934471845626,-0.2134254872798919,-0.3686258792877197
2024-12-07 20:26:52.070278700,10.564278564453126,-0.1527421623468399,-0.2131847292184829,-0.3597692847251892
2024-12-07 20:26:52.080292400,10.574292236328125,-0.2026423811912536,-0.2072376608848571,-0.3628777265548706
2024-12-07 20:26:52.090306600,10.584306640625,-0.2311129122972488,-0.1753569692373275,-0.3802335262298584
2024-12-07 20:26:52.100319700,10.59431982421875,-0.2432345896959304,-0.1287006139755249,-0.3921117186546325
2024-12-07 20:26:52.110333400,10.60433349609375,-0.2579847872257232,-0.0695526078343391,-0.3992132842540741
2024-12-07 20:26:52.120347400,10.614347412109376,-0.2804294228553772,-0.0056081158109009,-0.4224964678287506
2024-12-07 20:26:52.130360600,10.624360595703124,-0.3186689615249634,0.0533944852650165,-0.4403265714645386
2024-12-07 20:26:52.140374800,10.634374755859374,-0.353204071521759,0.0150829926133155,-0.4455428421497345
2024-12-07 20:26:52.150388500,10.644388427734375,-0.3636513650417328,-0.099040113389492,-0.4354958236217499
2024-12-07 20:26:52.160401700,10.654401611328124,-0.3616071045398712,-0.2418506890535354,-0.4310153722763061
2024-12-07 20:26:52.170415600,10.66441552734375,-0.3561809062957763,-0.3287736177444458,-0.4634358882904053
2024-12-07 20:26:52.180429600,10.6744296875,-0.3425428867340088,-0.2901222109794616,-0.4886852502822876
2024-12-07 20:26:52.190442500,10.6844423828125,-0.3060767650604248,-0.2234060019254684,-0.410123348236084
2024-12-07 20:26:52.200456700,10.694456787109376,-0.2237006872892379,-0.2045898139476776,-0.2521311938762665
2024-12-07 20:26:52.210470400,10.704470458984376,-0.0898507460951805,-0.2742860913276672,-0.0966689139604568
2024-12-07 20:26:52.220483600,10.714483642578124,0.0457945056259632,-0.3384536504745483,-0.0069370637647807
2024-12-07 20:26:52.230497500,10.72449755859375,0.1437658071517944,-0.3085397183895111,0.0114560583606362
2024-12-07 20:26:52.240511700,10.73451171875,0.1942803561687469,-0.2089732885360717,0.0086587890982627
2024-12-07 20:26:52.250524400,10.7445244140625,0.2098489254713058,-0.1039517968893051,-0.0401090160012245
2024-12-07 20:26:52.260538600,10.75453857421875,0.1889232695102691,-0.078931838274002,-0.1113808155059814
2024-12-07 20:26:52.270552600,10.764552490234376,0.1264790594577789,-0.1032630130648613,-0.160014659166336
2024-12-07 20:26:52.280565500,10.7745654296875,0.0515123456716537,-0.0687302723526954,-0.1680279523134231
2024-12-07 20:26:52.290579500,10.784579345703126,-0.0071102185174822,-0.0197206530719995,-0.1683001220226287
2024-12-07 20:26:52.300593700,10.79459375,-0.0613876543939113,0.016478756442666,-0.1553720086812973
2024-12-07 20:26:52.310606600,10.804606689453124,-0.124016672372818,0.0449274405837059,-0.1119044423103332
2024-12-07 20:26:52.320620500,10.81462060546875,-0.1737799048423767,0.0829061940312385,-0.0739987716078758
2024-12-07 20:26:52.330634500,10.824634521484375,-0.2050408869981765,0.1451631784439087,-0.056471973657608
2024-12-07 20:26:52.340647400,10.8346474609375,-0.1987389922142028,0.2171873301267624,-0.0816843211650848
2024-12-07 20:26:52.350661600,10.84466162109375,-0.1688090562820434,0.2477788031101226,-0.1126923039555549
2024-12-07 20:26:52.360675600,10.854675537109374,-0.1429262161254882,0.2669734954833984,-0.1204414740204811
2024-12-07 20:26:52.370688500,10.8646884765625,-0.1265632361173629,0.2610130906105041,-0.133961796760559
2024-12-07 20:26:52.380702500,10.874702392578126,-0.1193029284477233,0.2156610041856765,-0.1516941487789154
2024-12-07 20:26:52.390716700,10.884716552734377,-0.1070521250367164,0.1576384454965591,-0.1642376333475113
2024-12-07 20:26:52.400729600,10.8947294921875,-0.0920011326670646,0.0962020084261894,-0.1718041002750396
2024-12-07 20:26:52.410743600,10.90474365234375,-0.0849991515278816,0.0214771721512079,-0.1744933575391769
2024-12-07 20:26:52.420757500,10.914757568359375,-0.0880494639277458,-0.0484645403921604,-0.1623930037021637
2024-12-07 20:26:52.430770700,10.924770751953124,-0.1102229431271553,-0.0735043734312057,-0.1285106688737869
2024-12-07 20:26:52.440784400,10.934784423828123,-0.1415609270334243,-0.0633655562996864,-0.0891232788562774
2024-12-07 20:26:52.450798600,10.944798583984374,-0.1705584973096847,-0.0388442389667034,-0.0659319311380386
2024-12-07 20:26:52.460811500,10.9548115234375,-0.1949857622385025,0.0118699064478278,-0.0689413622021675
2024-12-07 20:26:52.470825700,10.96482568359375,-0.2111040204763412,0.0796833112835884,-0.0931220650672912
2024-12-07 20:26:52.480839400,10.97483935546875,-0.2117326408624649,0.1484984159469604,-0.1304094642400741
2024-12-07 20:26:52.490852600,10.9848525390625,-0.2084207236766815,0.1989754289388656,-0.1715909987688064
2024-12-07 20:26:52.500866600,10.994866455078125,-0.2028451412916183,0.2342266291379928,-0.1942228078842163
2024-12-07 20:26:52.510880500,11.004880615234375,-0.1998970210552215,0.2832056283950805,-0.190355896949768
2024-12-07 20:26:52.520893700,11.014893798828124,-0.202127531170845,0.3413003087043762,-0.161225214600563
2024-12-07 20:26:52.530907600,11.02490771484375,-0.2057206630706787,0.38307785987854,-0.1251303255558014
2024-12-07 20:26:52.540921300,11.03492138671875,-0.2075466066598892,0.3876982927322387,-0.1025059223175048
2024-12-07 20:26:52.550934500,11.0449345703125,-0.2002439498901367,0.3646853864192962,-0.1056950539350509
2024-12-07 20:26:52.560948700,11.05494873046875,-0.1899772137403488,0.3533680737018585,-0.1221082434058189
2024-12-07 20:26:52.570962700,11.064962646484377,-0.1966412365436554,0.3037824034690857,-0.1121232509613037
2024-12-07 20:26:52.580975600,11.0749755859375,-0.2222732752561569,0.2251072525978088,-0.076728880405426
2024-12-07 20:26:52.590989600,11.084989501953125,-0.2514719069004059,0.1876850426197052,-0.0220161005854606
2024-12-07 20:26:52.601003500,11.09500341796875,-0.2716975808143616,0.2064051479101181,0.0218965522944927
2024-12-07 20:26:52.611016400,11.105016357421874,-0.2795611023902893,0.246193841099739,0.0526597946882247
2024-12-07 20:26:52.621030700,11.11503076171875,-0.2640780508518219,0.2746491730213165,0.0704645812511444
2024-12-07 20:26:52.631044600,11.125044677734374,-0.2327728867530822,0.267618179321289,0.0553026720881462
2024-12-07 20:26:52.641057500,11.1350576171875,-0.2027627080678939,0.2491359263658523,0.01045798137784
2024-12-07 20:26:52.651071500,11.145071533203126,-0.1778552383184433,0.2698955237865448,-0.0589735582470893
2024-12-07 20:26:52.661085700,11.155085693359377,-0.1531158685684204,0.3511189222335815,-0.1437952518463134
2024-12-07 20:26:52.671098400,11.165098388671876,-0.1240211054682731,0.4423220753669739,-0.1920450627803802
2024-12-07 20:26:52.681112600,11.175112548828125,-0.1033859699964523,0.4771382212638855,-0.1943321973085403
2024-12-07 20:26:52.691126500,11.18512646484375,-0.0953410863876342,0.4283552467823028,-0.1786461770534515
2024-12-07 20:26:52.701139500,11.195139404296874,-0.0894647985696792,0.3023228049278259,-0.1675370633602142
2024-12-07 20:26:52.711153400,11.2051533203125,-0.0829000994563102,0.1696486324071884,-0.170522466301918
2024-12-07 20:26:52.721167600,11.215167724609374,-0.0795858055353164,0.0575952902436256,-0.1753027886152267
2024-12-07 20:26:52.731180500,11.2251806640625,-0.0708080232143402,-0.0320240743458271,-0.1664943844079971
2024-12-07 20:26:52.741194500,11.235194580078126,-0.0664434805512428,-0.1250889003276825,-0.1364414244890213
2024-12-07 20:26:52.751208400,11.24520849609375,-0.0602862499654293,-0.2059147655963897,-0.1271528452634811
2024-12-07 20:26:52.761221600,11.2552216796875,-0.0512821972370147,-0.2345186620950698,-0.167314276099205
2024-12-07 20:26:52.771235600,11.265235595703125,-0.0494962818920612,-0.191714197397232,-0.2128524780273437
2024-12-07 20:26:52.781249500,11.27524951171875,-0.0567745342850685,-0.096651054918766,-0.2168944478034973
2024-12-07 20:26:52.791262700,11.2852626953125,-0.0697840750217437,-0.0131785264238715,-0.192463144659996
2024-12-07 20:26:52.801277400,11.29527734375,-0.0899484306573867,0.0549342595040798,-0.1647755801677703
2024-12-07 20:26:52.811291100,11.305291015625,-0.1211984977126121,0.1407988220453262,-0.1420558840036392
2024-12-07 20:26:52.821304300,11.31530419921875,-0.1613722592592239,0.2527441382408142,-0.1207387298345565
2024-12-07 20:26:52.831318300,11.325318359375,-0.1986882090568542,0.3645782470703125,-0.0829982757568359
2024-12-07 20:26:52.841332200,11.335332275390623,-0.2240846008062362,0.4153453707695007,-0.0357248224318027
2024-12-07 20:26:52.851345400,11.345345458984376,-0.2419333755970001,0.397056370973587,-0.0077736168168485
2024-12-07 20:26:52.861359400,11.355359375,-0.2499431520700454,0.3193303346633911,-0.0224084313958883
2024-12-07 20:26:52.871373300,11.365373291015626,-0.255298763513565,0.2196737825870514,-0.0695346668362617
2024-12-07 20:26:52.881386200,11.37538623046875,-0.2557224631309509,0.1275384128093719,-0.1323645710945129
2024-12-07 20:26:52.891400400,11.385400390625,-0.2297345399856567,0.0613490007817745,-0.1959177106618881
2024-12-07 20:26:52.901414400,11.395414306640625,-0.1829607188701629,0.0222367886453866,-0.2473086714744568
