time,seconds_elapsed,z,y,x
2024-12-07 20:12:55.246878700,0.011878662109375,-0.0181880425661802,-0.043114922940731,-0.0594990365207195
2024-12-07 20:12:55.256892700,0.021892578125,-0.0291698519140481,-0.0530667901039123,-0.0560921505093574
2024-12-07 20:12:55.266906600,0.03190673828125,-0.0367739722132682,-0.0550159588456153,-0.0545166246592998
2024-12-07 20:12:55.276920600,0.041920654296875,-0.0531094707548618,-0.0472360923886299,-0.0546953007578849
2024-12-07 20:12:55.286934500,0.0519345703125,-0.0697920471429824,-0.0312984064221382,-0.0521237514913082
2024-12-07 20:12:55.296948700,0.06194873046875,-0.0995435342192649,-0.0225529447197914,-0.0576664879918098
2024-12-07 20:12:55.306961700,0.071961669921875,-0.1560744494199752,-0.0413575284183025,-0.0757693275809288
2024-12-07 20:12:55.316975600,0.0819755859375,-0.2343399226665496,-0.0628334507346153,-0.1096189692616462
2024-12-07 20:12:55.326989600,0.091989501953125,-0.3054929375648498,-0.0408802144229412,-0.1390008330345153
2024-12-07 20:12:55.337003500,0.10200341796875,-0.449562668800354,0.0442418456077575,-0.1644148230552673
2024-12-07 20:12:55.347017500,0.112017578125,-0.6561355590820312,0.0800568312406539,-0.190555602312088
2024-12-07 20:12:55.357031700,0.12203173828125,-0.8841617107391357,0.0533271953463554,-0.261204719543457
2024-12-07 20:12:55.367044600,0.132044677734375,-1.0793511867523191,0.1030923500657081,-0.3118084967136383
2024-12-07 20:12:55.377058600,0.14205859375,-1.2594274282455444,0.2454928159713745,-0.340917021036148
2024-12-07 20:12:55.387072500,0.152072509765625,-1.5273404121398926,0.491760641336441,-0.481278121471405
2024-12-07 20:12:55.397086700,0.162086669921875,-1.556797981262207,0.3492614924907684,-0.5827668905258179
2024-12-07 20:12:55.407100700,0.1721005859375,-1.4778403043746948,0.075644314289093,-0.6548176407814026
2024-12-07 20:12:55.417114600,0.182114501953125,-1.4086817502975464,-0.1515634357929229,-0.6838293671607971
2024-12-07 20:12:55.427127600,0.19212744140625,-1.380354404449463,-0.2388852834701538,-0.6827270984649658
2024-12-07 20:12:55.437141800,0.202141845703125,-1.3045015335083008,-0.2659706175327301,-0.6418237686157227
2024-12-07 20:12:55.447156000,0.212156005859375,-1.159370183944702,-0.3470327258110046,-0.5639656782150269
2024-12-07 20:12:55.457170000,0.222169921875,-0.9490144848823548,-0.5755592584609985,-0.4616024494171142
2024-12-07 20:12:55.467183900,0.232183837890625,-0.8053686022758484,-0.8143563866615295,-0.4500576257705688
2024-12-07 20:12:55.477197800,0.24219775390625,-0.7907013297080994,-1.004552721977234,-0.5535402894020081
2024-12-07 20:12:55.487212000,0.2522119140625,-1.0879476070404053,-1.322380542755127,-0.6779378652572632
2024-12-07 20:12:55.497225000,0.262224853515625,-1.6549726724624634,-1.6392370462417605,-0.7143049240112305
2024-12-07 20:12:55.507239000,0.272239013671875,-2.0198590755462646,-1.6716570854187012,-0.6749492287635803
2024-12-07 20:12:55.517252900,0.2822529296875,-2.294376850128174,-1.2371211051940918,-0.5921618342399597
2024-12-07 20:12:55.527267000,0.29226708984375,-2.479261875152588,-0.5982252955436707,-0.4677003622055053
2024-12-07 20:12:55.537281000,0.302281005859375,-2.505511999130249,-0.0831424742937088,-0.2502641975879669
2024-12-07 20:12:55.547295000,0.312294921875,-2.457719564437866,0.2930639088153839,-0.0309366546571254
2024-12-07 20:12:55.557308000,0.322307861328125,-2.4654200077056885,0.4375909566879272,0.0448233969509601
2024-12-07 20:12:55.567322000,0.332322021484375,-2.586695671081543,0.4583180844783783,-0.0311126448214054
2024-12-07 20:12:55.577335800,0.342335693359375,-2.733088254928589,0.4517663717269897,-0.1559650152921676
2024-12-07 20:12:55.587350000,0.35235009765625,-2.855116367340088,0.4149721264839172,-0.245836853981018
2024-12-07 20:12:55.597364000,0.362364013671875,-2.8486218452453613,0.3325506448745727,-0.3000920116901397
2024-12-07 20:12:55.607378000,0.3723779296875,-2.6974151134490967,0.2967484593391418,-0.3065187335014343
2024-12-07 20:12:55.617390800,0.382390869140625,-2.5383877754211426,0.3495749533176422,-0.2747185230255127
2024-12-07 20:12:55.627405000,0.392405029296875,-2.355870246887207,0.3689638376235962,-0.2303782254457473
2024-12-07 20:12:55.637419000,0.4024189453125,-2.1309502124786377,0.3249231874942779,-0.1837620288133621
2024-12-07 20:12:55.647433000,0.412432861328125,-1.8543353080749512,0.2373744398355484,-0.1386811137199401
2024-12-07 20:12:55.657447000,0.422447021484375,-1.522465467453003,0.0641589686274528,-0.1711437106132507
2024-12-07 20:12:55.667460900,0.4324609375,-1.2735246419906616,-0.1751870363950729,-0.255812793970108
2024-12-07 20:12:55.677475000,0.44247509765625,-1.2273036241531372,-0.3483662903308868,-0.3060908317565918
2024-12-07 20:12:55.687487700,0.45248779296875,-1.2859703302383425,-0.3831676840782165,-0.2965189218521118
2024-12-07 20:12:55.697502000,0.462501953125,-1.2564681768417358,-0.2141279131174087,-0.2224443107843399
2024-12-07 20:12:55.707516000,0.472515869140625,-1.0936715602874756,0.0137241510674357,-0.1462291628122329
2024-12-07 20:12:55.717530000,0.482530029296875,-0.8619336485862732,0.1473443210124969,-0.1102541610598564
2024-12-07 20:12:55.727543800,0.492543701171875,-0.6151850819587708,0.1780185997486114,-0.1225108280777931
2024-12-07 20:12:55.737558000,0.50255810546875,-0.3604190349578857,0.0928621366620063,-0.2170644700527191
2024-12-07 20:12:55.747571000,0.512571044921875,-0.1272952258586883,-0.0465301126241683,-0.3251957297325134
2024-12-07 20:12:55.757585200,0.522585205078125,0.0563742220401763,-0.0876702889800071,-0.3595742881298065
2024-12-07 20:12:55.767598800,0.532598876953125,0.1497803479433059,-0.0013226118171587,-0.3035986423492431
2024-12-07 20:12:55.777612800,0.54261279296875,-0.0234360676258802,-0.0897247716784477,-0.3577421605587005
2024-12-07 20:12:55.787627000,0.552626953125,-0.6380305290222168,-0.637657105922699,-0.6222087144851685
2024-12-07 20:12:55.797641000,0.562640869140625,-0.931408703327179,-1.1750034093856812,-0.7840495109558105
2024-12-07 20:12:55.807654000,0.57265380859375,-0.7589207887649536,-1.5143282413482666,-0.8586449027061462
2024-12-07 20:12:55.817667800,0.582667724609375,-0.3743184804916382,-1.6861844062805176,-0.8603344559669495
2024-12-07 20:12:55.827682000,0.59268212890625,-0.0065729501657187,-1.795161485671997,-0.8166429400444031
2024-12-07 20:12:55.837695700,0.60269580078125,0.2292259335517883,-1.7897062301635742,-0.7620795965194702
2024-12-07 20:12:55.847710000,0.6127099609375,0.3991422653198242,-1.6280310153961182,-0.6666532158851624
2024-12-07 20:12:55.857724000,0.622723876953125,0.4660634100437164,-1.2844016551971436,-0.5197173953056335
2024-12-07 20:12:55.867738000,0.632738037109375,0.6178785562515259,-1.0231069326400757,-0.3098208606243133
2024-12-07 20:12:55.877750800,0.642750732421875,0.6850020885467529,-0.8731845021247864,-0.1312146633863449
2024-12-07 20:12:55.887765000,0.652764892578125,0.7131756544113159,-0.7669632434844971,0.0007633394561707
2024-12-07 20:12:55.897779000,0.662779052734375,0.7164767980575562,-0.7005372643470764,0.0719713494181633
2024-12-07 20:12:55.907793200,0.672793212890625,0.7393051981925964,-0.6636812090873718,0.1168607920408248
2024-12-07 20:12:55.917806800,0.682806884765625,0.8058028221130371,-0.5042942762374878,0.2415399253368377
2024-12-07 20:12:55.927820800,0.69282080078125,0.8949377536773682,-0.1901874840259552,0.4472507238388061
2024-12-07 20:12:55.937834000,0.702833984375,0.902348518371582,0.2102046012878418,0.6342276334762573
2024-12-07 20:12:55.947848000,0.712847900390625,0.823834240436554,0.5856642127037048,0.6957306265830994
2024-12-07 20:12:55.957862000,0.72286181640625,0.6784340739250183,0.8181726932525635,0.5789397358894348
2024-12-07 20:12:55.967875800,0.732875732421875,0.4367399513721466,0.8508821725845337,0.3279237747192383
2024-12-07 20:12:55.977890000,0.74289013671875,0.1382676810026168,0.6348241567611694,0.0410113520920276
2024-12-07 20:12:55.987903700,0.75290380859375,-0.0899532437324523,0.2414970844984054,-0.1436618119478225
2024-12-07 20:12:55.997917000,0.7629169921875,-0.1193399280309677,-0.0396404862403869,-0.1683771163225174
2024-12-07 20:12:56.007931000,0.772930908203125,-0.0876155570149421,-0.0787359625101089,-0.1211824417114257
2024-12-07 20:12:56.017945000,0.782945068359375,-0.0508678406476974,0.0205158647149801,-0.0686607211828231
2024-12-07 20:12:56.027958800,0.792958740234375,0.0127497520297765,0.1191654726862907,-0.0346052832901477
2024-12-07 20:12:56.037973000,0.802972900390625,0.0721021369099617,0.1750015318393707,-0.0116549087688326
2024-12-07 20:12:56.047987000,0.812987060546875,0.1353005468845367,0.2028009444475174,0.0111569315195083
2024-12-07 20:12:56.058000000,0.822999755859375,0.2149063050746917,0.2366606891155243,0.0380984805524349
2024-12-07 20:12:56.068013800,0.833013916015625,0.2753765881061554,0.3324692249298095,0.0772514715790748
2024-12-07 20:12:56.078028000,0.843028076171875,0.3188368380069732,0.4704691171646118,0.125016912817955
2024-12-07 20:12:56.088042000,0.8530419921875,0.3634825944900512,0.5873361229896545,0.14427050948143
2024-12-07 20:12:56.098056000,0.863055908203125,0.3793755173683166,0.6666748523712158,0.1428188234567642
2024-12-07 20:12:56.108070000,0.87306982421875,0.3208909034729004,0.700505793094635,0.1040794104337692
2024-12-07 20:12:56.118083800,0.883083740234375,0.21383036673069,0.2962553799152374,-0.2431375533342361
2024-12-07 20:12:56.128097000,0.893096923828125,0.1079457402229309,-0.1671037226915359,-0.4470502138137817
2024-12-07 20:12:56.138111000,0.903111083984375,0.026050740852952,-0.3037737607955932,-0.3530339002609253
2024-12-07 20:12:56.148125000,0.913125,-0.0374496690928936,-0.2083116620779037,-0.1260657459497451
2024-12-07 20:12:56.158139000,0.923138916015625,-0.0426052510738372,-0.09711255133152,0.0285977032035589
2024-12-07 20:12:56.168153000,0.933153076171875,-0.0240643229335546,-0.0625068992376327,0.0348108597099781
2024-12-07 20:12:56.178166800,0.943166748046875,-0.024120120331645,-0.0622537769377231,-0.0307373702526092
2024-12-07 20:12:56.188180000,0.953179931640625,-0.0145457908511161,-0.0728411749005317,-0.1008115336298942
2024-12-07 20:12:56.198194000,0.96319384765625,-0.015165738761425,-0.0981383696198463,-0.1203145682811737
2024-12-07 20:12:56.208208000,0.973207763671875,-0.010370185598731,-0.1049118563532829,-0.0899001955986023
2024-12-07 20:12:56.218221800,0.983221923828125,0.0276664495468139,-0.1237268224358558,-0.0513959564268589
2024-12-07 20:12:56.228236000,0.993236083984375,0.0622859448194503,-0.1508907973766327,-0.05390465259552
2024-12-07 20:12:56.238250000,1.00325,0.0972066596150398,-0.150822177529335,-0.0775353163480758
2024-12-07 20:12:56.248263000,1.013262939453125,0.1431797444820404,-0.0803437605500221,-0.0689807161688804
2024-12-07 20:12:56.258276900,1.02327685546875,0.0916035994887352,-0.1478499919176101,-0.0906895622611045
2024-12-07 20:12:56.268291000,1.033291015625,0.1059931889176368,-0.2246728688478469,-0.1121160238981247
2024-12-07 20:12:56.278305000,1.043304931640625,0.1319981813430786,-0.2042510509490966,-0.1059701517224311
2024-12-07 20:12:56.288319000,1.053319091796875,0.1287989318370819,-0.1530680209398269,-0.0876547917723655
2024-12-07 20:12:56.298333000,1.0633330078125,0.1237835586071014,-0.130021870136261,-0.0906297639012336
2024-12-07 20:12:56.308346000,1.07334619140625,0.1136267930269241,-0.1397666484117508,-0.0997681394219398
2024-12-07 20:12:56.318359800,1.08335986328125,0.0985832586884498,-0.1461716890335083,-0.1005181968212127
2024-12-07 20:12:56.328374000,1.0933740234375,0.0856863707304,-0.1498537808656692,-0.0947463288903236
2024-12-07 20:12:56.338388000,1.103387939453125,0.0730098113417625,-0.1463905274868011,-0.0975448563694953
2024-12-07 20:12:56.348402000,1.11340185546875,0.0562366917729377,-0.1541224867105484,-0.111008197069168
2024-12-07 20:12:56.358416000,1.123415771484375,0.0304850377142429,-0.166107177734375,-0.1262396872043609
2024-12-07 20:12:56.368429000,1.133428955078125,0.007488377392292,-0.1832171827554702,-0.128847986459732
2024-12-07 20:12:56.378443000,1.143443115234375,-0.0081817163154482,-0.2022347152233123,-0.122602179646492
2024-12-07 20:12:56.388457000,1.15345703125,-0.0249002408236265,-0.2265581637620926,-0.1058141365647316
2024-12-07 20:12:56.398471000,1.163470947265625,-0.0386341288685798,-0.2369560450315475,-0.1023300886154174
2024-12-07 20:12:56.408484900,1.17348486328125,-0.0504202134907245,-0.2098719626665115,-0.1298413425683975
2024-12-07 20:12:56.418499000,1.1834990234375,-0.0571556985378265,-0.1753110289573669,-0.1543208807706833
2024-12-07 20:12:56.428511700,1.19351171875,-0.0653372034430503,-0.1567003279924392,-0.1671599745750427
2024-12-07 20:12:56.438526000,1.20352587890625,-0.0689143761992454,-0.1550029963254928,-0.161356508731842
2024-12-07 20:12:56.448539400,1.213539306640625,-0.0691015943884849,-0.1570296734571457,-0.1580371409654617
2024-12-07 20:12:56.458553600,1.2235537109375,-0.0606240816414356,-0.1497233361005783,-0.1624930948019027
2024-12-07 20:12:56.468567600,1.233567626953125,-0.0486933887004852,-0.134221613407135,-0.1732983440160751
2024-12-07 20:12:56.478581800,1.243581787109375,-0.0451024286448955,-0.1107420995831489,-0.184071660041809
2024-12-07 20:12:56.488595500,1.253595458984375,-0.0409367121756076,-0.1001256704330444,-0.1752792447805404
2024-12-07 20:12:56.498608600,1.263608642578125,0.0006474973633885,-0.0844282954931259,-0.1617678552865982
2024-12-07 20:12:56.508622600,1.27362255859375,0.0497484654188156,-0.1229999288916587,-0.1341298371553421
2024-12-07 20:12:56.518636500,1.283636474609375,0.0795957073569297,-0.1946998834609985,-0.0894652158021926
2024-12-07 20:12:56.528650500,1.293650390625,0.0843451917171478,-0.2590418457984924,-0.0436612367630004
2024-12-07 20:12:56.538664700,1.303664794921875,0.0790063440799713,-0.3317214846611023,-0.0124944308772683
2024-12-07 20:12:56.548678700,1.3136787109375,0.0779227018356323,-0.4163769781589508,-0.0050237318500876
2024-12-07 20:12:56.558691600,1.323691650390625,0.0848526731133461,-0.4903201460838318,-0.0166175905615091
2024-12-07 20:12:56.568705500,1.33370556640625,0.0799079835414886,-0.5353336930274963,-0.0441895648837089
2024-12-07 20:12:56.578719500,1.343719482421875,0.0603653080761432,-0.5167052149772644,-0.087627537548542
2024-12-07 20:12:56.588733700,1.353733642578125,0.0323573723435401,-0.4672726690769195,-0.1475891470909118
2024-12-07 20:12:56.598747400,1.363747314453125,0.0600933134555816,-0.4323790967464447,-0.2029501646757125
2024-12-07 20:12:56.608761600,1.37376171875,0.0950345173478126,-0.3685250282287597,-0.2174103260040283
2024-12-07 20:12:56.618774500,1.3837744140625,0.1063999757170677,-0.323548823595047,-0.2051701098680496
2024-12-07 20:12:56.628788500,1.39378857421875,0.1007788404822349,-0.2986919283866882,-0.1872486323118209
2024-12-07 20:12:56.638802400,1.403802490234375,0.1246407851576805,-0.2555649578571319,-0.1714475750923156
2024-12-07 20:12:56.648816600,1.413816650390625,0.1496316194534301,-0.2023249119520187,-0.1577677130699157
2024-12-07 20:12:56.658830600,1.42383056640625,0.1372504979372024,-0.1627545654773712,-0.119677610695362
2024-12-07 20:12:56.668844500,1.433844482421875,0.095174416899681,-0.1365828812122345,-0.057502657175064
2024-12-07 20:12:56.678857500,1.443857421875,0.0301126446574926,-0.0848024487495422,0.0178889650851488
2024-12-07 20:12:56.688871700,1.45387158203125,-0.0281059201806783,0.0123701756820082,0.1003106012940406
2024-12-07 20:12:56.698885600,1.4638857421875,-0.0649833157658577,0.0983396023511886,0.1632909774780273
2024-12-07 20:12:56.708899600,1.473899658203125,-0.0712406784296035,0.1354805827140808,0.1881899386644363
2024-12-07 20:12:56.718913500,1.48391357421875,-0.016409084200859,0.1500399857759475,0.1781539171934127
2024-12-07 20:12:56.728927500,1.493927490234375,0.0519619844853878,0.1072778776288032,0.1385902613401413
2024-12-07 20:12:56.738940400,1.5039404296875,0.1016728803515434,0.0265226494520902,0.0824155882000923
2024-12-07 20:12:56.748954600,1.51395458984375,0.1397291868925094,-0.0407658442854881,0.0037830951623618
2024-12-07 20:12:56.758968600,1.523968505859375,0.1695633083581924,-0.0388995260000228,-0.106463223695755
2024-12-07 20:12:56.768982500,1.533982421875,0.149810642004013,-0.0086441505700349,-0.2185274511575698
2024-12-07 20:12:56.778996500,1.54399658203125,0.0889643505215644,-0.0029350584372878,-0.3005398213863373
2024-12-07 20:12:56.789010400,1.554010498046875,0.0270141698420047,-0.0756771713495254,-0.3194131255149841
2024-12-07 20:12:56.799023600,1.564023681640625,-0.0066794571466743,-0.1622900366783142,-0.2813717722892761
2024-12-07 20:12:56.809037600,1.57403759765625,-0.0206695757806301,-0.2151247560977935,-0.2256672382354736
2024-12-07 20:12:56.819051500,1.584051513671875,-0.041125051677227,-0.2181664556264877,-0.1714228093624115
2024-12-07 20:12:56.829065500,1.5940654296875,-0.0704035833477974,-0.1815772801637649,-0.139738380908966
2024-12-07 20:12:56.839079700,1.60407958984375,-0.0998003482818603,-0.1262207180261612,-0.1318246275186538
2024-12-07 20:12:56.849093600,1.61409375,-0.1249435245990753,-0.08968535810709,-0.1486534178256988
2024-12-07 20:12:56.859106600,1.6241064453125,-0.1452406197786331,-0.0671765580773353,-0.1775319576263427
2024-12-07 20:12:56.869120500,1.63412060546875,-0.1631160229444503,-0.0565273761749267,-0.2088784277439117
2024-12-07 20:12:56.879134700,1.644134765625,-0.1698150485754013,-0.0469130501151084,-0.2407586425542831
2024-12-07 20:12:56.889148400,1.6541484375,-0.1465917527675628,0.0057589504867792,-0.2689231932163238
2024-12-07 20:12:56.899162600,1.66416259765625,-0.1423388719558715,0.0628300085663795,-0.2872905135154724
2024-12-07 20:12:56.909176600,1.674176513671875,-0.1528524905443191,0.1066251546144485,-0.2913393080234527
2024-12-07 20:12:56.919190500,1.6841904296875,-0.1646215617656707,0.1265434771776199,-0.2852356135845184
2024-12-07 20:12:56.929203500,1.694203369140625,-0.1675579696893692,0.1377572566270828,-0.2755997776985168
2024-12-07 20:12:56.939217700,1.7042177734375,-0.1700397580862045,0.1382641494274139,-0.2672255635261535
2024-12-07 20:12:56.949231600,1.714231689453125,-0.1812138557434082,0.1365080624818802,-0.2657661437988281
2024-12-07 20:12:56.959245600,1.72424560546875,-0.1930296421051025,0.1079821810126304,-0.2595146596431732
2024-12-07 20:12:56.969259500,1.734259521484375,-0.2036732286214828,0.0710563883185386,-0.2612776756286621
2024-12-07 20:12:56.979273500,1.7442734375,-0.2147572338581085,0.0628658384084701,-0.2738669812679291
2024-12-07 20:12:56.989286700,1.75428662109375,-0.2250892370939254,0.0896564349532127,-0.2873916029930115
2024-12-07 20:12:56.999300400,1.76430029296875,-0.2324705570936203,0.1452385038137436,-0.2869306206703186
2024-12-07 20:12:57.009314600,1.774314453125,-0.2392573654651641,0.2002469003200531,-0.2550294101238251
2024-12-07 20:12:57.019328500,1.78432861328125,-0.230622187256813,0.2204561531543731,-0.1933392733335495
2024-12-07 20:12:57.029342700,1.7943427734375,-0.1919687986373901,0.2369493693113327,-0.1313645839691162
2024-12-07 20:12:57.039356400,1.8043564453125,-0.1720592379570007,0.2237314730882644,-0.0891027748584747
2024-12-07 20:12:57.049369600,1.81436962890625,-0.1977432966232299,0.17719566822052,-0.0662438049912452
2024-12-07 20:12:57.059383600,1.824383544921875,-0.2083804309368133,0.132505401968956,-0.0649401620030403
2024-12-07 20:12:57.069397800,1.834397705078125,-0.1942430436611175,0.1253098100423813,-0.0818371176719665
2024-12-07 20:12:57.079411500,1.844411376953125,-0.2002737075090408,0.1401662230491638,-0.0926146432757377
2024-12-07 20:12:57.089425700,1.85442578125,-0.2222272008657455,0.1542167961597442,-0.0914316624402999
2024-12-07 20:12:57.099439600,1.864439697265625,-0.244508147239685,0.1694965660572052,-0.0793240219354629
2024-12-07 20:12:57.109452500,1.87445263671875,-0.2707919478416443,0.1916798949241638,-0.0655440241098404
2024-12-07 20:12:57.119466500,1.884466552734375,-0.2966808080673218,0.2191159576177597,-0.0632048696279525
2024-12-07 20:12:57.129480700,1.894480712890625,-0.3177070021629333,0.2507790625095367,-0.0689780712127685
2024-12-07 20:12:57.139494700,1.90449462890625,-0.3304268717765808,0.2750166952610016,-0.085122637450695
2024-12-07 20:12:57.149508400,1.91450830078125,-0.3381633460521698,0.307746946811676,-0.1081896126270294
2024-12-07 20:12:57.159522600,1.9245224609375,-0.3378329873085022,0.3442582190036773,-0.1343102753162384
2024-12-07 20:12:57.169535700,1.93453564453125,-0.3367472290992737,0.3756307959556579,-0.1521281450986862
2024-12-07 20:12:57.179549400,1.944549560546875,-0.3291709125041961,0.3915114402770996,-0.1532607525587082
2024-12-07 20:12:57.189563400,1.9545634765625,-0.317115843296051,0.3799463808536529,-0.1423098444938659
2024-12-07 20:12:57.199577600,1.96457763671875,-0.282760739326477,0.3198233842849731,-0.127914622426033
2024-12-07 20:12:57.209591600,1.974591552734375,-0.2375125735998153,0.1997872591018676,-0.1105135306715965
2024-12-07 20:12:57.219605800,1.984605712890625,-0.1838900297880172,0.0538451299071311,-0.0943754762411117
2024-12-07 20:12:57.229618400,1.994618408203125,-0.0907092317938804,0.0080827046185731,-0.1018677502870559
2024-12-07 20:12:57.239632600,2.004632568359375,-0.0063528860919177,0.0314707048237323,-0.1172598749399185
2024-12-07 20:12:57.249646600,2.014646484375,0.0456530563533306,0.0235906783491373,-0.0950637608766555
2024-12-07 20:12:57.259660500,2.02466064453125,0.0896808132529258,0.000562542642001,-0.0287067890167236
2024-12-07 20:12:57.269674500,2.034674560546875,0.1132657676935195,0.050108790397644,0.0580025389790535
2024-12-07 20:12:57.279688700,2.044688720703125,0.1071012318134307,0.1833040863275528,0.1553696244955063
2024-12-07 20:12:57.289701400,2.054701416015625,0.0663990750908851,0.3406502902507782,0.2705409526824951
2024-12-07 20:12:57.299715600,2.064715576171875,0.0036694360896945,0.4400842785835266,0.3982482552528381
2024-12-07 20:12:57.309729500,2.0747294921875,-0.0513642542064189,0.4898395836353302,0.5244474411010742
2024-12-07 20:12:57.319743700,2.08474365234375,-0.0731098651885986,0.5106040835380554,0.6032941937446594
2024-12-07 20:12:57.329757400,2.09475732421875,-0.0560413971543312,0.486875057220459,0.6325162649154663
2024-12-07 20:12:57.339771400,2.104771484375,0.0196102038025856,0.4800873100757599,0.6384116411209106
2024-12-07 20:12:57.349784600,2.11478466796875,0.0915325954556465,0.4922720789909363,0.631511390209198
2024-12-07 20:12:57.359798800,2.124798828125,0.1466045677661895,0.4809741675853729,0.6181973814964294
2024-12-07 20:12:57.369812500,2.1348125,0.1801667958498001,0.4360074996948242,0.5985400676727295
2024-12-07 20:12:57.379826400,2.144826416015625,0.1963338404893875,0.398763507604599,0.5763537883758545
2024-12-07 20:12:57.389840600,2.154840576171875,0.1976012289524078,0.3362807035446167,0.5719960331916809
2024-12-07 20:12:57.399854600,2.1648544921875,0.1862106621265411,0.2867201268672943,0.5929297208786011
2024-12-07 20:12:57.409868500,2.17486865234375,0.1791106611490249,0.2710357010364532,0.6288419365882874
2024-12-07 20:12:57.419881500,2.184881591796875,0.1880631446838379,0.2701422274112701,0.6834931969642639
2024-12-07 20:12:57.429895700,2.194895751953125,0.226138100028038,0.2659189701080322,0.7517473101615906
2024-12-07 20:12:57.439909400,2.204909423828125,0.2816309332847595,0.2582833468914032,0.8200404644012451
2024-12-07 20:12:57.449923800,2.214923828125,0.3401980996131897,0.2357364892959594,0.8803477883338928
2024-12-07 20:12:57.459937800,2.224937744140625,0.3912030160427093,0.2070266306400299,0.940956711769104
2024-12-07 20:12:57.469951700,2.23495166015625,0.4297187030315399,0.1584276705980301,1.0098239183425903
2024-12-07 20:12:57.479964700,2.244964599609375,0.444399744272232,0.1330345720052719,1.0918408632278442
2024-12-07 20:12:57.489979000,2.254978759765625,0.4422604143619537,0.14928038418293,1.1849156618118286
2024-12-07 20:12:57.499992800,2.264992919921875,0.4436288774013519,0.2011992931365966,1.2932229042053225
2024-12-07 20:12:57.510006800,2.2750068359375,0.4610747098922729,0.2658286094665527,1.404860496520996
2024-12-07 20:12:57.520020700,2.285020751953125,0.4957594573497772,0.3022455871105194,1.5001935958862305
2024-12-07 20:12:57.530034700,2.29503466796875,0.5513058304786682,0.3272795677185058,1.5611671209335327
2024-12-07 20:12:57.540047600,2.305047607421875,0.6075287461280823,0.3916881084442138,1.5791553258895874
2024-12-07 20:12:57.550061800,2.315061767578125,0.6656488180160522,0.5207603573799133,1.5663574934005735
2024-12-07 20:12:57.560075800,2.32507568359375,0.7230954170227051,0.6936054825782776,1.5313886404037476
2024-12-07 20:12:57.570089700,2.33508984375,0.7645125985145569,0.8647210597991943,1.4781550168991089
2024-12-07 20:12:57.580103700,2.345103759765625,0.7960881590843201,1.0015734434127808,1.4089922904968262
2024-12-07 20:12:57.590117600,2.35511767578125,0.8041514158248901,1.0797291994094849,1.329352855682373
2024-12-07 20:12:57.600130800,2.365130859375,0.805145263671875,1.110465407371521,1.2519453763961792
2024-12-07 20:12:57.610144800,2.375144775390625,0.824060320854187,1.0566471815109253,1.1786192655563354
2024-12-07 20:12:57.620158700,2.38515869140625,0.8942321538925171,0.8977774977684021,1.09427011013031
2024-12-07 20:12:57.630172700,2.395172607421875,0.9920146465301514,0.661586582660675,0.9927547574043274
2024-12-07 20:12:57.640187000,2.405186767578125,1.056627869606018,0.4208604395389557,0.8858702182769775
2024-12-07 20:12:57.650200800,2.415200927734375,1.0396997928619385,0.1931673437356948,0.7568570971488953
2024-12-07 20:12:57.660213800,2.4252138671875,0.9490477442741394,-0.0372959896922111,0.6373709440231323
2024-12-07 20:12:57.670227700,2.435227783203125,0.8049342632293701,-0.2786076962947845,0.5309105515480042
2024-12-07 20:12:57.680242000,2.445241943359375,0.6362680792808533,-0.4775270819664001,0.4374894499778747
2024-12-07 20:12:57.690255600,2.455255615234375,0.5117759704589844,-0.564059317111969,0.3615166544914245
2024-12-07 20:12:57.700269800,2.465269775390625,0.4890636801719665,-0.5692305564880371,0.3018135130405426
2024-12-07 20:12:57.710283800,2.47528369140625,0.5256896615028381,-0.5563834309577942,0.2462552040815353
2024-12-07 20:12:57.720296700,2.485296630859375,0.5607144832611084,-0.5654417872428894,0.1735081374645233
2024-12-07 20:12:57.730310700,2.495310546875,0.5641475915908813,-0.613502562046051,0.0768069103360176
2024-12-07 20:12:57.740324600,2.50532470703125,0.533176839351654,-0.69624263048172,-0.0407727509737014
2024-12-07 20:12:57.750338800,2.5153388671875,0.4783756732940674,-0.7784424424171448,-0.1657325327396392
2024-12-07 20:12:57.760352800,2.525352783203125,0.4123978018760681,-0.8233669996261597,-0.2861223816871643
2024-12-07 20:12:57.770366700,2.53536669921875,0.3504124581813812,-0.8321343660354614,-0.3815865814685821
2024-12-07 20:12:57.780379600,2.545379638671875,0.3087184131145477,-0.8340653777122498,-0.4486106634140014
2024-12-07 20:12:57.790393900,2.555393798828125,0.2936609089374542,-0.8375003337860107,-0.4732111096382141
2024-12-07 20:12:57.800407600,2.565407470703125,0.2951698899269104,-0.8106645345687866,-0.4634953141212463
2024-12-07 20:12:57.810421800,2.575421875,0.3076305687427521,-0.7601757645606995,-0.4357089698314667
2024-12-07 20:12:57.820435700,2.585435791015625,0.3215682804584503,-0.7103526592254639,-0.3958945870399475
2024-12-07 20:12:57.830450000,2.595449951171875,0.3194185793399811,-0.650571882724762,-0.3535862565040588
2024-12-07 20:12:57.840462600,2.605462646484375,0.3148340284824371,-0.591023862361908,-0.3175254762172699
2024-12-07 20:12:57.850476800,2.615476806640625,0.3117846846580505,-0.5456127524375916,-0.2928693890571594
2024-12-07 20:12:57.860490800,2.62549072265625,0.310250848531723,-0.5134507417678833,-0.2830149233341217
2024-12-07 20:12:57.870505000,2.6355048828125,0.3074747622013092,-0.503162682056427,-0.2896464765071869
2024-12-07 20:12:57.880518700,2.6455185546875,0.2969312667846679,-0.5044614672660828,-0.2869231104850769
2024-12-07 20:12:57.890532600,2.65553271484375,0.2894341945648193,-0.4987503588199615,-0.2648250162601471
2024-12-07 20:12:57.900546800,2.665546875,0.2844384610652923,-0.4639962911605835,-0.2325209528207779
2024-12-07 20:12:57.910559700,2.675559814453125,0.2780047953128814,-0.3971426784992218,-0.2083109468221664
2024-12-07 20:12:57.920573700,2.68557373046875,0.266038030385971,-0.2996907532215118,-0.1775372773408889
2024-12-07 20:12:57.930587600,2.695587646484375,0.2491503804922104,-0.2307702749967575,-0.1430440098047256
2024-12-07 20:12:57.940601900,2.705601806640625,0.2135276943445205,-0.1898955702781677,-0.1327447444200515
2024-12-07 20:12:57.950615600,2.715615478515625,0.1554955542087555,-0.1902481764554977,-0.1480209082365036
2024-12-07 20:12:57.960629800,2.725629638671875,0.1038212850689888,-0.2322047054767608,-0.169232428073883
2024-12-07 20:12:57.970642700,2.735642578125,0.0540316253900527,-0.3233548402786255,-0.1830787360668182
2024-12-07 20:12:57.980656600,2.74565673828125,0.0013797003775835,-0.440959632396698,-0.1811787188053131
2024-12-07 20:12:57.990670600,2.755670654296875,-0.0407400541007518,-0.56110018491745,-0.1699151396751403
2024-12-07 20:12:58.000684800,2.765684814453125,-0.0568868182599544,-0.6468450427055359,-0.165282130241394
2024-12-07 20:12:58.010698800,2.77569873046875,-0.0429177395999431,-0.6802166104316711,-0.1713280379772186
2024-12-07 20:12:58.020713000,2.785712890625,0.0074444324709475,-0.6416911482810974,-0.1776756197214126
2024-12-07 20:12:58.030725600,2.7957255859375,0.0790597572922706,-0.5477012395858765,-0.1656626313924789
2024-12-07 20:12:58.040739800,2.80573974609375,0.1614340543746948,-0.445380300283432,-0.1377771198749542
2024-12-07 20:12:58.050753800,2.81575390625,0.2499242275953292,-0.3518796265125274,-0.0951966270804405
2024-12-07 20:12:58.060767700,2.825767822265625,0.3300248086452484,-0.3157394528388977,-0.0685658380389213
2024-12-07 20:12:58.070781700,2.83578173828125,0.3733336925506592,-0.359950840473175,-0.0742695331573486
2024-12-07 20:12:58.080795600,2.845795654296875,0.3683973848819732,-0.4760917127132416,-0.1006994172930717
2024-12-07 20:12:58.090808600,2.85580859375,0.3311181664466858,-0.5979470610618591,-0.1389455944299698
2024-12-07 20:12:58.100822800,2.86582275390625,0.2947212755680084,-0.6605545878410339,-0.1696416288614273
2024-12-07 20:12:58.110836700,2.875836669921875,0.2726532518863678,-0.6897073984146118,-0.1859971582889557
2024-12-07 20:12:58.120850700,2.8858505859375,0.2645187973976135,-0.6891958117485046,-0.1908340603113174
2024-12-07 20:12:58.130864600,2.89586474609375,0.2488751113414764,-0.6528676152229309,-0.1941829770803451
2024-12-07 20:12:58.140878600,2.905878662109375,0.2219277471303939,-0.6806814670562744,-0.1990319490432739
2024-12-07 20:12:58.150891800,2.915891845703125,0.1706765443086624,-0.7322386503219604,-0.2174825817346573
2024-12-07 20:12:58.160905700,2.92590576171875,0.1173814386129379,-0.7763608694076538,-0.2420366406440735
2024-12-07 20:12:58.170919700,2.935919677734375,0.0821574032306671,-0.7589936256408691,-0.2777459025382995
2024-12-07 20:12:58.180933600,2.94593359375,0.0584435686469078,-0.6389906406402588,-0.309825450181961
2024-12-07 20:12:58.190947800,2.95594775390625,0.0316697470843791,-0.5536690950393677,-0.3359694480895996
2024-12-07 20:12:58.200961800,2.9659619140625,-0.0111194616183638,-0.4623516201972961,-0.3778855204582214
2024-12-07 20:12:58.210974700,2.975974609375,-0.0646588504314422,-0.3471685647964477,-0.441244512796402
2024-12-07 20:12:58.220988700,2.98598876953125,-0.1077390015125274,-0.2056632488965988,-0.4995444416999817
2024-12-07 20:12:58.231003000,2.9960029296875,-0.1589819490909576,-0.0835381522774696,-0.5514752864837646
2024-12-07 20:12:58.241016600,3.0060166015625,-0.2312627434730529,-0.0456965155899524,-0.6168840527534485
2024-12-07 20:12:58.251030800,3.01603076171875,-0.311733603477478,-0.0494355931878089,-0.6959741115570068
2024-12-07 20:12:58.261044700,3.026044677734375,-0.3896859288215637,-0.0587770715355873,-0.7522500157356262
2024-12-07 20:12:58.271058000,3.036057861328125,-0.4658949375152588,-0.1371019631624221,-0.7657559514045715
2024-12-07 20:12:58.281071600,3.046071533203125,-0.5290307998657227,-0.2126079946756363,-0.7333528995513916
2024-12-07 20:12:58.291085800,3.0560859375,-0.5412336587905884,-0.2374355792999267,-0.6508727073669434
2024-12-07 20:12:58.301099800,3.066099853515625,-0.4639239311218261,-0.2626527845859527,-0.5097919702529907
2024-12-07 20:12:58.311113700,3.07611376953125,-0.3205936849117279,-0.3132736384868622,-0.3159008026123047
2024-12-07 20:12:58.321127700,3.086127685546875,-0.1734039932489395,-0.3278577029705047,-0.150094985961914
2024-12-07 20:12:58.331140900,3.096140869140625,-0.0713055878877639,-0.2640558183193207,-0.0707663372159004
2024-12-07 20:12:58.341154800,3.10615478515625,-0.0327916033565998,-0.1752442419528961,-0.0648705810308456
2024-12-07 20:12:58.351168500,3.11616845703125,-0.0463742576539516,-0.1179913431406021,-0.0808924287557601
2024-12-07 20:12:58.361182700,3.1261826171875,-0.0766216740012168,-0.108798012137413,-0.0963495075702667
2024-12-07 20:12:58.371196700,3.13619677734375,-0.1167938634753227,-0.11324043571949,-0.1184327006340026
2024-12-07 20:12:58.381211000,3.1462109375,-0.1684944629669189,-0.0713438987731933,-0.1515932828187942
2024-12-07 20:12:58.391224600,3.156224609375,-0.2230879217386245,0.0099501609802246,-0.2027475386857986
2024-12-07 20:12:58.401237800,3.16623779296875,-0.254962295293808,0.0761602669954299,-0.2720058858394623
2024-12-07 20:12:58.411251700,3.176251708984375,-0.2565897405147552,0.1131691485643386,-0.3400358259677887
2024-12-07 20:12:58.421266000,3.186265869140625,-0.2404321134090423,0.175615057349205,-0.3973655104637146
2024-12-07 20:12:58.431279600,3.196279541015625,-0.199843943119049,0.189474418759346,-0.4102080762386322
2024-12-07 20:12:58.441293800,3.2062939453125,-0.1469601392745971,0.1691668182611465,-0.3909931778907776
2024-12-07 20:12:58.451307300,3.216307373046875,-0.1137047260999679,0.0798877924680709,-0.3474462330341339
2024-12-07 20:12:58.461320400,3.226320556640625,-0.0620960816740989,-0.0635726228356361,-0.3024671077728271
2024-12-07 20:12:58.471334100,3.236334228515625,0.0099445609375834,-0.1606467068195343,-0.2624882757663727
2024-12-07 20:12:58.481348400,3.246348388671875,0.0484317131340503,-0.1511105298995971,-0.2099357694387436
2024-12-07 20:12:58.491362300,3.2563623046875,0.0454889200627803,-0.0830004587769508,-0.1761144250631332
2024-12-07 20:12:58.501376500,3.26637646484375,0.0235801450908184,-0.0506975464522838,-0.1607004255056381
2024-12-07 20:12:58.511390200,3.27639013671875,-0.0127416430041193,-0.0613326132297515,-0.1527652591466903
2024-12-07 20:12:58.521403400,3.2864033203125,-0.0334234200417995,-0.0880603939294815,-0.1514709442853927
2024-12-07 20:12:58.531417300,3.296417236328125,-0.0478726662695407,-0.1213576272130012,-0.1631851196289062
2024-12-07 20:12:58.541431600,3.306431640625,-0.0535043701529502,-0.1354035139083862,-0.1899497658014297
2024-12-07 20:12:58.551445200,3.3164453125,-0.0440312400460243,-0.1460678875446319,-0.2229095846414566
2024-12-07 20:12:58.561459200,3.326459228515625,-0.0289321169257164,-0.1258286833763122,-0.2571756541728973
2024-12-07 20:12:58.571473400,3.336473388671875,-0.0093197999522089,-0.0988657772541046,-0.2807038724422455
2024-12-07 20:12:58.581486300,3.346486328125,0.0154381608590483,-0.0813432931900024,-0.2730898559093475
2024-12-07 20:12:58.591500300,3.356500244140625,0.0401208698749542,-0.0715987831354141,-0.2376181483268737
2024-12-07 20:12:58.601514200,3.36651416015625,0.0457713492214679,-0.0282043665647506,-0.2040528059005737
2024-12-07 20:12:58.611528400,3.376528564453125,0.028867732733488,0.0506451725959777,-0.1793762147426605
2024-12-07 20:12:58.621542100,3.386542236328125,0.0005364776588976,0.1055671051144599,-0.1537380665540695
2024-12-07 20:12:58.631556400,3.396556396484375,-0.0317186638712883,0.1222864314913749,-0.1292351186275482
2024-12-07 20:12:58.641569300,3.4065693359375,-0.0642280578613281,0.1323038041591644,-0.1179407909512519
2024-12-07 20:12:58.651583500,3.41658349609375,-0.0798203349113464,0.1442573964595794,-0.1303258389234542
2024-12-07 20:12:58.661597200,3.42659716796875,-0.0673643797636032,0.1381132006645202,-0.1595723778009414
2024-12-07 20:12:58.671611400,3.436611328125,-0.0651177391409874,0.1248176246881485,-0.1788840144872665
2024-12-07 20:12:58.681625300,3.446625244140625,-0.0527851656079292,0.1324928551912307,-0.1940448582172393
2024-12-07 20:12:58.691639300,3.456639404296875,-0.0417575500905513,0.1742709279060363,-0.2152042090892791
2024-12-07 20:12:58.701652200,3.46665234375,-0.0446760095655918,0.2503955662250519,-0.2365404367446899
2024-12-07 20:12:58.711666400,3.47666650390625,-0.0330491811037063,0.339221328496933,-0.2489427626132965
2024-12-07 20:12:58.721680400,3.486680419921875,-0.0152028715237975,0.3909309804439544,-0.2628182470798492
2024-12-07 20:12:58.731694300,3.4966943359375,-0.0035584650468081,0.3797845840454101,-0.2560913562774658
2024-12-07 20:12:58.741708300,3.506708251953125,0.0029995189979672,0.3609852492809295,-0.2301686108112335
2024-12-07 20:12:58.751722200,3.51672216796875,-0.0050988877192139,0.341678112745285,-0.1875244677066803
2024-12-07 20:12:58.761736400,3.526736328125,-0.006195530295372,0.3361541926860809,-0.1491269916296005
2024-12-07 20:12:58.771749400,3.536749267578125,-0.0102203655987977,0.3589527010917663,-0.1275916099548339
2024-12-07 20:12:58.781763300,3.546763427734375,-0.0085773114114999,0.3871821463108063,-0.1164648681879043
2024-12-07 20:12:58.791777300,3.55677734375,-0.0083288382738828,0.4157317578792572,-0.1063118353486061
2024-12-07 20:12:58.801791500,3.56679150390625,-0.0045919558033347,0.4537047445774078,-0.1225683242082595
2024-12-07 20:12:58.811805200,3.57680517578125,-0.0154209015890955,0.4639363288879394,-0.1341506838798523
2024-12-07 20:12:58.821819400,3.5868193359375,-0.0102343102917075,0.4564422070980072,-0.1208162084221839
2024-12-07 20:12:58.831832300,3.596832275390625,-0.0031790647190064,0.455636590719223,-0.1151620596647262
2024-12-07 20:12:58.841846300,3.60684619140625,-0.0101969614624977,0.4202202558517456,-0.1045104563236236
2024-12-07 20:12:58.851860200,3.616860107421875,-0.0128569267690181,0.3828411996364593,-0.0970506742596626
2024-12-07 20:12:58.861874400,3.62687451171875,-0.0164179895073175,0.3537113070487976,-0.1088397279381752
2024-12-07 20:12:58.871888400,3.636888427734375,-0.0354838259518146,0.3277097940444946,-0.1142600625753402
2024-12-07 20:12:58.881902300,3.64690234375,-0.0643109008669853,0.3053595721721649,-0.1176314353942871
2024-12-07 20:12:58.891915300,3.656915283203125,-0.0903893709182739,0.2910570502281189,-0.1063050106167793
2024-12-07 20:12:58.901929500,3.666929443359375,-0.1142961233854293,0.3030727207660675,-0.0840133130550384
2024-12-07 20:12:58.911943400,3.676943359375,-0.1287378966808319,0.3221012651920318,-0.0676156878471374
2024-12-07 20:12:58.921957400,3.686957275390625,-0.1425852626562118,0.2998037934303283,-0.0630852282047271
2024-12-07 20:12:58.931971300,3.696971435546875,-0.1521023362874984,0.2418792396783828,-0.0525068826973438
2024-12-07 20:12:58.941985300,3.7069853515625,-0.1350152641534805,0.1706279665231704,-0.0724696666002273
2024-12-07 20:12:58.951998200,3.716998291015625,-0.1095857992768287,0.0740668028593063,-0.1069402992725372
2024-12-07 20:12:58.962012400,3.727012451171875,-0.0911526009440422,0.070762038230896,-0.1537532806396484
2024-12-07 20:12:58.972026400,3.7370263671875,-0.0866039246320724,0.1888782978057861,-0.2074279636144638
2024-12-07 20:12:58.982040300,3.747040283203125,-0.0750097259879112,0.3553966581821441,-0.2429180294275283
2024-12-07 20:12:58.992054300,3.75705419921875,-0.0234080534428358,0.4721310138702392,-0.247444599866867
2024-12-07 20:12:59.002068200,3.767068115234375,0.0458657070994377,0.5312322974205017,-0.2274039089679718
2024-12-07 20:12:59.012081400,3.777081298828125,0.0946838483214378,0.5908790826797485,-0.1939735114574432
2024-12-07 20:12:59.022095000,3.78709521484375,0.1030695736408233,0.6113527417182922,-0.1487097293138504
2024-12-07 20:12:59.032109300,3.797109375,0.0850809887051582,0.5918022394180298,-0.0980779752135276
2024-12-07 20:12:59.042123300,3.807123291015625,0.0728247836232185,0.5337759256362915,-0.0656412243843078
2024-12-07 20:12:59.052137500,3.817137451171875,0.0582205466926097,0.4520275890827179,-0.0502391010522842
2024-12-07 20:12:59.062151400,3.8271513671875,0.0353314280509948,0.3712221384048462,-0.046867735683918
2024-12-07 20:12:59.072164400,3.837164306640625,0.0275597888976335,0.3504414856433868,-0.0434815250337123
2024-12-07 20:12:59.082178300,3.84717822265625,0.026896646246314,0.3532397747039795,-0.0410144701600074
2024-12-07 20:12:59.092192500,3.857192626953125,0.0198350083082914,0.3369643986225128,-0.0299948435276746
2024-12-07 20:12:59.102206200,3.867206298828125,0.0030839573591947,0.3398138284683227,-0.0008546290919184
2024-12-07 20:12:59.112220200,3.87722021484375,-0.0104784574359655,0.3458277881145477,0.0105413030833005
2024-12-07 20:12:59.122234400,3.887234375,-0.0228417906910181,0.3562957048416137,0.0045067323371768
2024-12-07 20:12:59.132248300,3.897248291015625,-0.0302981082350015,0.3456124365329742,-0.0140166189521551
2024-12-07 20:12:59.142261200,3.90726123046875,-0.0263373795896768,0.3024499714374542,-0.0279877372086048
2024-12-07 20:12:59.152275200,3.917275146484375,-0.0155142936855554,0.2458191812038421,-0.0479020550847053
2024-12-07 20:12:59.162289400,3.927289306640625,-0.0206060260534286,0.1832973062992096,-0.076227530837059
2024-12-07 20:12:59.172303400,3.937303466796875,-0.0287502389401197,0.1388398259878158,-0.1092957407236099
2024-12-07 20:12:59.182317300,3.9473173828125,-0.0371978841722011,0.1044585332274437,-0.1292906105518341
2024-12-07 20:12:59.192331300,3.957331298828125,-0.0474875420331954,0.0744644105434417,-0.1385767757892608
2024-12-07 20:12:59.202344400,3.967344482421875,-0.0517656132578849,0.0551214180886745,-0.1561838090419769
2024-12-07 20:12:59.212358100,3.977358154296875,-0.0580882243812084,0.0360286831855773,-0.1851028054952621
2024-12-07 20:12:59.222372400,3.987372314453125,-0.0656347721815109,0.0073868199251592,-0.2214942723512649
2024-12-07 20:12:59.232386300,3.99738623046875,-0.0813455581665039,-0.0147760063409805,-0.2455631345510482
2024-12-07 20:12:59.242400500,4.007400390625,-0.1032409816980362,-0.0401439480483531,-0.2575398981571197
2024-12-07 20:12:59.252414200,4.017414306640625,-0.1230165511369705,-0.0638194531202316,-0.2475434690713882
2024-12-07 20:12:59.262427400,4.027427490234375,-0.1330306380987167,-0.0750463455915451,-0.2300123274326324
2024-12-07 20:12:59.272441300,4.03744140625,-0.1401585936546325,-0.0587531253695488,-0.2200076431035995
2024-12-07 20:12:59.282455300,4.047455322265625,-0.1414397060871124,-0.0156496446579694,-0.2137952148914337
2024-12-07 20:12:59.292469200,4.05746923828125,-0.1444892883300781,0.0471884384751319,-0.2067295908927917
2024-12-07 20:12:59.302483200,4.067483154296875,-0.1571618765592575,0.1238307282328605,-0.1972716152667999
2024-12-07 20:12:59.312497400,4.077497314453125,-0.173840194940567,0.1892044097185135,-0.1891015768051147
2024-12-07 20:12:59.322510300,4.08751025390625,-0.1868342608213424,0.2311942130327224,-0.1773266792297363
2024-12-07 20:12:59.332524300,4.097524169921875,-0.1806352138519287,0.2601893544197082,-0.1682487577199936
2024-12-07 20:12:59.342538200,4.107538330078125,-0.1691270172595977,0.2940636575222015,-0.1722133457660675
2024-12-07 20:12:59.352552400,4.117552490234375,-0.196453183889389,0.2982687950134277,-0.1787274479866027
2024-12-07 20:12:59.362566100,4.127566162109375,-0.2087109982967376,0.2858555614948272,-0.1844490021467209
2024-12-07 20:12:59.372580400,4.137580322265625,-0.1952668279409408,0.2696233093738556,-0.1879830211400985
2024-12-07 20:12:59.382593300,4.14759326171875,-0.1904067099094391,0.2713493704795837,-0.1714927703142166
2024-12-07 20:12:59.392607200,4.157607177734375,-0.1939471215009689,0.3138033449649811,-0.1385076493024826
2024-12-07 20:12:59.402621200,4.16762109375,-0.1904505938291549,0.3924723863601684,-0.1017739549279213
2024-12-07 20:12:59.412635400,4.177635498046875,-0.1864808946847915,0.4621295034885406,-0.0590291507542133
2024-12-07 20:12:59.422649300,4.1876494140625,-0.1805530190467834,0.4909091591835022,-0.0180140025913715
2024-12-07 20:12:59.432663300,4.197663330078125,-0.1788869500160217,0.4656389653682709,0.0236322432756423
2024-12-07 20:12:59.442676200,4.20767626953125,-0.1777269095182418,0.3987786173820495,0.0546421632170677
2024-12-07 20:12:59.452691000,4.21769091796875,-0.1660798490047454,0.3340076208114624,0.0662247836589813
2024-12-07 20:12:59.462705000,4.227704833984375,-0.1510054916143417,0.30231374502182,0.0474418997764587
2024-12-07 20:12:59.472718600,4.237718505859375,-0.1540310978889465,0.2879433333873749,0.011224771849811
2024-12-07 20:12:59.482732800,4.24773291015625,-0.1763932555913925,0.3131824433803558,-0.0278491768985986
2024-12-07 20:12:59.492746800,4.257746826171875,-0.220080554485321,0.3706819415092468,-0.0679353401064872
2024-12-07 20:12:59.502761000,4.267760986328125,-0.2452250272035598,0.4253728687763214,-0.0921285673975944
2024-12-07 20:12:59.512773600,4.277773681640625,-0.2334658354520797,0.4515317678451538,-0.1097877249121666
2024-12-07 20:12:59.522787800,4.287787841796875,-0.2366192489862442,0.4579361379146576,-0.1179819703102111
2024-12-07 20:12:59.532801800,4.2978017578125,-0.2510706186294555,0.4514428079128265,-0.1286857575178146
2024-12-07 20:12:59.542816000,4.30781591796875,-0.268993079662323,0.4329692423343658,-0.1407559812068939
2024-12-07 20:12:59.552829700,4.31782958984375,-0.2819647789001465,0.401054710149765,-0.1584633290767669
2024-12-07 20:12:59.562844000,4.327843994140625,-0.2885160148143768,0.3603492081165313,-0.1774249076843261
2024-12-07 20:12:59.572856800,4.33785693359375,-0.2849460542201996,0.322272926568985,-0.1981024891138076
2024-12-07 20:12:59.582870800,4.347870849609375,-0.2751050293445587,0.2950098812580108,-0.2244171500205993
2024-12-07 20:12:59.592884700,4.357884765625,-0.2686205208301544,0.2745554447174072,-0.2527100145816803
2024-12-07 20:12:59.602899000,4.36789892578125,-0.2587857842445373,0.2347585409879684,-0.2678695619106293
2024-12-07 20:12:59.612913000,4.377912841796875,-0.2273629009723663,0.1708799600601196,-0.2610952854156494
2024-12-07 20:12:59.622926600,4.387926513671875,-0.1941245198249817,0.0994550287723541,-0.2394003719091415
2024-12-07 20:12:59.632939800,4.397939697265625,-0.1693762987852096,0.0293609015643596,-0.2136928886175155
2024-12-07 20:12:59.642954000,4.4079541015625,-0.1359920352697372,-0.0108032720163464,-0.2009395658969879
2024-12-07 20:12:59.652968000,4.417968017578125,-0.1135716885328292,-0.0456038638949394,-0.2054909169673919
2024-12-07 20:12:59.662981600,4.427981689453125,-0.1104872301220893,-0.0875861048698425,-0.210601344704628
2024-12-07 20:12:59.672995800,4.437995849609375,-0.0777732208371162,-0.1331360042095184,-0.2050750106573104
2024-12-07 20:12:59.683009800,4.448009765625,-0.0432684086263179,-0.1406226307153701,-0.1787433326244354
2024-12-07 20:12:59.693022700,4.458022705078125,-0.0221162550151348,-0.0894763693213462,-0.1411626636981964
2024-12-07 20:12:59.703036700,4.46803662109375,-0.0201208461076021,0.0131005588918924,-0.0944513082504272
2024-12-07 20:12:59.713051000,4.47805078125,-0.0426956638693809,0.134147360920906,-0.0436893254518508
2024-12-07 20:12:59.723064800,4.48806494140625,-0.0913427323102951,0.2287594079971313,0.0160850118845701
2024-12-07 20:12:59.733078800,4.498078857421875,-0.160404086112976,0.2739191353321075,0.0887501612305641
2024-12-07 20:12:59.743092700,4.5080927734375,-0.1956797689199447,0.2823102474212646,0.1451495140790939
2024-12-07 20:12:59.753107000,4.51810693359375,-0.2191917598247528,0.2905415296554565,0.1703728437423706
2024-12-07 20:12:59.763119900,4.528119873046875,-0.2122107148170471,0.3139817416667938,0.1779099851846695
2024-12-07 20:12:59.773133800,4.5381337890625,-0.2029716819524765,0.322296142578125,0.1711910963058471
2024-12-07 20:12:59.783147800,4.548147705078125,-0.200361743569374,0.3033446371555328,0.1598688513040542
2024-12-07 20:12:59.793162000,4.558161865234375,-0.1856051683425903,0.2658028602600097,0.145558625459671
2024-12-07 20:12:59.803176000,4.568176025390625,-0.1625404357910156,0.238406240940094,0.1266966760158538
2024-12-07 20:12:59.813189600,4.578189697265625,-0.1358427852392196,0.226353570818901,0.1114748418331146
2024-12-07 20:12:59.823202800,4.588202880859375,-0.105149008333683,0.2265858799219131,0.099225029349327
2024-12-07 20:12:59.833217000,4.598217041015625,-0.0883007869124412,0.2312605232000351,0.0959567949175834
2024-12-07 20:12:59.843230700,4.608230712890625,-0.0802107825875282,0.2369390577077865,0.1021080166101455
2024-12-07 20:12:59.853244700,4.61824462890625,-0.0741518288850784,0.2381758242845535,0.1180201396346092
2024-12-07 20:12:59.863259000,4.6282587890625,-0.0857658237218856,0.2108565717935562,0.1394562125205993
2024-12-07 20:12:59.873272800,4.63827294921875,-0.0912854969501495,0.1823689937591552,0.1602030396461486
2024-12-07 20:12:59.883285800,4.64828564453125,-0.0875780060887336,0.1713513880968094,0.1850898712873459
2024-12-07 20:12:59.893299700,4.6582998046875,-0.0667113438248634,0.193163201212883,0.2096213102340698
2024-12-07 20:12:59.903314000,4.66831396484375,-0.0627392157912254,0.2042776346206665,0.2387517541646957
2024-12-07 20:12:59.913327900,4.678327880859375,-0.055786233395338,0.2123012095689773,0.2643543183803558
2024-12-07 20:12:59.923341800,4.688341796875,-0.0570321083068847,0.2027284055948257,0.2826740443706512
2024-12-07 20:12:59.933355800,4.698355712890625,-0.0531295128166675,0.1933559477329254,0.2983046472072601
2024-12-07 20:12:59.943369000,4.708368896484375,-0.0395341962575912,0.1891712695360183,0.3040283620357513
2024-12-07 20:12:59.953382700,4.718382568359375,-0.0309194009751081,0.1748967319726944,0.3017489612102508
2024-12-07 20:12:59.963396900,4.72839697265625,-0.0148807605728507,0.1668686270713806,0.2933810353279114
2024-12-07 20:12:59.973410800,4.738410888671875,-0.0050140153616666,0.1278663724660873,0.2895495295524597
2024-12-07 20:12:59.983425000,4.748425048828125,0.012362128123641,0.1008577942848205,0.2932858169078827
2024-12-07 20:12:59.993438700,4.758438720703125,0.0325563438236713,0.0659003406763076,0.2974741756916046
2024-12-07 20:13:00.003452700,4.76845263671875,0.0506713315844535,0.0194290056824684,0.2992483377456665
2024-12-07 20:13:00.013465900,4.7784658203125,0.0701169297099113,-0.0192904267460107,0.3005282580852508
2024-12-07 20:13:00.023480000,4.78847998046875,0.0934047102928161,-0.0443476736545562,0.3142841160297394
2024-12-07 20:13:00.033493800,4.79849365234375,0.1177886128425598,-0.0465620905160903,0.3463949263095855
2024-12-07 20:13:00.043507700,4.8085078125,0.1492842584848404,-0.0353750512003898,0.3857485353946686
2024-12-07 20:13:00.053522000,4.81852197265625,0.1854105740785598,-0.0252118930220603,0.4353469908237457
2024-12-07 20:13:00.063535900,4.828535888671875,0.2229967266321182,-0.0200492348521947,0.4834238588809967
2024-12-07 20:13:00.073548800,4.838548828125,0.2568260431289673,-0.0494931451976299,0.5299340486526489
2024-12-07 20:13:00.083562800,4.848562744140625,0.2698003649711609,-0.1022599264979362,0.5739601254463196
2024-12-07 20:13:00.093577000,4.858576904296875,0.288873940706253,-0.1464582830667495,0.6122074127197266
2024-12-07 20:13:00.103590700,4.868590576171875,0.327330619096756,-0.1656903177499771,0.6358783841133118
2024-12-07 20:13:00.113604900,4.87860498046875,0.3765471577644348,-0.1630870848894119,0.650738537311554
2024-12-07 20:13:00.123618800,4.888618896484375,0.4142029583454132,-0.1546443551778793,0.6589293479919434
2024-12-07 20:13:00.133631700,4.8986318359375,0.4539082944393158,-0.1337297409772873,0.6921879649162292
2024-12-07 20:13:00.143645700,4.908645751953125,0.4652335345745086,-0.1129849180579185,0.7710376381874084
2024-12-07 20:13:00.153660000,4.918659912109375,0.4559534788131714,-0.086383931338787,0.8981500864028931
2024-12-07 20:13:00.163673900,4.928673828125,0.4909552335739136,-0.0225626528263092,1.0204787254333496
2024-12-07 20:13:00.173687800,4.938687744140625,0.5725025534629822,0.0657062232494354,1.1039470434188845
2024-12-07 20:13:00.183701800,4.94870166015625,0.6516172289848328,0.1734456866979599,1.1491971015930176
2024-12-07 20:13:00.193715000,4.95871484375,0.7205789685249329,0.2948597371578216,1.163163423538208
2024-12-07 20:13:00.203729000,4.96872900390625,0.7800430655479431,0.4352504312992096,1.1584017276763916
2024-12-07 20:13:00.213742800,4.978742919921875,0.8487387895584106,0.5812379717826843,1.1422311067581177
2024-12-07 20:13:00.223756800,4.9887568359375,0.9094550013542176,0.6932412385940552,1.120941996574402
2024-12-07 20:13:00.233770800,4.998770751953125,0.947150707244873,0.7781606912612915,1.0977604389190674
2024-12-07 20:13:00.243785000,5.008784912109375,0.9612648487091064,0.8453503847122192,1.08397376537323
2024-12-07 20:13:00.253798700,5.018798583984375,0.9589968919754028,0.9191470742225648,1.0834685564041138
2024-12-07 20:13:00.263811800,5.028811767578125,0.9676334857940674,0.9582507014274596,1.0737524032592771
2024-12-07 20:13:00.273825800,5.03882568359375,0.9930281043052672,0.9502657055854796,1.0341060161590576
2024-12-07 20:13:00.283839700,5.04883984375,1.0529643297195437,0.8109028935432434,0.9224011898040771
2024-12-07 20:13:00.293853700,5.058853759765625,1.09582257270813,0.5957759618759155,0.7479667663574219
2024-12-07 20:13:00.303868000,5.068867919921875,1.096222162246704,0.416957825422287,0.5775943994522095
2024-12-07 20:13:00.313881900,5.0788818359375,1.089402675628662,0.2851254940032959,0.4650755524635315
2024-12-07 20:13:00.323894800,5.088894775390625,1.0753318071365356,0.1672264784574508,0.4193073809146881
2024-12-07 20:13:00.333908700,5.09890869140625,1.0617296695709229,0.0701587870717048,0.411883533000946
2024-12-07 20:13:00.343923000,5.1089228515625,1.027820110321045,0.0253059715032577,0.4018328785896301
2024-12-07 20:13:00.353937000,5.11893701171875,0.966200351715088,0.0716550946235656,0.3802199959754944
2024-12-07 20:13:00.363950800,5.128950927734375,0.905777096748352,0.0686521604657173,0.3380591571331024
2024-12-07 20:13:00.373964800,5.13896484375,0.8787702322006226,-0.0816630423069,0.2940086126327514
2024-12-07 20:13:00.383978000,5.14897802734375,0.8724081516265869,-0.2857217788696289,0.2589085698127746
2024-12-07 20:13:00.393991700,5.15899169921875,0.8429712057113647,-0.4578211009502411,0.2473485916852951
2024-12-07 20:13:00.404006000,5.169005859375,0.780263364315033,-0.5282464623451233,0.2460294812917709
2024-12-07 20:13:00.414019800,5.179019775390625,0.7166221141815186,-0.5103535056114197,0.2200692594051361
2024-12-07 20:13:00.424033800,5.18903369140625,0.671425998210907,-0.5112782716751099,0.1662287712097168
2024-12-07 20:13:00.434048000,5.199048095703125,0.6270433068275452,-0.5783174633979797,0.1007174104452133
2024-12-07 20:13:00.444061000,5.20906103515625,0.5614275336265564,-0.6988829970359802,0.0314592197537422
2024-12-07 20:13:00.454075400,5.219075439453125,0.4755586683750152,-0.7908869981765747,-0.0434288680553436
2024-12-07 20:13:00.464089000,5.229089111328125,0.3901963233947754,-0.8400153517723083,-0.1083272024989128
2024-12-07 20:13:00.474103300,5.239103271484375,0.2989183366298675,-0.8247423768043518,-0.1409858167171478
2024-12-07 20:13:00.484117200,5.2491171875,0.2267369925975799,-0.7759767174720764,-0.1485220491886139
2024-12-07 20:13:00.494131200,5.259131103515625,0.1763092428445816,-0.7451197504997253,-0.1356605738401413
2024-12-07 20:13:00.504145200,5.269145263671875,0.1389306336641311,-0.729091227054596,-0.119436889886856
2024-12-07 20:13:00.514158300,5.279158447265625,0.1099357232451438,-0.7010848522186279,-0.0937187448143959
2024-12-07 20:13:00.524172300,5.28917236328125,0.1031007543206214,-0.6488401293754578,-0.0656787604093551
2024-12-07 20:13:00.534186200,5.299186279296875,0.0977334156632423,-0.5524619221687317,-0.0452757440507411
2024-12-07 20:13:00.544200200,5.3092001953125,0.0818741396069526,-0.4158862829208374,-0.0301721077412366
2024-12-07 20:13:00.554214100,5.319214111328125,0.0622024349868297,-0.3281420469284057,-0.0326110273599624
2024-12-07 20:13:00.564228400,5.329228271484375,0.0493185967206954,-0.3209207952022552,-0.0541822016239166
2024-12-07 20:13:00.574241300,5.3392412109375,0.043985616415739,-0.3720178008079529,-0.0837334394454956
2024-12-07 20:13:00.584255200,5.349255126953125,0.0492927469313144,-0.4370671212673187,-0.1167699471116066
2024-12-07 20:13:00.594269200,5.359269287109375,0.0587696060538291,-0.4659669399261474,-0.1499172449111938
2024-12-07 20:13:00.604283400,5.369283447265625,0.0726961642503738,-0.4388042688369751,-0.1843620836734771
2024-12-07 20:13:00.614297000,5.379297119140625,0.0958382338285446,-0.3546339869499206,-0.2052018493413925
2024-12-07 20:13:00.624311300,5.389311279296875,0.1143787205219268,-0.2712309658527374,-0.2051664143800735
2024-12-07 20:13:00.634324200,5.39932421875,0.0998469144105911,-0.2352753728628158,-0.1955718398094177
2024-12-07 20:13:00.644338200,5.409338134765625,0.0549361519515514,-0.2568498253822326,-0.1960819363594055
2024-12-07 20:13:00.654352100,5.41935205078125,-0.0021356565412133,-0.3101423382759094,-0.2144130170345306
2024-12-07 20:13:00.664366300,5.429366455078125,-0.064723789691925,-0.365896999835968,-0.2481016665697097
2024-12-07 20:13:00.674380300,5.43938037109375,-0.1159227937459945,-0.4177846908569336,-0.2858826220035553
2024-12-07 20:13:00.684394200,5.449394287109375,-0.1515685319900512,-0.5092899799346924,-0.3128531277179718
2024-12-07 20:13:00.694407200,5.4594072265625,-0.1657149791717529,-0.6075690984725952,-0.3272879719734192
2024-12-07 20:13:00.704421400,5.46942138671875,-0.1541123986244201,-0.6552389860153198,-0.3381317555904388
2024-12-07 20:13:00.714435300,5.479435302734375,-0.1248171105980873,-0.6730712652206421,-0.3512885570526123
2024-12-07 20:13:00.724449300,5.48944921875,-0.0874060243368148,-0.7075816988945007,-0.3700978457927704
2024-12-07 20:13:00.734463200,5.499463134765625,-0.0403583571314811,-0.6754195094108582,-0.3737975060939789
2024-12-07 20:13:00.744477200,5.509477294921875,0.0320682898163795,-0.5871489644050598,-0.3419120907783508
2024-12-07 20:13:00.754490000,5.519489990234375,0.1228003203868866,-0.5097271203994751,-0.2872469425201416
2024-12-07 20:13:00.764504300,5.52950439453125,0.1953718066215515,-0.464812159538269,-0.2516372799873352
2024-12-07 20:13:00.774518300,5.539518310546875,0.2214239090681076,-0.4500132203102112,-0.2492728978395462
2024-12-07 20:13:00.784532200,5.5495322265625,0.2148212343454361,-0.4704113900661468,-0.2745642066001892
2024-12-07 20:13:00.794546200,5.559546142578125,0.1869073212146759,-0.5057584643363953,-0.316425085067749
2024-12-07 20:13:00.804560100,5.56956005859375,0.1474262177944183,-0.5182974934577942,-0.3647717535495758
2024-12-07 20:13:00.814574300,5.57957421875,0.1004738882184028,-0.541683554649353,-0.3862197995185852
2024-12-07 20:13:00.824587300,5.589587158203125,0.0474853105843067,-0.5654097199440002,-0.386298269033432
2024-12-07 20:13:00.834601200,5.599601318359375,-0.0074298684485256,-0.5489926934242249,-0.3742823600769043
2024-12-07 20:13:00.844615200,5.609615234375,-0.0626355186104774,-0.4967261552810669,-0.3669473528861999
2024-12-07 20:13:00.854629400,5.61962939453125,-0.1167464256286621,-0.4685693383216858,-0.3887272179126739
2024-12-07 20:13:00.864643300,5.629643310546875,-0.1687048822641372,-0.4733887016773224,-0.4374501705169678
2024-12-07 20:13:00.874657300,5.6396572265625,-0.2122273296117782,-0.5021865367889404,-0.5005699992179871
2024-12-07 20:13:00.884670200,5.649670166015625,-0.2503668963909149,-0.5099736452102661,-0.5637577176094055
2024-12-07 20:13:00.894684400,5.659684326171875,-0.2963309288024902,-0.5177138447761536,-0.6350350975990295
2024-12-07 20:13:00.904698000,5.669697998046875,-0.3419617414474487,-0.6062397360801697,-0.6908571124076843
2024-12-07 20:13:00.914712000,5.679712158203125,-0.3650508224964142,-0.6511022448539734,-0.6742150187492371
2024-12-07 20:13:00.924726300,5.689726318359375,-0.3348744213581085,-0.5292138457298279,-0.5570232272148132
2024-12-07 20:13:00.934740200,5.699740234375,-0.2349608689546585,-0.380382776260376,-0.4033806920051574
2024-12-07 20:13:00.944753200,5.709753173828125,-0.1079299822449684,-0.3432628214359283,-0.2924357950687408
2024-12-07 20:13:00.954767000,5.71976708984375,-0.0214952249079942,-0.364992082118988,-0.2115332335233688
2024-12-07 20:13:00.964781300,5.72978125,0.0115942228585481,-0.3392112553119659,-0.167302519083023
2024-12-07 20:13:00.974795300,5.739795166015625,0.0171194821596145,-0.2795202136039734,-0.1880269646644592
2024-12-07 20:13:00.984809200,5.749809326171875,0.0103353625163435,-0.2140504866838455,-0.2170742303133011
2024-12-07 20:13:00.994823200,5.7598232421875,-0.0026329003740102,-0.1957958489656448,-0.2255952805280685
2024-12-07 20:13:01.004837400,5.76983740234375,-0.0304060243070125,-0.1984866857528686,-0.2325533479452133
2024-12-07 20:13:01.014850000,5.77985009765625,-0.0786214917898178,-0.1685788482427597,-0.2500812113285064
2024-12-07 20:13:01.024864300,5.7898642578125,-0.1245080530643463,-0.0962038040161132,-0.2594506740570068
2024-12-07 20:13:01.034878200,5.799878173828125,-0.1514589786529541,-0.0220262445509433,-0.2580722272396087
2024-12-07 20:13:01.044892400,5.809892333984375,-0.1683766692876815,0.0396295636892318,-0.256550133228302
2024-12-07 20:13:01.054906000,5.819906005859375,-0.1821923553943634,0.0779796168208122,-0.2406052350997924
2024-12-07 20:13:01.064920000,5.829920166015625,-0.181287333369255,0.1264928132295608,-0.2376962602138519
2024-12-07 20:13:01.074933200,5.839933349609375,-0.1657342165708542,0.1896587312221527,-0.2646823227405548
2024-12-07 20:13:01.084947500,5.849947509765625,-0.1360416859388351,0.2044079601764679,-0.2955471575260162
2024-12-07 20:13:01.094961200,5.859961181640625,-0.099568635225296,0.1668030619621276,-0.3203877806663513
2024-12-07 20:13:01.104975000,5.86997509765625,-0.060571864247322,0.1093083173036575,-0.3249202072620392
2024-12-07 20:13:01.114989300,5.8799892578125,-0.0232103783637285,0.0744259655475616,-0.3102712035179138
2024-12-07 20:13:01.125003300,5.890003173828125,0.0010612469632178,0.0888130143284797,-0.2962868213653564
2024-12-07 20:13:01.135016200,5.90001611328125,0.0086629735305905,0.1255507916212082,-0.309095025062561
2024-12-07 20:13:01.145030100,5.910030029296875,-0.0143517591059207,0.1297359615564346,-0.3272814750671386
2024-12-07 20:13:01.155044400,5.92004443359375,-0.0683638602495193,0.1272006332874298,-0.3184408247470855
2024-12-07 20:13:01.165058000,5.93005810546875,-0.1325381249189376,0.1152283996343612,-0.2969387769699096
2024-12-07 20:13:01.175072300,5.940072265625,-0.1838404536247253,0.0935795679688453,-0.2832605242729187
2024-12-07 20:13:01.185086200,5.950086181640625,-0.22331003844738,0.0818089991807937,-0.2837881743907928
2024-12-07 20:13:01.195100400,5.960100341796875,-0.2528514266014099,0.0583311058580875,-0.2839682102203369
2024-12-07 20:13:01.205113000,5.970113037109375,-0.2715041041374206,0.0426507256925106,-0.285634845495224
2024-12-07 20:13:01.215127300,5.980127197265625,-0.2887738943099975,0.0734355375170707,-0.2832145690917969
2024-12-07 20:13:01.225141200,5.990141357421875,-0.2923342287540436,0.1462246030569076,-0.2703055143356323
2024-12-07 20:13:01.235155500,6.000155517578125,-0.2902897000312805,0.20204658806324,-0.2577231228351593
2024-12-07 20:13:01.245169200,6.010169189453125,-0.2817426919937134,0.2358466833829879,-0.2593554258346557
2024-12-07 20:13:01.255183000,6.02018310546875,-0.2723803520202636,0.2612492144107818,-0.2731276750564575
2024-12-07 20:13:01.265196300,6.0301962890625,-0.2569895386695862,0.2605734467506408,-0.2720833420753479
2024-12-07 20:13:01.275210200,6.040210205078125,-0.2437981069087982,0.2265891134738922,-0.2378939241170883
2024-12-07 20:13:01.285224200,6.05022412109375,-0.2179798483848571,0.1842658221721649,-0.1905140876770019
2024-12-07 20:13:01.295238100,6.060238037109375,-0.1913442462682724,0.1683092266321182,-0.163717895746231
2024-12-07 20:13:01.305252400,6.07025244140625,-0.1579822450876236,0.1856706142425537,-0.1610003858804702
2024-12-07 20:13:01.315266000,6.08026611328125,-0.1236365213990211,0.2144242376089096,-0.1847589761018753
2024-12-07 20:13:01.325279200,6.090279296875,-0.1090501993894577,0.1814832836389541,-0.1925039440393448
2024-12-07 20:13:01.335293200,6.100293212890625,-0.1061659976840019,0.1525791883468628,-0.1831700950860977
2024-12-07 20:13:01.345307400,6.110307373046875,-0.1041897386312484,0.1608532965183258,-0.1768940091133117
2024-12-07 20:13:01.355321000,6.120321044921875,-0.1217354387044906,0.1588242352008819,-0.1739477515220642
2024-12-07 20:13:01.365335300,6.130335205078125,-0.1382174491882324,0.1597253531217575,-0.1599279791116714
2024-12-07 20:13:01.375349200,6.140349365234375,-0.1603046506643295,0.1136931404471397,-0.136311873793602
2024-12-07 20:13:01.385362200,6.150362060546875,-0.1750487834215164,0.0395074486732482,-0.113917201757431
2024-12-07 20:13:01.395376000,6.160376220703125,-0.1936131417751312,-0.0122835785150527,-0.0965251624584198
2024-12-07 20:13:01.405390300,6.170390380859375,-0.2066839039325714,-0.0275416504591703,-0.0884205996990203
2024-12-07 20:13:01.415404300,6.180404296875,-0.2206433862447738,-0.0357875972986221,-0.0781016498804092
2024-12-07 20:13:01.425418200,6.190418212890625,-0.2315571159124374,-0.0413292497396469,-0.0681878924369812
2024-12-07 20:13:01.435432200,6.20043212890625,-0.2343124151229858,-0.0399209707975387,-0.0648815780878067
2024-12-07 20:13:01.445446100,6.210446044921875,-0.22263765335083,-0.0104426080361008,-0.0870612785220146
2024-12-07 20:13:01.455458800,6.220458740234375,-0.2024722099304199,0.0289769694209098,-0.1240161061286926
2024-12-07 20:13:01.465473000,6.23047314453125,-0.1828419715166092,0.0657926499843597,-0.166795402765274
2024-12-07 20:13:01.475487000,6.240487060546875,-0.170787438750267,0.1008457094430923,-0.2032761722803115
2024-12-07 20:13:01.485501000,6.2505009765625,-0.1552634686231613,0.1515771150588989,-0.2264497280120849
2024-12-07 20:13:01.495515000,6.260514892578125,-0.1265873461961746,0.2284750938415527,-0.2493545114994049
2024-12-07 20:13:01.505528800,6.27052880859375,-0.0952890962362289,0.3350633978843689,-0.2664968371391296
2024-12-07 20:13:01.515542000,6.2805419921875,-0.0620991885662078,0.4983916282653808,-0.2746996283531189
2024-12-07 20:13:01.525556000,6.290555908203125,-0.0339671038091182,0.6585157513618469,-0.258255660533905
2024-12-07 20:13:01.535570000,6.30056982421875,-0.0178011860698461,0.7594290375709534,-0.2116745710372924
2024-12-07 20:13:01.545583900,6.310583984375,0.0007714520907029,0.8216234445571899,-0.1604665219783783
2024-12-07 20:13:01.555598000,6.32059814453125,0.0205366350710392,0.8503850698471069,-0.1098270416259765
2024-12-07 20:13:01.565611800,6.33061181640625,0.0447526909410953,0.8486813902854919,-0.0600916296243667
2024-12-07 20:13:01.575625000,6.340625,0.0574397258460521,0.8385448455810547,-0.0247259214520454
2024-12-07 20:13:01.585639000,6.350638916015625,0.0592271909117698,0.7918372750282288,0.0029504199046641
2024-12-07 20:13:01.595653000,6.360653076171875,0.0463835634291172,0.6547949910163879,0.0269633438438177
2024-12-07 20:13:01.605666800,6.370666748046875,0.0266655683517456,0.528189480304718,0.039962962269783
2024-12-07 20:13:01.615681000,6.380680908203125,0.0042081954888999,0.4678925573825836,0.0517053715884685
2024-12-07 20:13:01.625695000,6.390695068359375,-0.0226820595562458,0.4260879755020141,0.0551801696419715
2024-12-07 20:13:01.635709000,6.400708984375,-0.0496976971626281,0.3797985017299652,0.0451461784541606
2024-12-07 20:13:01.645721900,6.410721923828125,-0.0730813890695571,0.3355884552001953,0.0246922764927148
2024-12-07 20:13:01.655736000,6.420736083984375,-0.0942678973078727,0.285734087228775,-0.0047716065309941
2024-12-07 20:13:01.665750000,6.43075,-0.1079261526465416,0.2529568672180176,-0.040605142712593
2024-12-07 20:13:01.675764000,6.440763916015625,-0.1265538930892944,0.2394170761108398,-0.0858115032315254
2024-12-07 20:13:01.685778000,6.45077783203125,-0.1443439126014709,0.2449169009923935,-0.1281718611717224
2024-12-07 20:13:01.695791900,6.4607919921875,-0.155262604355812,0.2612183690071106,-0.1637186706066131
2024-12-07 20:13:01.705805000,6.47080517578125,-0.15535369515419,0.2884711027145386,-0.1934577524662017
2024-12-07 20:13:01.715819000,6.480819091796875,-0.1512380391359329,0.3182234168052673,-0.2011321932077407
2024-12-07 20:13:01.725833000,6.4908330078125,-0.1447436660528183,0.3395108580589294,-0.1884669959545135
2024-12-07 20:13:01.735847000,6.500846923828125,-0.1365480422973632,0.3589982688426971,-0.1825015097856521
2024-12-07 20:13:01.745861000,6.510861083984375,-0.1376071870326995,0.3580206334590912,-0.2077107280492782
2024-12-07 20:13:01.755874800,6.520874755859375,-0.1492574512958526,0.3333759903907776,-0.242692157626152
2024-12-07 20:13:01.765888000,6.530887939453125,-0.1648795306682586,0.3298963904380798,-0.2514154016971588
2024-12-07 20:13:01.775902000,6.54090185546875,-0.1875568777322769,0.3206589519977569,-0.236999973654747
2024-12-07 20:13:01.785916000,6.550916015625,-0.2206187844276428,0.2995739579200744,-0.2063459604978561
2024-12-07 20:13:01.795929900,6.560929931640625,-0.2539029419422149,0.2705646753311157,-0.1760647445917129
2024-12-07 20:13:01.805944000,6.570944091796875,-0.2772465944290161,0.2694563269615173,-0.1691267788410186
2024-12-07 20:13:01.815958000,6.5809580078125,-0.2886563837528229,0.2894798517227173,-0.197246566414833
2024-12-07 20:13:01.825972000,6.590971923828125,-0.2974622547626495,0.3076569437980652,-0.2501126527786255
2024-12-07 20:13:01.835985000,6.60098486328125,-0.3150793313980102,0.3123630285263061,-0.3078691661357879
2024-12-07 20:13:01.845999000,6.6109990234375,-0.3317491114139557,0.341906875371933,-0.3465258181095123
2024-12-07 20:13:01.856013000,6.621012939453125,-0.3359925746917724,0.3666492402553558,-0.3453878462314605
2024-12-07 20:13:01.866026800,6.63102685546875,-0.3389966487884521,0.3718715310096741,-0.3086336553096771
2024-12-07 20:13:01.876041000,6.641041015625,-0.343265175819397,0.3614915907382965,-0.2757036685943603
2024-12-07 20:13:01.886055000,6.651054931640625,-0.3490883708000183,0.3297486007213592,-0.2513624131679535
2024-12-07 20:13:01.896067800,6.66106787109375,-0.3479067087173462,0.2669909596443176,-0.2320563793182373
2024-12-07 20:13:01.906081800,6.671081787109375,-0.3463096618652344,0.2019827961921692,-0.2174884676933288
2024-12-07 20:13:01.916096000,6.681095947265625,-0.3595461249351501,0.1880744397640228,-0.200513482093811
2024-12-07 20:13:01.926110000,6.69110986328125,-0.374998539686203,0.2462264895439148,-0.1950274407863617
2024-12-07 20:13:01.936124000,6.7011240234375,-0.3612563610076904,0.3452500104904175,-0.2058758288621902
2024-12-07 20:13:01.946137900,6.711137939453125,-0.3356381058692932,0.4446590840816498,-0.2017547786235809
2024-12-07 20:13:01.956151000,6.721151123046875,-0.3238645493984222,0.5169854760169983,-0.1672934740781784
2024-12-07 20:13:01.966164700,6.731164794921875,-0.3094416260719299,0.5632355213165283,-0.0946155190467834
2024-12-07 20:13:01.976179000,6.741178955078125,-0.3042119741439819,0.5693139433860779,0.0098030269145965
2024-12-07 20:13:01.986193000,6.75119287109375,-0.2761763632297516,0.5628623366355896,0.1051863431930542
2024-12-07 20:13:01.996207000,6.76120703125,-0.2260103821754455,0.5435618758201599,0.161671981215477
2024-12-07 20:13:02.006221000,6.771220947265625,-0.14743173122406,0.4916104972362518,0.177372932434082
2024-12-07 20:13:02.016234000,6.78123388671875,-0.0450662150979042,0.4490542411804199,0.1658422499895095
2024-12-07 20:13:02.026248000,6.791248046875,0.0518617331981658,0.458225280046463,0.1390898078680038
2024-12-07 20:13:02.036262100,6.80126220703125,0.1065106019377708,0.4992086589336395,0.1165032684803009
2024-12-07 20:13:02.046275800,6.81127587890625,0.161478191614151,0.4813499748706817,0.0944113582372665
2024-12-07 20:13:02.056289800,6.821289794921875,0.2322524935007095,0.3991885483264923,0.0671901255846023
2024-12-07 20:13:02.066304000,6.831303955078125,0.2930186092853546,0.3541615009307861,0.045722022652626
2024-12-07 20:13:02.076318000,6.84131787109375,0.3222619891166687,0.3855628371238708,0.0269006621092557
2024-12-07 20:13:02.086331000,6.851330810546875,0.3145016729831695,0.429496705532074,0.0151545768603682
2024-12-07 20:13:02.096344800,6.8613447265625,0.2541221976280212,0.4319872856140136,0.0172323752194643
2024-12-07 20:13:02.106359000,6.871359130859375,0.1447232067584991,0.3729735910892486,0.0607959739863872
2024-12-07 20:13:02.116373000,6.881373046875,0.0064084650948643,0.2934617400169372,0.1309098154306411
2024-12-07 20:13:02.126387000,6.891386962890625,-0.1096080839633941,0.224887728691101,0.1832364350557327
2024-12-07 20:13:02.136401000,6.90140087890625,-0.1877273768186569,0.1863943934440612,0.2067042142152786
2024-12-07 20:13:02.146414000,6.9114140625,-0.2210719734430313,0.1550634354352951,0.2158252000808715
2024-12-07 20:13:02.156427800,6.921427734375,-0.2317717671394348,0.1188279315829277,0.2142035961151123
2024-12-07 20:13:02.166442000,6.93144189453125,-0.22569340467453,0.0580477677285671,0.1994024515151977
2024-12-07 20:13:02.176456000,6.9414560546875,-0.2065806984901428,0.0042591067031025,0.1698229759931564
2024-12-07 20:13:02.186470100,6.95147021484375,-0.175874575972557,-0.0181690193712711,0.1247365102171897
2024-12-07 20:13:02.196483800,6.96148388671875,-0.1386047005653381,-0.0004342298489063,0.0789812728762626
2024-12-07 20:13:02.206497000,6.9714970703125,-0.0985639914870262,0.0339919924736022,0.0501423627138137
2024-12-07 20:13:02.216511000,6.981510986328125,-0.0641689971089363,0.0683792605996131,0.0517101660370826
2024-12-07 20:13:02.226525000,6.99152490234375,-0.0333634875714778,0.1101893857121467,0.0840104892849922
2024-12-07 20:13:02.236539000,7.001538818359375,-0.0113407429307699,0.1467173099517822,0.1324699074029922
2024-12-07 20:13:02.246552800,7.011552734375,-0.0038127796724438,0.1602322459220886,0.1777157336473465
2024-12-07 20:13:02.256567000,7.021567138671875,0.0023678843863308,0.1568468362092971,0.2375865280628204
2024-12-07 20:13:02.266581000,7.0315810546875,0.032804287970066,0.1202086806297302,0.3198760449886322
2024-12-07 20:13:02.276594000,7.041593994140625,0.0732401311397552,0.0755285620689392,0.3943641185760498
2024-12-07 20:13:02.286608000,7.05160791015625,0.1077326312661171,0.0564663372933864,0.4371447563171386
2024-12-07 20:13:02.296622000,7.0616220703125,0.1394799053668975,0.0524391047656536,0.4615739285945892
2024-12-07 20:13:02.306635800,7.0716357421875,0.1728221923112869,0.0474162846803665,0.4896322786808014
2024-12-07 20:13:02.316650000,7.08164990234375,0.2013694047927856,0.041335754096508,0.5227550864219666
2024-12-07 20:13:02.326664000,7.091663818359375,0.2273419499397277,0.0356856659054756,0.5585068464279175
2024-12-07 20:13:02.336676900,7.1016767578125,0.2483202069997787,0.02875692024827,0.590965211391449
2024-12-07 20:13:02.346690800,7.11169091796875,0.256829559803009,0.0389274358749389,0.6089898347854614
2024-12-07 20:13:02.356705000,7.121705078125,0.2541853189468384,0.0398656651377677,0.627853274345398
2024-12-07 20:13:02.366719000,7.131718994140625,0.2476543486118316,0.013933160342276,0.6492518186569214
2024-12-07 20:13:02.376733000,7.14173291015625,0.2590974271297455,-0.0296787656843662,0.6618677377700806
2024-12-07 20:13:02.386747000,7.151746826171875,0.309731662273407,-0.0460861586034297,0.6548816561698914
2024-12-07 20:13:02.396760800,7.1617607421875,0.3868165910243988,-0.0266275089234113,0.6233841776847839
2024-12-07 20:13:02.406774000,7.17177392578125,0.4541928172111511,0.0582847669720649,0.5700875520706177
2024-12-07 20:13:02.416788000,7.1817880859375,0.5073980093002319,0.1889908462762832,0.5274791121482849
2024-12-07 20:13:02.426802000,7.191802001953125,0.5400180220603943,0.2910115420818329,0.5272127389907837
2024-12-07 20:13:02.436816000,7.20181591796875,0.5435070395469666,0.3227545619010925,0.5615108013153076
2024-12-07 20:13:02.446830000,7.211830078125,0.5087358951568604,0.229802131652832,0.6153976321220398
2024-12-07 20:13:02.456843300,7.22184326171875,0.4372997879981994,0.0385570600628852,0.6884939670562744
2024-12-07 20:13:02.466856400,7.2318564453125,0.4129896759986877,-0.0467098988592624,0.7919297814369202
2024-12-07 20:13:02.476870700,7.24187060546875,0.451295256614685,0.0267797652631998,0.8961190581321716
2024-12-07 20:13:02.486884400,7.25188427734375,0.5110125541687012,0.1544293612241745,0.966342031955719
2024-12-07 20:13:02.496898300,7.261898193359375,0.5631825923919678,0.2809505462646484,0.993535578250885
2024-12-07 20:13:02.506912500,7.27191259765625,0.601705014705658,0.4250577986240387,0.9942387938499452
2024-12-07 20:13:02.516926500,7.281926513671875,0.6449518203735352,0.6220627427101135,0.9946275949478148
2024-12-07 20:13:02.526939400,7.291939453125,0.6975616812705994,0.8631166219711304,1.00306236743927
2024-12-07 20:13:02.536953300,7.301953369140625,0.7569970488548279,1.1061961650848389,1.0280739068984983
2024-12-07 20:13:02.546967600,7.311967529296875,0.8191720843315125,1.2802269458770752,1.0526047945022583
2024-12-07 20:13:02.556981500,7.3219814453125,0.886006772518158,1.3388092517852783,1.0427148342132568
2024-12-07 20:13:02.566995500,7.331995361328125,0.9402804374694824,1.2907212972640991,0.9865147471427916
2024-12-07 20:13:02.577009400,7.342009521484375,0.9741361141204834,1.1479265689849854,0.8856344223022461
2024-12-07 20:13:02.587022600,7.352022705078125,0.9901235103607178,0.9777187705039978,0.7506184577941895
2024-12-07 20:13:02.597036300,7.362036376953125,0.991892397403717,0.830281138420105,0.6011533737182617
2024-12-07 20:13:02.607050500,7.372050537109375,0.987910270690918,0.6270265579223633,0.43160480260849
2024-12-07 20:13:02.617064400,7.382064453125,0.9836121797561646,0.405406504869461,0.2428932189941406
2024-12-07 20:13:02.627078700,7.39207861328125,0.9889037013053894,0.1897942125797271,0.0853428691625595
2024-12-07 20:13:02.637092400,7.40209228515625,1.0070520639419556,0.0190853122621774,0.0239495448768138
2024-12-07 20:13:02.647106300,7.412106201171875,1.0206091403961182,-0.1273582726716995,0.068130686879158
2024-12-07 20:13:02.657119500,7.422119384765625,0.9898422360420228,-0.2574140131473541,0.1608270555734634
2024-12-07 20:13:02.667133400,7.432133544921875,0.9184224009513856,-0.4345897138118744,0.23892143368721
2024-12-07 20:13:02.677147400,7.4421474609375,0.8581372499465942,-0.6404997110366821,0.2716596722602844
2024-12-07 20:13:02.687161300,7.452161376953125,0.8109351396560669,-0.7639526128768921,0.245373398065567
2024-12-07 20:13:02.697175600,7.462175537109375,0.7661652565002441,-0.8195937275886536,0.1730033308267593
2024-12-07 20:13:02.707189500,7.472189453125,0.7224006056785583,-0.8296942710876465,0.0827812403440475
2024-12-07 20:13:02.717202400,7.482202392578125,0.6530194282531738,-0.788048267364502,-0.0081436075270175
2024-12-07 20:13:02.727216400,7.49221630859375,0.5624234676361084,-0.7807658910751343,-0.0905181020498275
2024-12-07 20:13:02.737230600,7.502230712890625,0.4581002295017242,-0.8228909969329834,-0.1518022418022155
2024-12-07 20:13:02.747244300,7.512244384765625,0.3501258492469787,-0.883136510848999,-0.1848240941762924
2024-12-07 20:13:02.757258500,7.522258544921875,0.2403564602136612,-0.9517666697502136,-0.2004134505987167
2024-12-07 20:13:02.767272400,7.5322724609375,0.1355518102645874,-0.9771285057067872,-0.2047626376152038
2024-12-07 20:13:02.777286700,7.54228662109375,0.0429656766355037,-0.9516060948371888,-0.1958839148283004
2024-12-07 20:13:02.787299300,7.55229931640625,-0.0263078548014163,-0.9096400737762452,-0.1853441745042801
2024-12-07 20:13:02.797313500,7.5623134765625,-0.0681080371141433,-0.7868614196777344,-0.1800258308649063
2024-12-07 20:13:02.807327500,7.572327392578125,-0.0954751223325729,-0.6414514780044556,-0.1744283735752105
2024-12-07 20:13:02.817341400,7.582341552734375,-0.1338917464017868,-0.5108620524406433,-0.1669776439666748
2024-12-07 20:13:02.827355400,7.59235546875,-0.179620549082756,-0.3767610788345337,-0.1527655720710754
2024-12-07 20:13:02.837369300,7.602369384765625,-0.2221927791833877,-0.2296829521656036,-0.1222747713327407
2024-12-07 20:13:02.847382500,7.612382568359375,-0.2500364780426025,-0.1260091662406921,-0.0823631733655929
2024-12-07 20:13:02.857396500,7.622396484375,-0.2497767955064773,-0.0995773002505302,-0.0498164147138595
2024-12-07 20:13:02.867410400,7.632410400390625,-0.2328054457902908,-0.1522624641656875,-0.0311746932566165
2024-12-07 20:13:02.877424400,7.64242431640625,-0.2089557647705078,-0.2401795387268066,-0.0234051886945962
2024-12-07 20:13:02.887438600,7.6524384765625,-0.1811586767435073,-0.3020748794078827,-0.0339171960949897
2024-12-07 20:13:02.897452300,7.662452392578125,-0.1439657807350158,-0.3088409006595611,-0.0814096108078956
2024-12-07 20:13:02.907465500,7.672465576171875,-0.1042776182293891,-0.2055816799402237,-0.1356807947158813
2024-12-07 20:13:02.917479400,7.6824794921875,-0.06776674836874,-0.0565088540315628,-0.1890236437320709
2024-12-07 20:13:02.927493400,7.692493408203125,-0.062917061150074,0.0456772372126579,-0.209671214222908
2024-12-07 20:13:02.937507300,7.70250732421875,-0.1031004339456558,0.0410201698541641,-0.1777055561542511
2024-12-07 20:13:02.947521500,7.712521484375,-0.1321414709091186,-0.0112006645649671,-0.1382902562618255
2024-12-07 20:13:02.957535500,7.722535400390625,-0.1292415559291839,-0.0336963832378387,-0.1145087629556655
2024-12-07 20:13:02.967549400,7.732549560546875,-0.1313617080450058,-0.0598154366016387,-0.1058733612298965
2024-12-07 20:13:02.977562400,7.742562255859375,-0.1345937103033065,-0.1003615334630012,-0.1204485744237899
2024-12-07 20:13:02.987576600,7.75257666015625,-0.1331413388252258,-0.1286516338586807,-0.1723457127809524
2024-12-07 20:13:02.997590500,7.762590576171875,-0.1172244325280189,-0.1588747799396515,-0.2614537477493286
2024-12-07 20:13:03.007604500,7.7726044921875,-0.0944721400737762,-0.2066188901662826,-0.3638128638267517
2024-12-07 20:13:03.017618400,7.782618408203125,-0.0625317841768264,-0.2898211181163788,-0.4567491710186004
2024-12-07 20:13:03.027632400,7.79263232421875,-0.0268501564860343,-0.3955371975898742,-0.4919250011444092
2024-12-07 20:13:03.037645300,7.802645263671875,-0.0069819083437323,-0.489588052034378,-0.4495085477828979
2024-12-07 20:13:03.047659500,7.812659423828125,0.0003860765136778,-0.5481661558151245,-0.3853253126144409
2024-12-07 20:13:03.057673500,7.822673583984375,0.0034780064597725,-0.5460995435714722,-0.3533495366573334
2024-12-07 20:13:03.067687400,7.8326875,-0.0125880781561136,-0.4374206364154815,-0.3522768914699554
2024-12-07 20:13:03.077701400,7.842701416015625,-0.0394066423177719,-0.3247955441474914,-0.3737275898456573
2024-12-07 20:13:03.087715300,7.85271533203125,-0.0628570392727851,-0.3350204229354858,-0.3795154988765716
2024-12-07 20:13:03.097728500,7.862728515625,-0.0832307562232017,-0.4359092116355896,-0.3669150173664093
2024-12-07 20:13:03.107742500,7.872742431640625,-0.0993902832269668,-0.4836602210998535,-0.3728107213973999
2024-12-07 20:13:03.117756400,7.88275634765625,-0.0922151952981948,-0.4384813010692596,-0.3964313566684723
2024-12-07 20:13:03.127770400,7.892770263671875,-0.040593184530735,-0.3943867683410644,-0.4094683825969696
2024-12-07 20:13:03.137784600,7.90278466796875,0.0321172401309013,-0.4076831340789795,-0.4154402613639831
2024-12-07 20:13:03.147798500,7.912798583984375,0.1155015975236892,-0.4619457423686981,-0.3968810439109802
2024-12-07 20:13:03.157812500,7.9228125,0.2125863432884216,-0.5164057612419128,-0.34078449010849
2024-12-07 20:13:03.167825400,7.932825439453125,0.3307068943977356,-0.5887936353683472,-0.2497896701097488
2024-12-07 20:13:03.177839600,7.942839599609375,0.4380908608436584,-0.6336034536361694,-0.1497237980365753
2024-12-07 20:13:03.187853300,7.952853271484375,0.4564938545227051,-0.6161457300186157,-0.1015910655260086
2024-12-07 20:13:03.197867500,7.962867431640625,0.3521128594875335,-0.5623775720596313,-0.1430642008781433
2024-12-07 20:13:03.207881500,7.972881591796875,0.1777842938899994,-0.5230731964111328,-0.2632741332054138
2024-12-07 20:13:03.217895400,7.9828955078125,0.0195919927209615,-0.4858549237251282,-0.3662670850753784
2024-12-07 20:13:03.227908400,7.992908447265625,-0.0795364379882812,-0.4210533201694488,-0.3896221816539764
2024-12-07 20:13:03.237922300,8.00292236328125,-0.1481743454933166,-0.2957848906517029,-0.3697978854179382
2024-12-07 20:13:03.247936500,8.0129365234375,-0.2140650004148483,-0.1554940491914749,-0.3486548364162445
2024-12-07 20:13:03.257950500,8.022950439453124,-0.2552601099014282,-0.086993284523487,-0.3176721334457397
2024-12-07 20:13:03.267964400,8.03296435546875,-0.2515859603881836,-0.0273909643292427,-0.3056079745292663
2024-12-07 20:13:03.277978400,8.042978271484374,-0.2296734601259231,0.0656050220131874,-0.3279180824756622
2024-12-07 20:13:03.287992600,8.05299267578125,-0.2281048595905304,0.1520607322454452,-0.3554582595825195
2024-12-07 20:13:03.298005200,8.063005126953126,-0.2330500781536102,0.1883843839168548,-0.3691881895065307
2024-12-07 20:13:03.308019500,8.07301953125,-0.2255914956331253,0.1706618964672088,-0.3364604115486145
2024-12-07 20:13:03.318033400,8.083033447265626,-0.1845998615026474,0.146646037697792,-0.272048145532608
2024-12-07 20:13:03.328047600,8.093047607421875,-0.1286666840314865,0.1488314718008041,-0.2215402573347091
2024-12-07 20:13:03.338061300,8.103061279296876,-0.0881115496158599,0.1522970497608184,-0.2072625160217285
2024-12-07 20:13:03.348075300,8.1130751953125,-0.0895266383886337,0.1583968997001648,-0.2202066928148269
2024-12-07 20:13:03.358088400,8.12308837890625,-0.1208834946155548,0.1796614378690719,-0.2379406839609146
2024-12-07 20:13:03.368102700,8.1331025390625,-0.1627936065196991,0.2009803801774978,-0.2490341514348983
2024-12-07 20:13:03.378116400,8.143116455078125,-0.2206638306379318,0.2069746255874633,-0.2435810565948486
2024-12-07 20:13:03.388130300,8.15313037109375,-0.270937442779541,0.1945190131664276,-0.222184956073761
2024-12-07 20:13:03.398144500,8.16314453125,-0.305795282125473,0.1989073753356933,-0.2160927206277847
2024-12-07 20:13:03.408158500,8.173158447265624,-0.3338688910007477,0.2115837335586547,-0.2226864099502563
2024-12-07 20:13:03.418171400,8.18317138671875,-0.3509336113929748,0.236319437623024,-0.2304580509662628
2024-12-07 20:13:03.428185300,8.193185302734374,-0.3576910197734833,0.2438091933727264,-0.2202305793762207
2024-12-07 20:13:03.438199600,8.203199462890625,-0.3505284488201141,0.2337909042835235,-0.2082468867301941
2024-12-07 20:13:03.448213200,8.213213134765626,-0.3328810334205627,0.2360817641019821,-0.2119151353836059
2024-12-07 20:13:03.458228000,8.22322802734375,-0.3140607476234436,0.2362074702978134,-0.2411744892597198
2024-12-07 20:13:03.468242000,8.233241943359374,-0.2985514998435974,0.246697723865509,-0.2781839668750763
2024-12-07 20:13:03.478255900,8.243255859375,-0.2897036671638489,0.2769144773483276,-0.3029830753803253
2024-12-07 20:13:03.488268800,8.253268798828126,-0.2775006592273712,0.3038651049137115,-0.3126742839813232
2024-12-07 20:13:03.498283000,8.263282958984375,-0.2575434744358063,0.3322128355503082,-0.3172317445278168
2024-12-07 20:13:03.508297000,8.273296875,-0.243254616856575,0.3491372466087341,-0.3217048048973083
2024-12-07 20:13:03.518311000,8.283310791015625,-0.2322491109371185,0.3663924038410187,-0.3241583704948425
2024-12-07 20:13:03.528324900,8.293324951171876,-0.2240856140851974,0.382644921541214,-0.3099967837333679
2024-12-07 20:13:03.538338800,8.3033388671875,-0.2140305787324905,0.3868641853332519,-0.2833516001701355
2024-12-07 20:13:03.548351700,8.313351806640625,-0.2016207724809646,0.3590881824493408,-0.2531790435314178
2024-12-07 20:13:03.558365700,8.32336572265625,-0.18877474963665,0.3018219769001007,-0.2326958775520324
2024-12-07 20:13:03.568380000,8.3333798828125,-0.1816940307617187,0.2341567873954773,-0.2159476429224014
2024-12-07 20:13:03.578393900,8.343393798828124,-0.1704616248607635,0.1826323419809341,-0.1993012875318527
2024-12-07 20:13:03.588407800,8.35340771484375,-0.1599166542291641,0.1375162899494171,-0.1927480697631836
2024-12-07 20:13:03.598421800,8.363421875,-0.1546779572963714,0.1198240965604782,-0.1875916570425033
2024-12-07 20:13:03.608436000,8.37343603515625,-0.1734429150819778,0.1607220321893692,-0.1887006312608719
2024-12-07 20:13:03.618449000,8.383448974609376,-0.2022458016872406,0.2282246351242065,-0.1772205382585525
2024-12-07 20:13:03.628462800,8.393462890625,-0.2117422372102737,0.326960027217865,-0.1605545282363891
2024-12-07 20:13:03.638476800,8.403476806640626,-0.216800108551979,0.3706792891025543,-0.1482549756765365
2024-12-07 20:13:03.648491000,8.413490966796875,-0.2254557013511657,0.2715769708156585,-0.1231208965182304
2024-12-07 20:13:03.658505000,8.4235048828125,-0.227287158370018,0.0582082383334636,-0.1018797904253006
2024-12-07 20:13:03.668518700,8.4335185546875,-0.231770172715187,-0.1366540640592575,-0.1088011935353279
2024-12-07 20:13:03.678531800,8.44353173828125,-0.235714852809906,-0.2493159025907516,-0.149277776479721
2024-12-07 20:13:03.688546000,8.453546142578125,-0.2399951219558715,-0.3114733695983886,-0.205614760518074
2024-12-07 20:13:03.698559700,8.463559814453125,-0.2393740713596344,-0.3836160004138946,-0.2379122376441955
2024-12-07 20:13:03.708573700,8.47357373046875,-0.2272125631570816,-0.465828001499176,-0.2403876632452011
2024-12-07 20:13:03.718588000,8.483587890625,-0.213211253285408,-0.4937390089035034,-0.2609483301639557
2024-12-07 20:13:03.728601900,8.493601806640624,-0.215423434972763,-0.3958227038383484,-0.3085570037364959
2024-12-07 20:13:03.738615800,8.50361572265625,-0.2061167508363723,-0.2570693492889404,-0.362577348947525
2024-12-07 20:13:03.748628700,8.513628662109374,-0.1757635027170181,-0.1436275094747543,-0.3999428153038025
2024-12-07 20:13:03.758643000,8.523642822265625,-0.1499502807855606,-0.0726601257920265,-0.4242678582668304
2024-12-07 20:13:03.768657000,8.533656982421874,-0.1431778520345688,-0.0192803554236888,-0.4322918653488159
2024-12-07 20:13:03.778670800,8.5436708984375,-0.137156456708908,0.0664326846599578,-0.4356945753097534
2024-12-07 20:13:03.788684800,8.553684814453124,-0.1270173490047454,0.2017888724803924,-0.4293825626373291
2024-12-07 20:13:03.798699000,8.563698974609375,-0.1247017309069633,0.3229890465736389,-0.398937851190567
2024-12-07 20:13:03.808711700,8.573711669921876,-0.1132866740226745,0.4320628941059112,-0.3630411922931671
2024-12-07 20:13:03.818726000,8.583725830078125,-0.1087822094559669,0.5269135236740112,-0.3429026305675506
2024-12-07 20:13:03.828739800,8.59373974609375,-0.1097417548298835,0.576298713684082,-0.3206592202186584
2024-12-07 20:13:03.838754000,8.603754150390625,-0.1031067594885826,0.5821619629859924,-0.296586662530899
2024-12-07 20:13:03.848767700,8.613767822265626,-0.0819639265537262,0.5674312114715576,-0.2775173485279083
2024-12-07 20:13:03.858781700,8.62378173828125,-0.0699903517961502,0.5098161101341248,-0.2386165410280227
2024-12-07 20:13:03.868795000,8.633794921875,-0.0718794167041778,0.4033366739749908,-0.1656844019889831
2024-12-07 20:13:03.878809000,8.64380908203125,-0.0770414248108863,0.2901754975318908,-0.0683759599924087
2024-12-07 20:13:03.888822800,8.65382275390625,-0.0653563663363456,0.2191420942544937,0.0145404748618602
2024-12-07 20:13:03.898836700,8.663836669921874,-0.0479957573115825,0.1712787002325058,0.0663384273648262
2024-12-07 20:13:03.908851000,8.673850830078125,-0.030364928767085,0.1338660269975662,0.0668402090668678
2024-12-07 20:13:03.918865000,8.683864990234374,-0.0121867237612605,0.0951892063021659,0.0404978170990943
2024-12-07 20:13:03.928878800,8.69387890625,0.000997222145088,0.0963344573974609,0.0212276205420494
2024-12-07 20:13:03.938891800,8.703891845703126,0.011500995606184,0.0900557935237884,-0.006509733851999
2024-12-07 20:13:03.948906000,8.713906005859375,0.0124259442090988,0.0698246285319328,-0.0449725091457366
2024-12-07 20:13:03.958919700,8.723919677734376,0.005867376923561,0.049531877040863,-0.0872536525130271
2024-12-07 20:13:03.968934000,8.733933837890625,0.000708385487087,0.004896739963442,-0.1225455775856971
2024-12-07 20:13:03.978947800,8.74394775390625,-0.0055425865575671,-0.0632463619112968,-0.1408382952213287
2024-12-07 20:13:03.988962000,8.753962158203125,-0.0188151337206363,-0.1078619882464408,-0.1431369185447693
2024-12-07 20:13:03.998974700,8.763974609375,-0.0317280031740665,-0.1083767712116241,-0.1281611621379852
2024-12-07 20:13:04.008989000,8.773989013671875,-0.0410725846886634,-0.0995933786034584,-0.0952652916312217
2024-12-07 20:13:04.019003000,8.7840029296875,-0.0509419925510883,-0.1108521595597267,-0.0696515366435051
2024-12-07 20:13:04.029017000,8.79401708984375,-0.0626337528228759,-0.110284999012947,-0.0716541409492492
2024-12-07 20:13:04.039030800,8.80403076171875,-0.0733681544661521,-0.0732694640755653,-0.1027641221880912
2024-12-07 20:13:04.049044700,8.814044677734374,-0.0817631408572197,-0.0375233963131904,-0.1394774317741394
2024-12-07 20:13:04.059058000,8.824057861328125,-0.0903529003262519,-0.0168016068637371,-0.1738465875387191
2024-12-07 20:13:04.069072000,8.83407177734375,-0.1038608029484748,-0.0163861289620399,-0.1993682235479354
2024-12-07 20:13:04.079085800,8.8440859375,-0.109790600836277,-0.0322729498147964,-0.2130701839923858
2024-12-07 20:13:04.089099800,8.854099853515624,-0.1120867580175399,-0.0330707356333732,-0.2211521863937378
2024-12-07 20:13:04.099114000,8.864114013671875,-0.1178993731737136,-0.0184539780020713,-0.2255458682775497
2024-12-07 20:13:04.109127700,8.874127685546876,-0.1207814589142799,0.0021927112247794,-0.2119331210851669
2024-12-07 20:13:04.119142000,8.884141845703125,-0.1057886630296707,0.0509197674691677,-0.1845518201589584
2024-12-07 20:13:04.129154800,8.89415478515625,-0.1161298528313636,0.104883886873722,-0.1372516453266143
2024-12-07 20:13:04.139169000,8.9041689453125,-0.1270831674337387,0.1729737371206283,-0.0865842103958129
2024-12-07 20:13:04.149182700,8.9141826171875,-0.1329386830329895,0.255229115486145,-0.0386182107031345
2024-12-07 20:13:04.159197000,8.924197021484375,-0.1296400874853134,0.3361148834228515,0.0081202667206525
2024-12-07 20:13:04.169211000,8.9342109375,-0.1239639967679977,0.4122340679168701,0.0469498112797737
2024-12-07 20:13:04.179225000,8.94422509765625,-0.1262516528367996,0.466154545545578,0.0572921968996524
2024-12-07 20:13:04.189237800,8.95423779296875,-0.1417154669761657,0.4782232344150543,0.0476227439939975
2024-12-07 20:13:04.199252000,8.964251953125,-0.1591173559427261,0.4325116574764251,0.0312261935323476
2024-12-07 20:13:04.209266000,8.974265869140625,-0.1609959453344345,0.3662996292114258,0.0118370493873953
2024-12-07 20:13:04.219280000,8.98427978515625,-0.1474990546703338,0.3171810805797577,-0.0130203645676374
2024-12-07 20:13:04.229293800,8.9942939453125,-0.1360433846712112,0.2908101677894592,-0.0367938429117202
2024-12-07 20:13:04.239307800,9.004307861328124,-0.130943164229393,0.2778584063053131,-0.0480068176984787
2024-12-07 20:13:04.249320700,9.01432080078125,-0.1229177042841911,0.2874173820018768,-0.0501877516508102
2024-12-07 20:13:04.259335000,9.0243349609375,-0.1229944005608558,0.3153097331523895,-0.0434020161628723
2024-12-07 20:13:04.269348900,9.034348876953125,-0.1382726579904556,0.3467422127723694,-0.035123586654663
2024-12-07 20:13:04.279362800,9.04436279296875,-0.1718748211860656,0.3523406982421875,-0.025258170440793
2024-12-07 20:13:04.289377000,9.054376953125,-0.2095489799976349,0.3331352472305298,-0.0345804654061794
2024-12-07 20:13:04.299390700,9.064390625,-0.242469385266304,0.2995493113994598,-0.0655383840203285
2024-12-07 20:13:04.309405000,9.074405029296877,-0.2707158327102661,0.2725299298763275,-0.1026596277952194
2024-12-07 20:13:04.319417900,9.08441796875,-0.2910663783550262,0.2638533413410187,-0.1314603835344314
2024-12-07 20:13:04.329431800,9.094431884765624,-0.3067705333232879,0.282800942659378,-0.1410360336303711
2024-12-07 20:13:04.339445800,9.10444580078125,-0.3226610720157623,0.3214599192142486,-0.1425127685070037
2024-12-07 20:13:04.349460000,9.1144599609375,-0.3376058936119079,0.3611320555210113,-0.1322245150804519
2024-12-07 20:13:04.359474000,9.124473876953124,-0.3520386219024658,0.3769789040088653,-0.1253932416439056
2024-12-07 20:13:04.369488000,9.13448779296875,-0.3645402789115906,0.3766460120677948,-0.1310034543275833
2024-12-07 20:13:04.379500800,9.144500732421877,-0.3628590404987335,0.359636127948761,-0.1480551362037658
2024-12-07 20:13:04.389515000,9.154514892578124,-0.3550722301006317,0.3518904149532318,-0.1698380410671234
2024-12-07 20:13:04.399529000,9.164529052734377,-0.3431058526039123,0.3632858097553253,-0.1988632977008819
2024-12-07 20:13:04.409543000,9.17454296875,-0.3277668356895447,0.3785713016986847,-0.2208508849143982
2024-12-07 20:13:04.419556900,9.184556884765623,-0.3058008253574371,0.3764343857765198,-0.2286659330129623
2024-12-07 20:13:04.429570800,9.19457080078125,-0.2710950076580047,0.3362991213798523,-0.2086700201034546
2024-12-07 20:13:04.439585000,9.2045849609375,-0.2263046503067016,0.2608981132507324,-0.1706089228391647
2024-12-07 20:13:04.449598000,9.214597900390626,-0.1765638291835785,0.1581280082464218,-0.1297975331544876
2024-12-07 20:13:04.459611600,9.224611572265625,-0.1321939677000045,0.0571310818195343,-0.1098925322294235
2024-12-07 20:13:04.469625600,9.23462548828125,-0.1068208888173103,0.0046238140203058,-0.1253975927829742
2024-12-07 20:13:04.479639800,9.244639892578125,-0.0775753855705261,-0.0245599038898944,-0.1682779490947723
2024-12-07 20:13:04.489653800,9.25465380859375,-0.0473074279725551,-0.0607461631298065,-0.1939475983381271
2024-12-07 20:13:04.499667700,9.264667724609374,-0.0265478193759918,-0.0667108446359634,-0.1911344975233078
2024-12-07 20:13:04.509680600,9.2746806640625,-0.0156960543245077,-0.0181836672127246,-0.1657355278730392
2024-12-07 20:13:04.519694800,9.28469482421875,-0.0199331436306238,0.0861408710479736,-0.1152193620800972
2024-12-07 20:13:04.529708500,9.29470849609375,-0.0494835115969181,0.1914422512054443,-0.025356825441122
2024-12-07 20:13:04.539722800,9.30472265625,-0.0896778032183647,0.2561522722244262,0.0815871953964233
2024-12-07 20:13:04.549736700,9.31473681640625,-0.1254051029682159,0.2963542342185974,0.161063939332962
2024-12-07 20:13:04.559751000,9.3247509765625,-0.1600957065820694,0.3486195802688598,0.2068202495574951
2024-12-07 20:13:04.569763600,9.334763671875,-0.1795017719268798,0.4126452207565307,0.2352848500013351
2024-12-07 20:13:04.579777800,9.34477783203125,-0.190750166773796,0.4380142092704773,0.2498472929000854
2024-12-07 20:13:04.589791700,9.354791748046877,-0.1819734275341034,0.4335975348949432,0.2413106262683868
2024-12-07 20:13:04.599806000,9.364805908203126,-0.1634354293346405,0.4263630509376526,0.2153565287590026
2024-12-07 20:13:04.609819600,9.374819580078125,-0.1348389387130737,0.428916871547699,0.1863972097635269
2024-12-07 20:13:04.619833600,9.38483349609375,-0.1107093691825866,0.4254060089588165,0.1662288308143615
2024-12-07 20:13:04.629847800,9.394847900390625,-0.0972693935036659,0.41434445977211,0.1638843119144439
2024-12-07 20:13:04.639860700,9.40486083984375,-0.0954627096652984,0.3914670944213867,0.1725773960351944
2024-12-07 20:13:04.649874700,9.414874755859374,-0.0943086147308349,0.3684878051280975,0.1762141585350036
2024-12-07 20:13:04.659888600,9.424888671875,-0.1066230684518814,0.3263448774814605,0.1672736555337906
2024-12-07 20:13:04.669902800,9.43490283203125,-0.1203913688659668,0.2829205393791199,0.1479725688695907
2024-12-07 20:13:04.679916500,9.44491650390625,-0.1198030784726142,0.2523652911186218,0.1324631124734878
2024-12-07 20:13:04.689930800,9.4549306640625,-0.1199977919459343,0.2285500764846801,0.1258597075939178
2024-12-07 20:13:04.699943700,9.464943603515623,-0.1140863746404647,0.2119034528732299,0.1372881233692169
2024-12-07 20:13:04.709958000,9.4749580078125,-0.1200746446847915,0.1883129626512527,0.1565826833248138
2024-12-07 20:13:04.719971600,9.4849716796875,-0.1271333396434784,0.1587366908788681,0.1744533032178878
2024-12-07 20:13:04.729985800,9.49498583984375,-0.1270375549793243,0.1384664326906204,0.1892696768045425
2024-12-07 20:13:04.739999700,9.504999755859377,-0.120453156530857,0.1036961898207664,0.2017236799001693
2024-12-07 20:13:04.750014000,9.515013916015626,-0.1031248793005943,0.0775566548109054,0.2127550989389419
2024-12-07 20:13:04.760026600,9.525026611328125,-0.1052005439996719,0.0395349785685539,0.2082964330911636
2024-12-07 20:13:04.770040800,9.535040771484375,-0.0999872907996177,0.001583211007528,0.1838250458240509
2024-12-07 20:13:04.780054800,9.5450546875,-0.0832828730344772,-0.0191012937575578,0.162898451089859
2024-12-07 20:13:04.790068700,9.55506884765625,-0.0554394572973251,-0.045790359377861,0.1691117882728576
2024-12-07 20:13:04.800082700,9.565082763671874,-0.0196774639189243,-0.0525779575109481,0.1903571635484695
2024-12-07 20:13:04.810096600,9.5750966796875,0.0197627861052751,-0.0298655983060598,0.2162922322750091
2024-12-07 20:13:04.820110800,9.58511083984375,0.0551716424524784,-0.0115342615172266,0.2505596578121185
2024-12-07 20:13:04.830123800,9.595123779296877,0.0895481258630752,0.0127901313826441,0.2951892912387848
2024-12-07 20:13:04.840137700,9.6051376953125,0.124337799847126,0.0554561018943786,0.3456668555736542
2024-12-07 20:13:04.850151700,9.615151611328123,0.1531911045312881,0.1044575124979019,0.395866334438324
2024-12-07 20:13:04.860166000,9.625165771484374,0.18856081366539,0.1574895828962326,0.4521762132644653
2024-12-07 20:13:04.870179600,9.6351796875,0.231011688709259,0.2168271839618683,0.5095431208610535
2024-12-07 20:13:04.880193800,9.64519384765625,0.2562257051467895,0.2355137765407562,0.5628635883331299
2024-12-07 20:13:04.890207700,9.655207763671877,0.2754557430744171,0.2124692052602768,0.6146441698074341
2024-12-07 20:13:04.900220700,9.665220703125,0.3051827251911163,0.1735495030879974,0.6662402749061584
2024-12-07 20:13:04.910234600,9.675234619140625,0.3451762199401855,0.1391801834106445,0.7156021595001221
2024-12-07 20:13:04.920248800,9.685248779296876,0.3980101346969604,0.1019867286086082,0.7634645104408264
2024-12-07 20:13:04.930262800,9.6952626953125,0.4601823687553406,0.0666349828243255,0.8111674189567566
2024-12-07 20:13:04.940276700,9.70527685546875,0.4972532987594604,0.0014008565340191,0.8433165550231934
2024-12-07 20:13:04.950290700,9.715290771484376,0.5244791507720947,-0.053038977086544,0.8681612610816956
2024-12-07 20:13:04.960303900,9.725303955078124,0.5690633654594421,-0.0824373438954353,0.8978914618492126
2024-12-07 20:13:04.970317800,9.73531787109375,0.632628858089447,-0.1478376686573028,0.9501078128814696
2024-12-07 20:13:04.980331800,9.745331787109375,0.6882857084274292,-0.2294550389051437,1.012317180633545
2024-12-07 20:13:04.990345700,9.755345703125,0.7122965455055237,-0.2917059063911438,1.0598095655441284
2024-12-07 20:13:05.000359700,9.765359619140623,0.7162694931030273,-0.2510144114494324,1.1039226055145264
2024-12-07 20:13:05.010374000,9.775373779296874,0.7298681139945984,-0.1207167953252792,1.137349247932434
2024-12-07 20:13:05.020386800,9.78538671875,0.7650548815727234,0.0453885570168495,1.148504376411438
2024-12-07 20:13:05.030400800,9.79540087890625,0.8139798045158386,0.2092691957950592,1.119279146194458
2024-12-07 20:13:05.040414700,9.805414794921877,0.850719153881073,0.3323724865913391,1.050748348236084
2024-12-07 20:13:05.050428700,9.8154287109375,0.8847282528877258,0.4296037256717682,0.9721987843513488
2024-12-07 20:13:05.060442600,9.825442626953125,0.9335922002792358,0.5328643321990967,0.9112654328346252
2024-12-07 20:13:05.070456800,9.835456787109376,0.9911345839500428,0.6007972955703735,0.8715891242027283
2024-12-07 20:13:05.080470800,9.845470703125,1.024121642112732,0.6558605432510376,0.8438411355018616
2024-12-07 20:13:05.090483700,9.855483642578124,1.032279133796692,0.6712940335273743,0.7953112125396729
2024-12-07 20:13:05.100497700,9.86549755859375,1.027441143989563,0.5739184617996216,0.6833266615867615
2024-12-07 20:13:05.110511900,9.875511962890624,1.0625948905944824,0.3811888098716736,0.5028302073478699
2024-12-07 20:13:05.120525800,9.88552587890625,1.1120319366455078,0.1789867132902145,0.2898828089237213
2024-12-07 20:13:05.130539800,9.895539794921875,1.1193673610687256,0.0427150055766105,0.1129981875419616
2024-12-07 20:13:05.140553700,9.9055537109375,1.1187556982040403,-0.0527001917362213,0.012836174108088
2024-12-07 20:13:05.150567000,9.91556689453125,1.1000895500183103,-0.1375590562820434,-0.0076721282675862
2024-12-07 20:13:05.160580600,9.92558056640625,1.0607179403305054,-0.2265270054340362,0.0262693278491497
2024-12-07 20:13:05.170594800,9.9355947265625,1.004360318183899,-0.3453095555305481,0.0878530368208885
2024-12-07 20:13:05.180608800,9.94560888671875,0.9363661408424376,-0.5088098049163818,0.1552041172981262
2024-12-07 20:13:05.190622700,9.955622802734377,0.854674756526947,-0.6832887530326843,0.2047275602817535
2024-12-07 20:13:05.200636700,9.96563671875,0.7996261119842529,-0.8061185479164124,0.2116347253322601
2024-12-07 20:13:05.210650600,9.975650634765625,0.7795560359954834,-0.8203950524330139,0.169007197022438
2024-12-07 20:13:05.220663800,9.985663818359376,0.7560595273971558,-0.7266674637794495,0.1009985879063606
2024-12-07 20:13:05.230677800,9.995677734375,0.7069970965385437,-0.5872788429260254,0.03099375218153
2024-12-07 20:13:05.240691700,10.005691650390624,0.627108633518219,-0.4404480755329132,-0.0222841165959835
2024-12-07 20:13:05.250705700,10.01570556640625,0.5341663360595703,-0.3587886691093445,-0.0727965161204338
2024-12-07 20:13:05.260719900,10.025719970703124,0.4588785171508789,-0.416841059923172,-0.1219701915979385
2024-12-07 20:13:05.270733800,10.03573388671875,0.4120063185691833,-0.5519006848335266,-0.1591076254844665
2024-12-07 20:13:05.280746800,10.045746826171875,0.3879563808441162,-0.6669865250587463,-0.1712697595357895
2024-12-07 20:13:05.290760700,10.0557607421875,0.3759381771087646,-0.7413153052330017,-0.1580003350973129
2024-12-07 20:13:05.300775000,10.06577490234375,0.3602721393108368,-0.798909604549408,-0.1378644406795501
2024-12-07 20:13:05.310788600,10.07578857421875,0.3336451947689056,-0.8690859079360962,-0.1223934665322303
2024-12-07 20:13:05.320802800,10.085802734375,0.3021096587181091,-0.9133630990982056,-0.1008077412843704
2024-12-07 20:13:05.330816800,10.095816650390624,0.2794822156429291,-0.915353775024414,-0.0857811644673347
2024-12-07 20:13:05.340830000,10.105829833984377,0.2618784606456756,-0.8771150708198547,-0.0683089643716812
2024-12-07 20:13:05.350843600,10.11584375,0.2463687807321548,-0.7708265781402588,-0.0416127108037471
2024-12-07 20:13:05.360857600,10.125857666015625,0.2496545910835266,-0.6459848284721375,-0.0062195672653615
2024-12-07 20:13:05.370871800,10.135871826171876,0.2746599912643432,-0.5519825220108032,0.0363256409764289
2024-12-07 20:13:05.380885800,10.1458857421875,0.3071007430553436,-0.5142011046409607,0.0783268809318542
2024-12-07 20:13:05.390899700,10.155899658203126,0.3579321503639221,-0.5415946841239929,0.1154969409108161
2024-12-07 20:13:05.400912600,10.16591259765625,0.4345211982727051,-0.6242102384567261,0.1193468049168586
2024-12-07 20:13:05.410926800,10.1759267578125,0.5220987796783447,-0.7047595381736755,0.1013200581073761
2024-12-07 20:13:05.420940500,10.1859404296875,0.599039614200592,-0.713616669178009,0.0883784294128418
2024-12-07 20:13:05.430954800,10.195954833984375,0.6314488053321838,-0.6421720385551453,0.0931787341833114
2024-12-07 20:13:05.440968700,10.20596875,0.5688315033912659,-0.6367160677909851,0.1044100821018219
2024-12-07 20:13:05.450983000,10.21598291015625,0.4587390124797821,-0.700968861579895,0.1026679128408432
2024-12-07 20:13:05.460997000,10.2259970703125,0.3372048735618591,-0.7859023809432983,0.071895882487297
2024-12-07 20:13:05.471010300,10.23601025390625,0.210316002368927,-0.8510224223136902,0.0105349067598581
2024-12-07 20:13:05.481024000,10.24602392578125,0.0861210823059082,-0.8688325881958008,-0.0924111828207969
2024-12-07 20:13:05.491038200,10.2560380859375,-0.0219874382019042,-0.8372403979301453,-0.2167873382568359
2024-12-07 20:13:05.501052200,10.26605224609375,-0.1212636977434158,-0.7958418130874634,-0.3392911553382873
2024-12-07 20:13:05.511066000,10.276066162109377,-0.2067510187625885,-0.7181832790374756,-0.4205798208713531
2024-12-07 20:13:05.521080000,10.286080078125,-0.2806286811828613,-0.5986169576644897,-0.457236647605896
2024-12-07 20:13:05.531093200,10.29609326171875,-0.3444818556308746,-0.4679493606090545,-0.4898248016834259
2024-12-07 20:13:05.541107200,10.306107177734376,-0.3894304037094116,-0.3506182134151459,-0.5159898400306702
2024-12-07 20:13:05.551121000,10.316120849609376,-0.3938116729259491,-0.2573109567165375,-0.5316467881202698
2024-12-07 20:13:05.561135000,10.326135009765624,-0.3521803617477417,-0.1825653165578842,-0.5529360771179199
2024-12-07 20:13:05.571149000,10.336149169921876,-0.2877132892608642,-0.122432455420494,-0.5853939056396484
2024-12-07 20:13:05.581163300,10.346163330078124,-0.2432416975498199,-0.0923709571361541,-0.611426830291748
2024-12-07 20:13:05.591177200,10.35617724609375,-0.2315326482057571,-0.109939806163311,-0.6196514964103699
2024-12-07 20:13:05.601190100,10.366190185546875,-0.2181886136531829,-0.1757624894380569,-0.6264542937278748
2024-12-07 20:13:05.611204000,10.3762041015625,-0.1957170963287353,-0.2583198845386505,-0.6272088289260864
2024-12-07 20:13:05.621218300,10.38621826171875,-0.1887729167938232,-0.3278683423995971,-0.6042137742042542
2024-12-07 20:13:05.631232000,10.39623193359375,-0.1990727633237838,-0.3153294026851654,-0.5487267374992371
2024-12-07 20:13:05.641246200,10.40624609375,-0.2111307680606842,-0.2884136438369751,-0.4985304474830627
2024-12-07 20:13:05.651260200,10.41626025390625,-0.2146070748567581,-0.3269446194171905,-0.4908697605133056
2024-12-07 20:13:05.661273000,10.426273193359377,-0.215826004743576,-0.3635401725769043,-0.511759340763092
2024-12-07 20:13:05.671287000,10.436287109375,-0.2220499366521835,-0.3690363466739654,-0.5541204214096069
2024-12-07 20:13:05.681301000,10.446301025390625,-0.2280260622501373,-0.4174299836158752,-0.5895493030548096
2024-12-07 20:13:05.691315200,10.456315185546876,-0.2219484597444534,-0.5716001391410828,-0.5802447199821472
2024-12-07 20:13:05.701329000,10.466328857421876,-0.1831576526165008,-0.7107180953025818,-0.5218687653541565
2024-12-07 20:13:05.711343000,10.476343017578126,-0.0792854651808738,-0.7059078216552734,-0.411533772945404
2024-12-07 20:13:05.721357000,10.486357177734376,0.1112977936863899,-0.5037544369697571,-0.2080134153366089
2024-12-07 20:13:05.731370200,10.496370361328124,0.346965342760086,-0.1932536959648132,-0.0329109542071819
2024-12-07 20:13:05.741384000,10.506384033203124,0.538879930973053,-0.0305713135749101,-0.1146425753831863
2024-12-07 20:13:05.751398100,10.516398193359375,0.5373965501785278,-0.1202704757452011,-0.4075264930725097
2024-12-07 20:13:05.761412000,10.526412109375,0.2713070511817932,-0.279561311006546,-0.6273053884506226
2024-12-07 20:13:05.771426300,10.53642626953125,-0.1203914731740951,-0.5163128972053528,-0.6255722045898438
2024-12-07 20:13:05.781440000,10.54643994140625,-0.4026846885681152,-0.826826810836792,-0.478003054857254
2024-12-07 20:13:05.791453200,10.556453125,-0.5027753114700317,-0.9809185266494752,-0.3707072734832763
2024-12-07 20:13:05.801467100,10.566467041015626,-0.5087517499923706,-0.7861732840538025,-0.4144710004329681
2024-12-07 20:13:05.811481000,10.576481201171877,-0.5460981726646423,-0.3987671434879303,-0.5094578266143799
2024-12-07 20:13:05.821495000,10.5864951171875,-0.6214666962623596,-0.0916250348091125,-0.551582932472229
2024-12-07 20:13:05.831509000,10.596509033203125,-0.6623474955558777,0.0688564255833625,-0.5289909243583679
2024-12-07 20:13:05.841523200,10.606523193359376,-0.6411042809486389,0.1418022811412811,-0.4712573885917663
2024-12-07 20:13:05.851536100,10.6165361328125,-0.5649524331092834,0.1916815638542175,-0.4133047461509704
2024-12-07 20:13:05.861550000,10.626550048828124,-0.4638026356697082,0.2616084516048431,-0.3801188170909881
2024-12-07 20:13:05.871564000,10.63656396484375,-0.3702134191989898,0.3556570410728454,-0.3564349114894867
2024-12-07 20:13:05.881578200,10.646578125,-0.3115290701389313,0.4289698600769043,-0.3235408663749695
2024-12-07 20:13:05.891592000,10.656592041015625,-0.2916483879089355,0.4524738192558288,-0.267996072769165
2024-12-07 20:13:05.901606100,10.666606201171875,-0.2957390248775482,0.4383726418018341,-0.2047827392816543
2024-12-07 20:13:05.911619000,10.676619140625,-0.3533254563808441,0.3635345697402954,-0.176740676164627
2024-12-07 20:13:05.921633000,10.686633056640623,-0.3976636230945587,0.2558110356330871,-0.169438824057579
2024-12-07 20:13:05.931647000,10.69664697265625,-0.3685090541839599,0.2486445903778076,-0.1359755396842956
2024-12-07 20:13:05.941661200,10.7066611328125,-0.2522753775119781,0.4159986972808838,-0.0752741023898124
2024-12-07 20:13:05.951675100,10.716675048828124,-0.1456760317087173,0.6719983220100403,-0.0344478636980056
2024-12-07 20:13:05.961689000,10.726689208984377,-0.123458094894886,0.9260827898979188,-0.0356553420424461
2024-12-07 20:13:05.971703000,10.736703125,-0.1459027081727981,1.136481761932373,-0.0711461529135704
2024-12-07 20:13:05.981716200,10.74671630859375,-0.1474393606185913,1.2241631746292114,-0.1072317212820053
2024-12-07 20:13:05.991730200,10.756730224609376,-0.1323921829462051,1.1761150360107422,-0.1199603751301765
2024-12-07 20:13:06.001744100,10.766744140625,-0.1174920722842216,1.0554090738296509,-0.0981557443737983
2024-12-07 20:13:06.011758000,10.776758056640626,-0.1172958016395568,0.9699560403823853,-0.0580853819847106
2024-12-07 20:13:06.021772000,10.78677197265625,-0.1212364807724952,0.9031972289085388,-0.0123959276825189
2024-12-07 20:13:06.031786200,10.7967861328125,-0.1228155270218849,0.7445439100265503,0.0532729066908359
2024-12-07 20:13:06.041799200,10.806799072265624,-0.1101495400071144,0.5145322680473328,0.11200812458992
2024-12-07 20:13:06.051813000,10.816813232421875,-0.0828175768256187,0.2704543471336365,0.1197435483336448
2024-12-07 20:13:06.061827000,10.8268271484375,-0.0542184188961982,0.0240243133157491,0.0814805850386619
2024-12-07 20:13:06.071841000,10.836841064453123,-0.0402179248631,-0.2248153984546661,0.008274613879621
2024-12-07 20:13:06.081855000,10.84685498046875,-0.0414365865290164,-0.4790109395980835,-0.0676390528678894
2024-12-07 20:13:06.091869200,10.856869140625,-0.0370217189192771,-0.7344192862510681,-0.1158582046627998
2024-12-07 20:13:06.101883100,10.866883056640624,-0.0412838421761989,-0.8886237740516663,-0.1551747173070907
2024-12-07 20:13:06.111896000,10.87689599609375,-0.0636316388845443,-0.915726363658905,-0.2195019274950027
2024-12-07 20:13:06.121910000,10.886909912109376,-0.0686540901660919,-0.8721072673797607,-0.298291802406311
2024-12-07 20:13:06.131924200,10.89692431640625,-0.0487171411514282,-0.7743902802467346,-0.3733474016189575
2024-12-07 20:13:06.141938200,10.906938232421876,-0.0141301322728395,-0.6884894967079163,-0.4333673417568207
2024-12-07 20:13:06.151952100,10.9169521484375,0.0221132766455411,-0.5998323559761047,-0.4690081775188446
2024-12-07 20:13:06.161966000,10.926966064453126,0.0439104512333869,-0.4745292365550995,-0.4867861270904541
2024-12-07 20:13:06.171979300,10.936979248046876,0.0548406615853309,-0.3015758693218231,-0.4855597019195556
2024-12-07 20:13:06.181993000,10.946992919921875,0.0611829794943332,-0.1392921507358551,-0.4617843329906463
2024-12-07 20:13:06.192007200,10.957007080078125,0.0550593249499797,-0.0294536314904689,-0.4084938466548919
2024-12-07 20:13:06.202021000,10.967021240234375,0.0356818996369838,0.0511037930846214,-0.3407315909862518
2024-12-07 20:13:06.212035000,10.97703515625,0.0151297356933355,0.1269343048334121,-0.2654058635234833
2024-12-07 20:13:06.222049000,10.987049072265624,-0.0065683694556355,0.1809834241867065,-0.2051012367010116
2024-12-07 20:13:06.232062200,10.997062255859374,-0.0480170771479606,0.1783199310302734,-0.1420340538024902
2024-12-07 20:13:06.242076200,11.007076171875,-0.0776974707841873,0.1438956409692764,-0.1099120676517486
2024-12-07 20:13:06.252090000,11.017090087890624,-0.1122643128037452,0.1355843842029571,-0.1189904436469078
2024-12-07 20:13:06.262104000,11.02710400390625,-0.14653280377388,0.1151411458849906,-0.1436252146959304
2024-12-07 20:13:06.272118000,11.037117919921876,-0.1726502776145935,0.0896310433745384,-0.1750111579895019
2024-12-07 20:13:06.282132200,11.04713232421875,-0.1913619041442871,0.0565220899879932,-0.2114511877298355
2024-12-07 20:13:06.292146200,11.057146240234376,-0.2094827592372894,0.0392916835844516,-0.2583158612251282
2024-12-07 20:13:06.302159000,11.0671591796875,-0.215154767036438,0.0503259599208831,-0.3074195086956024
2024-12-07 20:13:06.312173000,11.077173095703126,-0.2136814892292022,0.0881852582097053,-0.3547287881374359
2024-12-07 20:13:06.322187300,11.087187255859376,-0.2054773569107055,0.1249366179108619,-0.3849322199821472
2024-12-07 20:13:06.332201000,11.097200927734375,-0.1905114948749542,0.1254561245441436,-0.3838745951652527
2024-12-07 20:13:06.342215200,11.107215087890625,-0.1641145050525665,0.1421680003404617,-0.3709374964237213
2024-12-07 20:13:06.352229000,11.11722900390625,-0.1404691636562347,0.1617868989706039,-0.3609271347522735
2024-12-07 20:13:06.362242300,11.1272421875,-0.1291770935058593,0.154997706413269,-0.3333431780338287
2024-12-07 20:13:06.372256000,11.137256103515623,-0.1357938051223755,0.1075586676597595,-0.3009267747402191
2024-12-07 20:13:06.382270200,11.147270263671874,-0.1683203279972076,0.011263825930655,-0.2482742071151733
2024-12-07 20:13:06.392284200,11.1572841796875,-0.1953654736280441,-0.057192824780941,-0.2260076999664306
2024-12-07 20:13:06.402298000,11.167298095703124,-0.2211712300777435,-0.109232060611248,-0.2500789165496826
2024-12-07 20:13:06.412312000,11.17731201171875,-0.2513547837734222,-0.1238693967461586,-0.3010672032833099
2024-12-07 20:13:06.422325200,11.1873251953125,-0.2797091901302337,-0.0726900994777679,-0.3489119708538055
2024-12-07 20:13:06.432339200,11.197339111328125,-0.306557297706604,0.0131262708455324,-0.3933103084564209
2024-12-07 20:13:06.442353000,11.207352783203126,-0.3376835286617279,0.1096376255154609,-0.4320736825466156
2024-12-07 20:13:06.452367000,11.2173671875,-0.3740026354789734,0.194387748837471,-0.4737626314163208
2024-12-07 20:13:06.462381000,11.227381103515626,-0.413780152797699,0.2532060444355011,-0.5151654481887817
2024-12-07 20:13:06.472395300,11.237395263671877,-0.466229110956192,0.2682155966758728,-0.5305579304695129
2024-12-07 20:13:06.482408200,11.247408203125,-0.5211414098739624,0.2611475586891174,-0.530327320098877
2024-12-07 20:13:06.492422100,11.257422119140625,-0.5699264407157898,0.2401574850082397,-0.511668860912323
2024-12-07 20:13:06.502436000,11.26743603515625,-0.604356586933136,0.2165006250143051,-0.4749571681022644
2024-12-07 20:13:06.512450300,11.2774501953125,-0.6103405952453613,0.2098937332630157,-0.4308276772499084
2024-12-07 20:13:06.522464300,11.28746435546875,-0.5958971977233887,0.2333527207374572,-0.3949229419231415
2024-12-07 20:13:06.532478200,11.297478271484374,-0.5735827684402466,0.2940654158592224,-0.3698618710041046
2024-12-07 20:13:06.542492200,11.3074921875,-0.5391334891319275,0.3500815331935882,-0.337102323770523
2024-12-07 20:13:06.552505300,11.31750537109375,-0.5008506774902344,0.405457854270935,-0.2837095558643341
2024-12-07 20:13:06.562519300,11.327519287109377,-0.4671465158462524,0.4341121315956116,-0.2475150525569915
2024-12-07 20:13:06.572533200,11.337533203125,-0.4371368885040283,0.4682730138301849,-0.2234778702259063
2024-12-07 20:13:06.582547200,11.347547119140623,-0.4093558490276336,0.5356081128120422,-0.2046280205249786
2024-12-07 20:13:06.592561200,11.35756103515625,-0.3760019540786743,0.6010390520095825,-0.1845102608203888
2024-12-07 20:13:06.602575400,11.367575439453123,-0.345725804567337,0.6429231762886047,-0.1627359986305236
2024-12-07 20:13:06.612588300,11.37758837890625,-0.3266376554965973,0.6535949110984802,-0.1473990976810455
