time,seconds_elapsed,z,y,x
2024-12-07 20:03:40.582225400,0.028225341796875,-0.005444910377264,-0.0027013192884624,-0.0065804170444607
2024-12-07 20:03:40.592239400,0.0382392578125,-0.0055911177769303,-0.0001401573535986,-0.0077066682279109
2024-12-07 20:03:40.602253300,0.04825341796875,-0.0037688652519136,-0.0066246259957551,-0.0137233203276991
2024-12-07 20:03:40.612267500,0.058267578125,-0.0036727252881973,-0.0098377298563718,-0.0134596666321158
2024-12-07 20:03:40.622281500,0.068281494140625,-0.0058419564738869,-0.0173957049846649,-0.0141134597361087
2024-12-07 20:03:40.632294400,0.07829443359375,-0.0090071242302656,-0.0252674762159585,-0.0169763565063476
2024-12-07 20:03:40.642308400,0.088308349609375,-0.009608001448214,-0.0333022251725196,-0.0225445292890071
2024-12-07 20:03:40.652322600,0.098322509765625,-0.0038888629060238,-0.0268291439861059,-0.0203948263078928
2024-12-07 20:03:40.662336300,0.108336181640625,-0.002301693893969,-0.0212713629007339,-0.014429897069931
2024-12-07 20:03:40.672350500,0.1183505859375,-0.004729697946459,-0.0102053945884108,-0.0095832087099552
2024-12-07 20:03:40.682364400,0.128364501953125,-0.0076651093550026,-0.0092045459896326,-0.0090101156383752
2024-12-07 20:03:40.692378600,0.138378662109375,-0.0110228229314088,-0.028057862073183,-0.0098514081910252
2024-12-07 20:03:40.702392300,0.148392333984375,-0.0209857933223247,-0.0358587205410003,-0.0192578472197055
2024-12-07 20:03:40.712406300,0.15840625,-0.0169492363929748,-0.0560329630970954,-0.0385844074189662
2024-12-07 20:03:40.722420500,0.16842041015625,-0.0077507807873189,-0.0682476833462715,-0.0562324859201908
2024-12-07 20:03:40.732434400,0.178434326171875,-0.0080027170479297,-0.0434520505368709,-0.0527687780559062
2024-12-07 20:03:40.742448400,0.188448486328125,-0.0095307100564241,-0.035268135368824,-0.038369670510292
2024-12-07 20:03:40.752462300,0.19846240234375,-0.0197519212961196,-0.0489615760743618,-0.038373664021492
2024-12-07 20:03:40.762476500,0.2084765625,-0.030237203463912,-0.0824217349290847,-0.054454930126667
2024-12-07 20:03:40.772490500,0.218490478515625,-0.0227491930127143,-0.1360045373439788,-0.0824823081493377
2024-12-07 20:03:40.782504400,0.22850439453125,-0.0362345278263092,-0.1861376911401748,-0.1317835748195648
2024-12-07 20:03:40.792518400,0.238518310546875,-0.0642376616597175,-0.2371478825807571,-0.1775894165039062
2024-12-07 20:03:40.802532400,0.248532470703125,-0.07705619931221,-0.3026123046875,-0.2249271869659423
2024-12-07 20:03:40.812546600,0.258546630859375,-0.0964749082922935,-0.3228358030319214,-0.2640117406845093
2024-12-07 20:03:40.822560500,0.268560546875,-0.1273727715015411,-0.3402007222175598,-0.3042416572570801
2024-12-07 20:03:40.832574500,0.278574462890625,-0.1553141176700592,-0.4004880487918854,-0.3453810811042785
2024-12-07 20:03:40.842588400,0.28858837890625,-0.184218943119049,-0.4253230094909668,-0.4042972326278686
2024-12-07 20:03:40.852602400,0.298602294921875,-0.2238694280385971,-0.401062399148941,-0.4854211211204529
2024-12-07 20:03:40.862616600,0.308616455078125,-0.2765629291534424,-0.3551649153232574,-0.5649697780609131
2024-12-07 20:03:40.872630300,0.31863037109375,-0.3480701446533203,-0.2780144512653351,-0.6371065378189087
2024-12-07 20:03:40.882644500,0.32864453125,-0.444716066122055,-0.2133829742670059,-0.6946591138839722
2024-12-07 20:03:40.892658400,0.338658447265625,-0.5487974882125854,-0.2232510596513748,-0.7168341875076294
2024-12-07 20:03:40.902672600,0.348672607421875,-0.668454110622406,-0.2776626944541931,-0.678999662399292
2024-12-07 20:03:40.912686300,0.358686279296875,-0.7619640827178955,-0.2994598746299743,-0.5699437856674194
2024-12-07 20:03:40.922700300,0.3687001953125,-0.8211162090301514,-0.1992301940917968,-0.4461491405963897
2024-12-07 20:03:40.932714500,0.378714599609375,-0.8388051986694336,-0.0509243384003639,-0.3450169265270233
2024-12-07 20:03:40.942728400,0.388728515625,-0.819579541683197,0.0518980212509632,-0.2623815238475799
2024-12-07 20:03:40.952742400,0.398742431640625,-0.8413540720939636,0.028909346088767,-0.2041054219007492
2024-12-07 20:03:40.962756400,0.40875634765625,-0.9467867612838744,-0.0218583345413208,-0.1671712845563888
2024-12-07 20:03:40.972770600,0.4187705078125,-1.289858341217041,0.1199065297842025,-0.131741926074028
2024-12-07 20:03:40.982784500,0.428784423828125,-1.7044861316680908,0.2455276250839233,-0.1142854765057563
2024-12-07 20:03:40.992798200,0.438798095703125,-2.150707960128784,0.2266388833522796,-0.1508394926786422
2024-12-07 20:03:41.002812400,0.4488125,-2.54683256149292,0.06007756665349,-0.2249062061309814
2024-12-07 20:03:41.012826400,0.458826416015625,-2.842066526412964,-0.1790519207715988,-0.2993596494197845
2024-12-07 20:03:41.022840600,0.468840576171875,-3.02335262298584,-0.3519625961780548,-0.326806902885437
2024-12-07 20:03:41.032854300,0.478854248046875,-3.084658145904541,-0.3984664380550384,-0.286200612783432
2024-12-07 20:03:41.042868500,0.488868408203125,-3.087178945541382,-0.3463837504386902,-0.2081916630268097
2024-12-07 20:03:41.052882400,0.49888232421875,-3.111944437026977,-0.4173468649387359,-0.1671065390110016
2024-12-07 20:03:41.062896400,0.508896484375,-3.1459765434265137,-0.6974203586578369,-0.1987594217061996
2024-12-07 20:03:41.072909300,0.518909423828125,-3.068499088287353,-1.0499839782714844,-0.3078928291797638
2024-12-07 20:03:41.082923500,0.528923583984375,-2.816283941268921,-1.2009670734405518,-0.4112773537635803
2024-12-07 20:03:41.092937500,0.5389375,-2.323615312576294,-1.0403286218643188,-0.4371049404144287
2024-12-07 20:03:41.102951400,0.548951416015625,-1.6173547506332395,-0.7250097393989563,-0.4034824669361114
2024-12-07 20:03:41.112965400,0.55896533203125,-0.815384030342102,-0.3889195919036865,-0.3310090601444244
2024-12-07 20:03:41.122979300,0.568979248046875,-0.0937875434756279,-0.1630202233791351,-0.2568985521793365
2024-12-07 20:03:41.132993500,0.57899365234375,0.447007268667221,-0.1001887917518615,-0.1997332423925399
2024-12-07 20:03:41.143007500,0.589007568359375,0.7951705455780029,-0.1563092172145843,-0.1648754775524139
2024-12-07 20:03:41.153021400,0.599021484375,0.9599310159683228,-0.2284997999668121,-0.1281150728464126
2024-12-07 20:03:41.163035400,0.609035400390625,0.9668455719947816,-0.2512561678886413,-0.077663205564022
2024-12-07 20:03:41.173049300,0.61904931640625,0.8448941111564636,-0.1209013536572456,0.021952599287033
2024-12-07 20:03:41.183063600,0.6290634765625,0.555033802986145,0.1561269611120224,0.1253696382045745
2024-12-07 20:03:41.193077200,0.6390771484375,0.1585525423288345,0.3078264892101288,0.177250936627388
2024-12-07 20:03:41.203091500,0.649091552734375,-0.0985614582896232,0.2040624767541885,0.1186693906784057
2024-12-07 20:03:41.213105400,0.65910546875,-0.1171093136072158,0.0375816263258457,0.0197401549667119
2024-12-07 20:03:41.223119600,0.66911962890625,-0.0861983746290206,-0.0283298790454864,-0.0286477264016866
2024-12-07 20:03:41.233133300,0.67913330078125,-0.0842412114143371,0.037270437926054,-0.014322318136692
2024-12-07 20:03:41.243148300,0.689148193359375,-0.0753114894032478,0.1227229759097099,0.023798756301403
2024-12-07 20:03:41.253162500,0.69916259765625,-0.0484223552048206,0.1361402571201324,0.0321978330612182
2024-12-07 20:03:41.263176200,0.70917626953125,-0.0189782530069351,0.0825433656573295,0.0014660006854683
2024-12-07 20:03:41.273190100,0.719190185546875,-0.0056318207643926,0.0400816574692726,-0.0294330567121505
2024-12-07 20:03:41.283204400,0.729204345703125,0.006794610992074,0.0250763855874538,-0.0201330874115228
2024-12-07 20:03:41.293218300,0.73921826171875,0.019482709467411,0.0282159876078367,-0.0008448767475783
2024-12-07 20:03:41.303232300,0.749232177734375,-0.0033777337521314,0.0057823178358376,-0.0123238153755664
2024-12-07 20:03:41.313246200,0.75924609375,0.0049345241859555,-0.0549630559980869,-0.0571698509156703
2024-12-07 20:03:41.323260400,0.769260498046875,-0.0060627423226833,-0.0559180192649364,-0.0714035183191299
2024-12-07 20:03:41.333274400,0.7792744140625,-0.0623670257627964,-0.0737193897366523,-0.0783173516392707
2024-12-07 20:03:41.343288300,0.789288330078125,-0.0788884833455085,-0.1374304294586181,-0.1249985545873642
2024-12-07 20:03:41.353302300,0.79930224609375,-0.0327619984745979,-0.2064955234527588,-0.1998996883630752
2024-12-07 20:03:41.363316200,0.809316162109375,-0.0943420529365539,-0.324472576379776,-0.2841226458549499
2024-12-07 20:03:41.373330400,0.819330322265625,-0.2949063181877136,-0.6093429327011108,-0.4251125156879425
2024-12-07 20:03:41.383344400,0.829344482421875,-0.5414036512374878,-0.855021059513092,-0.5484400987625122
2024-12-07 20:03:41.393358300,0.8393583984375,-0.7762214541435242,-0.9263538718223572,-0.5957759022712708
2024-12-07 20:03:41.403372300,0.849372314453125,-1.020870566368103,-0.7391701340675354,-0.5195692777633667
2024-12-07 20:03:41.413386200,0.85938623046875,-1.231433391571045,-0.4334125816822052,-0.3668065965175628
2024-12-07 20:03:41.423400400,0.869400390625,-1.4547001123428345,-0.176066443324089,-0.1837974935770034
2024-12-07 20:03:41.433414100,0.8794140625,-1.7141305208206177,-0.155688464641571,-0.0739748552441597
2024-12-07 20:03:41.443427300,0.88942724609375,-1.954716801643372,-0.3063524067401886,-0.0094003155827522
2024-12-07 20:03:41.453441300,0.899441162109375,-2.053668737411499,-0.5176143050193787,0.0422026924788951
2024-12-07 20:03:41.463455200,0.909455322265625,-1.9563144445419312,-0.7421402931213379,0.0411642044782638
2024-12-07 20:03:41.473469200,0.91946923828125,-1.809049725532532,-1.0713751316070557,-0.0523838549852371
2024-12-07 20:03:41.483483400,0.9294833984375,-1.6824871301651,-1.3995072841644287,-0.201877549290657
2024-12-07 20:03:41.493497300,0.939497314453125,-1.7330782413482666,-1.9574030637741089,-0.4389846324920654
2024-12-07 20:03:41.503511300,0.94951123046875,-1.9530162811279297,-2.566514492034912,-0.6692650318145752
2024-12-07 20:03:41.513525200,0.959525146484375,-2.114487648010254,-2.732945203781128,-0.7073690295219421
2024-12-07 20:03:41.523539200,0.969539306640625,-2.086620092391968,-2.2369601726531982,-0.4455702900886535
2024-12-07 20:03:41.533553400,0.979553466796875,-1.8018784523010247,-1.2648510932922363,0.0340522602200508
2024-12-07 20:03:41.543567400,0.9895673828125,-1.2419304847717283,-0.2998393177986145,0.4696397483348846
2024-12-07 20:03:41.553581300,0.999581298828125,-0.4971510469913482,0.3011764883995056,0.6111188530921936
2024-12-07 20:03:41.563595300,1.00959521484375,0.2477332353591919,0.5379429459571838,0.3722021281719208
2024-12-07 20:03:41.573609500,1.019609375,0.441760778427124,0.5553861260414124,-0.0684908404946327
2024-12-07 20:03:41.583623400,1.02962353515625,0.1642452925443649,0.4816585481166839,-0.3545629978179931
2024-12-07 20:03:41.593637000,1.03963720703125,-0.0356619618833065,0.3333377838134765,-0.348492830991745
2024-12-07 20:03:41.603651300,1.0496513671875,-0.0562974102795124,0.2168314605951309,-0.160581350326538
2024-12-07 20:03:41.613665300,1.059665283203125,-0.0274505838751792,0.2164530307054519,0.002174015622586
2024-12-07 20:03:41.623679500,1.069679443359375,-0.0320053994655609,0.2986280918121338,0.0418796464800834
2024-12-07 20:03:41.633693200,1.079693115234375,-0.0521183907985687,0.3420203030109405,-0.0018630409613251
2024-12-07 20:03:41.643707400,1.089707275390625,-0.0561148449778556,0.0893576443195343,-0.1169089004397392
2024-12-07 20:03:41.653721300,1.099721435546875,-0.0554269552230834,-0.229715421795845,-0.1479549705982208
2024-12-07 20:03:41.663735300,1.1097353515625,-0.0237675588577985,-0.2878564894199371,-0.0573496967554092
2024-12-07 20:03:41.673749200,1.119749267578125,0.0025934744626283,-0.2029469162225723,0.01307706348598
2024-12-07 20:03:41.683763200,1.12976318359375,-0.0020587323233485,-0.1330069899559021,0.0087396074086427
2024-12-07 20:03:41.693777400,1.13977734375,0.0013091010041534,-0.1396577060222625,-0.0257453992962837
2024-12-07 20:03:41.703791400,1.149791259765625,-0.0010829446837306,-0.1940807700157165,-0.0540494881570339
2024-12-07 20:03:41.713805300,1.159805419921875,0.0021272297017276,-0.2463841885328292,-0.0825309380888938
2024-12-07 20:03:41.723819300,1.1698193359375,0.0096266167238354,-0.2613319456577301,-0.1175682991743087
2024-12-07 20:03:41.733833200,1.179833251953125,0.0354603454470634,-0.25813028216362,-0.1201545000076294
2024-12-07 20:03:41.743847400,1.189847412109375,0.0486407428979873,-0.2286400943994522,-0.108265034854412
2024-12-07 20:03:41.753861400,1.199861328125,0.0338127948343753,-0.2242362946271896,-0.0993034988641738
2024-12-07 20:03:41.763875300,1.209875244140625,0.030713690444827,-0.2425977885723114,-0.0628364533185958
2024-12-07 20:03:41.773888300,1.21988818359375,0.0305728092789649,-0.2018700689077377,-0.0166793428361415
2024-12-07 20:03:41.783902500,1.22990234375,0.0044817994348704,-0.1697844862937927,0.0120150484144687
2024-12-07 20:03:41.793916200,1.239916259765625,-0.0020559947006404,-0.1726814806461334,-0.0149848787114024
2024-12-07 20:03:41.803930400,1.249930419921875,0.0100001776590943,-0.2371935248374939,-0.078752189874649
2024-12-07 20:03:41.813944300,1.2599443359375,-0.0210152622312307,-0.2643636465072632,-0.1145956739783287
2024-12-07 20:03:41.823958300,1.269958251953125,-0.0170165691524744,-0.2465770095586776,-0.0985974892973899
2024-12-07 20:03:41.833972200,1.27997216796875,-0.0110670663416385,-0.1893302351236343,-0.0930961966514587
2024-12-07 20:03:41.843986200,1.289986083984375,-0.0179920103400945,-0.1203000620007515,-0.1037299036979675
2024-12-07 20:03:41.854000400,1.30000048828125,-0.0220589227974414,-0.0733032599091529,-0.1260493248701095
2024-12-07 20:03:41.864014300,1.310014404296875,-0.0336796008050441,-0.0494331829249858,-0.1301654130220413
2024-12-07 20:03:41.874028300,1.3200283203125,-0.0451317243278026,-0.0375453643500804,-0.1115019917488098
2024-12-07 20:03:41.884042200,1.330042236328125,-0.0487342551350593,-0.0358611494302749,-0.0878621935844421
2024-12-07 20:03:41.894056400,1.340056396484375,-0.052015271037817,-0.0349476858973503,-0.0818732753396034
2024-12-07 20:03:41.904070400,1.3500703125,-0.0464592091739177,-0.0236001219600439,-0.0884727239608764
2024-12-07 20:03:41.914084000,1.360083984375,-0.0388814508914947,0.0112204421311616,-0.0911055207252502
2024-12-07 20:03:41.924098300,1.370098388671875,-0.0286428332328796,0.0649754256010055,-0.0841319113969802
2024-12-07 20:03:41.934112300,1.3801123046875,-0.0097540970891714,0.1056448295712471,-0.0626820176839828
2024-12-07 20:03:41.944126500,1.39012646484375,0.0009022713638842,0.1293177008628845,-0.0514418669044971
2024-12-07 20:03:41.954140400,1.400140380859375,0.0060339164920151,0.1305627226829528,-0.0394493862986564
2024-12-07 20:03:41.964154400,1.410154296875,0.0001177731901407,0.1347023099660873,-0.026258448138833
2024-12-07 20:03:41.974168300,1.420168212890625,-0.0072232303209602,0.1507768929004669,-0.0198495499789714
2024-12-07 20:03:41.984182300,1.430182373046875,-0.0173191204667091,0.1637365520000457,-0.0124584566801786
2024-12-07 20:03:41.994196500,1.440196533203125,-0.026007417589426,0.1572629362344741,-0.0080855451524257
2024-12-07 20:03:42.004210200,1.450210205078125,-0.0288468338549137,0.1490461230278015,-0.010627057403326
2024-12-07 20:03:42.014224400,1.460224365234375,-0.0256044380366802,0.1418188363313675,-0.0121820773929357
2024-12-07 20:03:42.024238300,1.47023828125,-0.0200902391225099,0.1114271432161331,-0.0112566808238625
2024-12-07 20:03:42.034252300,1.480252197265625,-0.0278698652982711,0.0096909329295158,-0.0310929678380489
2024-12-07 20:03:42.044266200,1.490266357421875,-0.0099951922893524,0.0248110182583332,-0.0316503345966339
2024-12-07 20:03:42.054280200,1.5002802734375,-0.0148496022447943,0.0705955475568771,-0.0244100000709295
2024-12-07 20:03:42.064294400,1.51029443359375,-0.0512377694249153,-0.0381516888737678,-0.048223752528429
2024-12-07 20:03:42.074308400,1.520308349609375,-0.0330691523849964,-0.1698604524135589,-0.0669250041246414
2024-12-07 20:03:42.084322300,1.530322265625,0.0017926138825714,-0.1097177267074585,-0.0338008925318717
2024-12-07 20:03:42.094335200,1.540335205078125,0.0001760751474648,-0.0634484961628913,-0.0272977203130722
2024-12-07 20:03:42.104349400,1.550349365234375,-0.006487681530416,-0.1159247681498527,-0.0595070645213127
2024-12-07 20:03:42.114363100,1.560363037109375,-0.0266118571162223,-0.2017209082841873,-0.0845759361982345
2024-12-07 20:03:42.124377300,1.57037744140625,-0.0572651848196983,-0.2671858966350555,-0.0796272680163383
2024-12-07 20:03:42.134391300,1.580391357421875,-0.0822301879525184,-0.3230723440647125,-0.0603515766561031
2024-12-07 20:03:42.144405200,1.5904052734375,-0.0972738340497016,-0.3654672801494598,-0.044018305838108
2024-12-07 20:03:42.154419500,1.60041943359375,-0.1152858585119247,-0.4074019491672516,-0.0263860467821359
2024-12-07 20:03:42.164433200,1.61043310546875,-0.1303534656763076,-0.4590436518192291,-0.0212114211171865
2024-12-07 20:03:42.174447400,1.620447265625,-0.1399131417274475,-0.4988627135753631,-0.0245363768190145
2024-12-07 20:03:42.184461300,1.63046142578125,-0.140969842672348,-0.5174403190612793,-0.0219196248799562
2024-12-07 20:03:42.194475500,1.6404755859375,-0.1320722252130508,-0.5097797513008118,-0.0243186000734567
2024-12-07 20:03:42.204489200,1.6504892578125,-0.1232470870018005,-0.4756929576396942,-0.0359155461192131
2024-12-07 20:03:42.214503200,1.660503173828125,-0.1049780622124672,-0.4164016842842102,-0.0611671060323715
2024-12-07 20:03:42.224517400,1.670517333984375,-0.0900325924158096,-0.3488181233406067,-0.0867371633648872
2024-12-07 20:03:42.234531300,1.68053125,-0.082434594631195,-0.3052868843078613,-0.0897555947303772
2024-12-07 20:03:42.244544300,1.690544189453125,-0.0941985771059989,-0.3134217858314514,-0.0764235481619834
2024-12-07 20:03:42.254558200,1.70055810546875,-0.0748259425163269,-0.289583295583725,-0.0477247945964336
2024-12-07 20:03:42.264572400,1.710572509765625,-0.0655657351016998,-0.2435332536697387,-0.0159915369004011
2024-12-07 20:03:42.274586400,1.72058642578125,-0.0691644623875618,-0.2089470475912094,0.0081481533125042
2024-12-07 20:03:42.284600300,1.730600341796875,-0.0605352818965911,-0.1888165175914764,0.0274131633341312
2024-12-07 20:03:42.294614300,1.7406142578125,-0.0502115376293659,-0.1617755740880966,0.0373358353972435
2024-12-07 20:03:42.304628500,1.75062841796875,-0.0357951894402504,-0.135491207242012,0.0275726355612278
2024-12-07 20:03:42.314642400,1.760642333984375,-0.0144736552610993,-0.1108228787779808,0.0150813460350036
2024-12-07 20:03:42.324656000,1.77065625,0.0036542380694299,-0.0824208855628967,0.009313840419054
2024-12-07 20:03:42.334670300,1.78067041015625,0.0176534112542867,-0.0498126074671745,0.0201134905219078
2024-12-07 20:03:42.344684300,1.790684326171875,0.0266364868730306,-0.0197922643274068,0.0319178774952888
2024-12-07 20:03:42.354698500,1.800698486328125,0.0308743752539157,0.0021002511493861,0.0325221493840217
2024-12-07 20:03:42.364712200,1.810712158203125,0.0294503234326839,0.010167472064495,0.0310637410730123
2024-12-07 20:03:42.374726400,1.820726318359375,0.0251495856791734,0.0101176714524626,0.027966484427452
2024-12-07 20:03:42.384740400,1.830740234375,0.0259778704494237,0.0062660332769155,0.0197359286248683
2024-12-07 20:03:42.394754300,1.84075439453125,0.0231605134904384,0.0168574247509241,0.0019595935009419
2024-12-07 20:03:42.404767200,1.850767333984375,0.0218309871852397,0.0263897087424993,-0.0212357584387063
2024-12-07 20:03:42.414781400,1.860781494140625,0.0305981151759624,0.0146859148517251,-0.041382573544979
2024-12-07 20:03:42.424795400,1.87079541015625,0.0362691506743431,-0.0075452253222465,-0.064756765961647
2024-12-07 20:03:42.434809300,1.880809326171875,0.0417065247893333,-0.0023286251816898,-0.0930656343698501
2024-12-07 20:03:42.444823300,1.8908232421875,0.056607712060213,0.0202962607145309,-0.1000345945358276
2024-12-07 20:03:42.454837200,1.900837158203125,0.0686055198311805,0.0405940748751163,-0.0788406282663345
2024-12-07 20:03:42.464851500,1.9108515625,0.0613403171300888,0.0363847985863685,-0.0471659079194068
2024-12-07 20:03:42.474865400,1.920865478515625,0.0632202476263046,0.0125100929290056,-0.0198725014925003
2024-12-07 20:03:42.484879400,1.93087939453125,0.0705019533634185,-0.0118984095752239,-0.0166126545518636
2024-12-07 20:03:42.494893300,1.940893310546875,0.0757806077599525,-0.0293724741786718,-0.0489689968526363
2024-12-07 20:03:42.504907300,1.9509072265625,0.0832747220993042,-0.0400146655738353,-0.0799507349729538
2024-12-07 20:03:42.514921500,1.96092138671875,0.0826667249202728,-0.0286323148757219,-0.0654735192656517
2024-12-07 20:03:42.524935200,1.97093505859375,0.0556932985782623,-0.0030705200042575,-0.0156867261976003
2024-12-07 20:03:42.534949400,1.980949462890625,0.0167605485767126,0.0073927734047174,0.0374097824096679
2024-12-07 20:03:42.544963300,1.99096337890625,-0.0071305688470602,-0.01987786591053,0.0471799634397029
2024-12-07 20:03:42.554977500,2.0009775390625,-0.0028002690523862,-0.0643478631973266,0.0353107899427413
2024-12-07 20:03:42.564991200,2.0109912109375,7.49537721276e-05,-0.1143159866333007,0.0203102864325046
2024-12-07 20:03:42.575005200,2.021005126953125,-0.0289172828197479,-0.2066155523061752,0.0108645865693688
2024-12-07 20:03:42.585019400,2.031019287109375,-0.0544022619724273,-0.3292911648750305,-0.0046615763567388
2024-12-07 20:03:42.595033300,2.041033447265625,-0.0442279204726219,-0.4015381932258606,-0.0280747581273317
2024-12-07 20:03:42.605047600,2.051047607421875,-0.0130203776061534,-0.3684485256671905,-0.0455737151205539
2024-12-07 20:03:42.615061200,2.061061279296875,0.0110394172370433,-0.2752983272075653,-0.0626861229538917
2024-12-07 20:03:42.625075500,2.071075439453125,0.0298715773969888,-0.2120440602302551,-0.082417719066143
2024-12-07 20:03:42.635089400,2.08108935546875,0.0358152240514755,-0.2249982059001922,-0.0965828076004982
2024-12-07 20:03:42.645103400,2.091103271484375,0.0219508819282054,-0.2576126754283905,-0.1047437861561775
2024-12-07 20:03:42.655117300,2.101117431640625,0.0118963858112692,-0.2577599287033081,-0.0995213314890861
2024-12-07 20:03:42.665131300,2.11113134765625,0.0137360710650682,-0.1875892579555511,-0.0872596949338913
2024-12-07 20:03:42.675145500,2.1211455078125,0.0259559862315654,-0.067854605615139,-0.0719334706664085
2024-12-07 20:03:42.685159400,2.131159423828125,0.0379186868667602,0.028714083135128,-0.0470606796443462
2024-12-07 20:03:42.695172400,2.14117236328125,0.0497678890824317,0.0779442116618156,-0.0197587516158819
2024-12-07 20:03:42.705186300,2.151186279296875,0.0459061600267887,0.1108374893665313,0.0130119258537888
2024-12-07 20:03:42.715200500,2.161200439453125,0.0316830165684223,0.1230954900383949,0.0449224561452865
2024-12-07 20:03:42.725214200,2.171214111328125,0.0160505026578903,0.1248002871870994,0.0702586099505424
2024-12-07 20:03:42.735228400,2.181228515625,0.0069640628062188,0.1329263895750045,0.0702109411358833
2024-12-07 20:03:42.745242400,2.191242431640625,-0.0004201373085379,0.1455907374620437,0.0488434210419654
2024-12-07 20:03:42.755256300,2.20125634765625,-0.0023144437000155,0.1685583740472793,0.0097540766000747
2024-12-07 20:03:42.765270300,2.211270263671875,0.0050506819970905,0.1826954036951065,-0.0241335593163967
2024-12-07 20:03:42.775284200,2.2212841796875,0.0124140568077564,0.180112138390541,-0.0473248995840549
2024-12-07 20:03:42.785298400,2.23129833984375,0.0151127595454454,0.1593086421489715,-0.0488229766488075
2024-12-07 20:03:42.795312400,2.2413125,0.013293819501996,0.1275320649147033,-0.0300804506987333
2024-12-07 20:03:42.805326300,2.251326416015625,0.0019850644748657,0.1109623089432716,-0.0142595376819372
2024-12-07 20:03:42.815340300,2.26134033203125,0.0020364634692668,0.0993892773985862,-0.0023938240483403
2024-12-07 20:03:42.825354200,2.271354248046875,0.0107920952141284,0.080908179283142,-0.0012166486121714
2024-12-07 20:03:42.835368400,2.281368408203125,0.014637166634202,0.0614782869815826,-0.0233216844499111
2024-12-07 20:03:42.845382400,2.29138232421875,0.0067514730617403,0.059111300855875,-0.0644209384918212
2024-12-07 20:03:42.855396400,2.301396240234375,-0.0075845895335078,0.0805566683411598,-0.0937764346599578
2024-12-07 20:03:42.865410300,2.311410400390625,-0.0247750505805015,0.1009027808904647,-0.0823827311396598
2024-12-07 20:03:42.875424500,2.321424560546875,-0.042193453758955,0.1117359846830368,-0.056032083928585
2024-12-07 20:03:42.885438500,2.3314384765625,-0.0656693950295448,0.1178542077541351,-0.0357306823134422
2024-12-07 20:03:42.895452200,2.3414521484375,-0.0878948047757148,0.1141383051872253,-0.0265323910862207
2024-12-07 20:03:42.905466400,2.35146630859375,-0.1033368408679962,0.1014673635363578,-0.0272144712507724
2024-12-07 20:03:42.915480300,2.361480224609375,-0.1145937517285347,0.0972731485962867,-0.0297450050711631
2024-12-07 20:03:42.925494500,2.37149462890625,-0.1268525719642639,0.0977914482355117,-0.0309294462203979
2024-12-07 20:03:42.935508200,2.38150830078125,-0.1389925926923751,0.0981800034642219,-0.0225958824157714
2024-12-07 20:03:42.945522400,2.3915224609375,-0.1406953036785125,0.0961151346564292,-0.0105377649888396
2024-12-07 20:03:42.955536400,2.401536376953125,-0.1368590295314788,0.0849785953760147,-0.0037879832088947
2024-12-07 20:03:42.965550300,2.41155029296875,-0.1249781921505928,0.0812815427780151,-0.0157881006598472
2024-12-07 20:03:42.975564300,2.421564208984375,-0.1093704625964164,0.0897354781627655,-0.0398894436657428
2024-12-07 20:03:42.985577500,2.431577392578125,-0.0940590724349021,0.0964915975928306,-0.0746106728911399
2024-12-07 20:03:42.995591400,2.44159130859375,-0.0880334004759788,0.093782901763916,-0.1083353459835052
2024-12-07 20:03:43.005605400,2.45160546875,-0.0944358184933662,0.0905553176999092,-0.1399538516998291
2024-12-07 20:03:43.015619300,2.461619384765625,-0.1028697788715362,0.101877212524414,-0.15843166410923
2024-12-07 20:03:43.025633300,2.47163330078125,-0.1197111010551452,0.142349898815155,-0.1687358021736145
2024-12-07 20:03:43.035647500,2.4816474609375,-0.1401961296796798,0.1869493126869201,-0.1728447824716568
2024-12-07 20:03:43.045661400,2.491661376953125,-0.1658151894807815,0.2163542360067367,-0.1770378351211547
2024-12-07 20:03:43.055675400,2.50167529296875,-0.1937669217586517,0.2293256968259811,-0.177166998386383
2024-12-07 20:03:43.065689300,2.511689453125,-0.2261804342269897,0.2289053499698639,-0.1796926259994506
2024-12-07 20:03:43.075703300,2.521703369140625,-0.2543872892856598,0.2122448831796646,-0.1785975247621536
2024-12-07 20:03:43.085717500,2.531717529296875,-0.2817447781562805,0.2038892805576324,-0.179360032081604
2024-12-07 20:03:43.095731200,2.541731201171875,-0.3053007125854492,0.2117842137813568,-0.1845236271619796
2024-12-07 20:03:43.105745400,2.551745361328125,-0.3226497173309326,0.2275942713022232,-0.1896291524171829
2024-12-07 20:03:43.115759400,2.56175927734375,-0.3362643420696258,0.2239151149988174,-0.2060281038284301
2024-12-07 20:03:43.125773300,2.571773193359375,-0.3580026626586914,0.2039630562067031,-0.2294051647186279
2024-12-07 20:03:43.135787300,2.581787353515625,-0.3819122612476349,0.1762938797473907,-0.2465876191854477
2024-12-07 20:03:43.145801200,2.59180126953125,-0.4007255733013153,0.1301932334899902,-0.2594133615493774
2024-12-07 20:03:43.155815400,2.6018154296875,-0.4163263738155365,0.0776922032237052,-0.2794919908046722
2024-12-07 20:03:43.165829400,2.611829345703125,-0.4122194051742553,0.0255433991551399,-0.3053871095180511
2024-12-07 20:03:43.175843300,2.62184326171875,-0.3850748538970947,-0.0167912747710943,-0.3210204243659973
2024-12-07 20:03:43.185857300,2.631857177734375,-0.350136935710907,-0.0459632650017738,-0.32357919216156
2024-12-07 20:03:43.195871200,2.641871337890625,-0.3123895525932312,-0.0588351190090179,-0.3078468441963196
2024-12-07 20:03:43.205885400,2.651885498046875,-0.2828131914138794,-0.053957924246788,-0.2710514366626739
2024-12-07 20:03:43.215899400,2.6618994140625,-0.237710952758789,-0.0477514266967773,-0.2069706916809082
2024-12-07 20:03:43.225913300,2.671913330078125,-0.184240773320198,-0.0599663853645324,-0.1255244761705398
2024-12-07 20:03:43.235927300,2.68192724609375,-0.1152188330888748,-0.0649648755788803,-0.0568069368600845
2024-12-07 20:03:43.245942000,2.69194189453125,-0.0242385976016521,-0.04526012763381,-0.0187034849077463
2024-12-07 20:03:43.255956200,2.701956298828125,0.0547483637928962,0.0079013630747795,-0.0125973876565694
2024-12-07 20:03:43.265969200,2.71196923828125,0.0880773663520813,0.0699559152126312,-0.0183753632009029
2024-12-07 20:03:43.275983000,2.721983154296875,0.0849734470248222,0.1043431833386421,-0.006343999877572
2024-12-07 20:03:43.285997000,2.7319970703125,0.0573210567235946,0.1171929165720939,0.0324806123971939
2024-12-07 20:03:43.296011000,2.742010986328125,0.0196453146636486,0.1232590675354003,0.0798923373222351
2024-12-07 20:03:43.306025000,2.75202490234375,-0.0168068017810583,0.1426768451929092,0.1233483627438545
2024-12-07 20:03:43.316039200,2.7620390625,-0.0653200075030326,0.1746648699045181,0.1622432917356491
2024-12-07 20:03:43.326053000,2.77205322265625,-0.1075490042567253,0.1942355632781982,0.1959840208292007
2024-12-07 20:03:43.336067000,2.782067138671875,-0.1439650654792785,0.1863446086645126,0.226785346865654
2024-12-07 20:03:43.346081000,2.7920810546875,-0.1748128831386566,0.1709316223859787,0.2454473823308944
2024-12-07 20:03:43.356095000,2.802094970703125,-0.183676928281784,0.1628918051719665,0.2457352727651596
2024-12-07 20:03:43.366109200,2.812109130859375,-0.167729839682579,0.1689759045839309,0.231703981757164
2024-12-07 20:03:43.376123000,2.822122802734375,-0.1474000662565231,0.1881083250045776,0.2214111238718032
2024-12-07 20:03:43.386137000,2.83213720703125,-0.1329270303249359,0.1886668056249618,0.2321762144565582
2024-12-07 20:03:43.396151000,2.842151123046875,-0.1276047080755233,0.1620786041021347,0.2557601034641266
2024-12-07 20:03:43.406165200,2.852165283203125,-0.1200055852532386,0.1014448106288909,0.2831867039203644
2024-12-07 20:03:43.416179000,2.862178955078125,-0.108272761106491,0.0301392041146755,0.2974599301815033
2024-12-07 20:03:43.426193000,2.87219287109375,-0.0922155380249023,-0.0272730663418769,0.3062337338924408
2024-12-07 20:03:43.436207000,2.88220703125,-0.0726311802864074,-0.0549070946872234,0.3150642514228821
2024-12-07 20:03:43.446221000,2.892220947265625,-0.0549556910991668,-0.0591088607907295,0.3306968808174133
2024-12-07 20:03:43.456235300,2.9022353515625,-0.0400659590959548,-0.0486309193074703,0.3432105481624603
2024-12-07 20:03:43.466249000,2.9122490234375,-0.0236625783145427,-0.0252762120217084,0.3459502458572387
2024-12-07 20:03:43.476263200,2.92226318359375,-0.0074812108650803,0.010062338784337,0.3394401669502258
2024-12-07 20:03:43.486277000,2.932277099609375,0.0104693574830889,0.0539645552635192,0.3286914229393005
2024-12-07 20:03:43.496291000,2.942291015625,0.0286403726786375,0.1076046153903007,0.3240998685359955
2024-12-07 20:03:43.506305000,2.952304931640625,0.044624026864767,0.1473188996315002,0.3246921896934509
2024-12-07 20:03:43.516319000,2.962319091796875,0.056640475988388,0.1798936277627945,0.3430802226066589
2024-12-07 20:03:43.526333200,2.972333251953125,0.0652133449912071,0.1910234093666076,0.3778663575649261
2024-12-07 20:03:43.536347100,2.98234716796875,0.0689407065510749,0.1877264082431793,0.4157471656799316
2024-12-07 20:03:43.546360000,2.992360107421875,0.071605160832405,0.1833025217056274,0.4593551158905029
2024-12-07 20:03:43.556374000,3.0023740234375,0.0737287700176239,0.1627586334943771,0.5067354440689087
2024-12-07 20:03:43.566388200,3.01238818359375,0.0851519033312797,0.1444870680570602,0.5467445850372314
2024-12-07 20:03:43.576402000,3.02240185546875,0.0952319651842117,0.139052614569664,0.5855527520179749
2024-12-07 20:03:43.586416000,3.032416015625,0.1132012531161308,0.1575855165719986,0.6220998764038086
2024-12-07 20:03:43.596430000,3.04243017578125,0.1434755325317382,0.2287414520978927,0.6562799215316772
2024-12-07 20:03:43.606444000,3.052444091796875,0.1932910680770874,0.3359769284725189,0.6825771331787109
2024-12-07 20:03:43.616458200,3.062458251953125,0.2487591207027435,0.4555789828300476,0.7078616619110107
2024-12-07 20:03:43.626472000,3.072471923828125,0.2944037914276123,0.5616377592086792,0.7459393739700317
2024-12-07 20:03:43.636486100,3.082486083984375,0.3309945464134216,0.6482661366462708,0.803905725479126
2024-12-07 20:03:43.646500000,3.0925,0.3636769950389862,0.716387927532196,0.8770928382873535
2024-12-07 20:03:43.656514000,3.10251416015625,0.3978256285190582,0.7634515762329102,0.9504221677780152
2024-12-07 20:03:43.666528000,3.112528076171875,0.4311284720897674,0.803504467010498,1.0106871128082275
2024-12-07 20:03:43.676542000,3.1225419921875,0.4686926305294037,0.8349161744117737,1.0437006950378418
2024-12-07 20:03:43.686556200,3.13255615234375,0.5067588686943054,0.8566699624061584,1.045562982559204
2024-12-07 20:03:43.696570000,3.142570068359375,0.5572398900985718,0.8659228086471558,1.0187159776687622
2024-12-07 20:03:43.706584000,3.152583984375,0.6047106385231018,0.8958539962768555,0.970041811466217
2024-12-07 20:03:43.716598000,3.162597900390625,0.6456053256988525,0.9489257335662842,0.9174952507019044
2024-12-07 20:03:43.726612000,3.172612060546875,0.675761878490448,0.9856591820716858,0.8622176647186279
2024-12-07 20:03:43.736626200,3.182626220703125,0.710120677947998,0.9638777375221252,0.8086113929748535
2024-12-07 20:03:43.746640000,3.192639892578125,0.7464863657951355,0.8805740475654602,0.7507706880569458
2024-12-07 20:03:43.756654000,3.202654052734375,0.7776557207107544,0.7433730363845825,0.6782373785972595
2024-12-07 20:03:43.766668000,3.21266796875,0.805547833442688,0.5800643563270569,0.5949640274047852
2024-12-07 20:03:43.776682200,3.22268212890625,0.8345805406570435,0.4424735009670257,0.505102276802063
2024-12-07 20:03:43.786696000,3.232696044921875,0.8623387217521667,0.3677192628383636,0.4262558221817016
2024-12-07 20:03:43.796710000,3.2427099609375,0.8867005109786987,0.3324464857578277,0.3633676469326019
2024-12-07 20:03:43.806724000,3.25272412109375,0.896162748336792,0.290727436542511,0.3103889524936676
2024-12-07 20:03:43.816737300,3.2627373046875,0.8808045387268066,0.2080400139093399,0.2546662986278534
2024-12-07 20:03:43.826751000,3.2727509765625,0.8501667976379395,0.0853112190961837,0.1978713572025299
2024-12-07 20:03:43.836765000,3.282764892578125,0.8166682720184326,-0.081782691180706,0.1479325592517852
2024-12-07 20:03:43.846779100,3.292779052734375,0.7899897694587708,-0.2587249279022217,0.1092918962240219
2024-12-07 20:03:43.856793000,3.30279296875,0.7696704268455505,-0.3881081938743591,0.0881157740950584
2024-12-07 20:03:43.866807000,3.31280712890625,0.7517008185386658,-0.4506465494632721,0.0903468281030654
2024-12-07 20:03:43.876821000,3.322821044921875,0.7368124127388,-0.4706583321094513,0.102390706539154
2024-12-07 20:03:43.886835200,3.332835205078125,0.7229574918746948,-0.5025849938392639,0.100424088537693
2024-12-07 20:03:43.896849200,3.34284912109375,0.6945367455482483,-0.5866218209266663,0.0706922858953476
2024-12-07 20:03:43.906862800,3.35286279296875,0.6338672041893005,-0.7181832790374756,0.0239649936556816
2024-12-07 20:03:43.916877000,3.362876953125,0.5566166043281555,-0.8517293930053711,-0.0231175627559423
2024-12-07 20:03:43.926891000,3.37289111328125,0.4796132743358612,-0.9112177491188048,-0.0540898405015468
2024-12-07 20:03:43.936905200,3.3829052734375,0.41701140999794,-0.894706130027771,-0.0790726840496063
2024-12-07 20:03:43.946919000,3.3929189453125,0.3585487008094787,-0.8383246064186096,-0.0897338092327117
2024-12-07 20:03:43.956933000,3.40293310546875,0.2890399396419525,-0.7816424369812012,-0.0853441208600997
2024-12-07 20:03:43.966947000,3.412947021484375,0.2456201910972595,-0.7274142503738403,-0.0656427219510078
2024-12-07 20:03:43.976961000,3.4229609375,0.2281021773815155,-0.6476309895515442,-0.0477633252739906
2024-12-07 20:03:43.986975000,3.43297509765625,0.2226381301879882,-0.5650579333305359,-0.0437655970454216
2024-12-07 20:03:43.996989000,3.442989013671875,0.2263692319393158,-0.4903533160686493,-0.056569542735815
2024-12-07 20:03:44.007003100,3.453003173828125,0.2255574762821197,-0.4388183951377868,-0.0779731944203376
2024-12-07 20:03:44.017017000,3.46301708984375,0.2277649641036987,-0.4286350011825561,-0.0904674157500267
2024-12-07 20:03:44.027031000,3.473031005859375,0.2418384999036789,-0.4228160083293915,-0.078971043229103
2024-12-07 20:03:44.037045000,3.483044921875,0.2509353458881378,-0.4382929801940918,-0.0543101765215396
2024-12-07 20:03:44.047059000,3.493058837890625,0.2586512267589569,-0.4681544303894043,-0.0316376388072967
2024-12-07 20:03:44.057073200,3.5030732421875,0.2644881010055542,-0.4657179117202759,-0.0114271761849522
2024-12-07 20:03:44.067087000,3.513087158203125,0.2730808556079864,-0.4904859364032745,-0.0008321981877088
2024-12-07 20:03:44.077101000,3.52310107421875,0.2674749195575714,-0.5483191609382629,-0.006280492991209
2024-12-07 20:03:44.087114000,3.533114013671875,0.2427213191986084,-0.6065076589584351,-0.0175269376486539
2024-12-07 20:03:44.097128200,3.543128173828125,0.2184370160102844,-0.652546226978302,-0.011782232671976
2024-12-07 20:03:44.107142000,3.553141845703125,0.2051761001348495,-0.7069137692451477,0.0003365590237081
2024-12-07 20:03:44.117156000,3.563156005859375,0.1819645166397094,-0.7587138414382935,-0.0023737400770187
2024-12-07 20:03:44.127170000,3.573170166015625,0.1684541553258896,-0.7905502915382385,-0.0257273185998201
2024-12-07 20:03:44.137184300,3.583184326171875,0.1657606363296508,-0.7723914980888367,-0.069725401699543
2024-12-07 20:03:44.147198000,3.593197998046875,0.1605558395385742,-0.6821679472923279,-0.1284368932247162
2024-12-07 20:03:44.157212000,3.6032119140625,0.1599177420139312,-0.5675614476203918,-0.1927564889192581
2024-12-07 20:03:44.167226000,3.61322607421875,0.1587950885295868,-0.4724488258361816,-0.2703844010829925
2024-12-07 20:03:44.177240000,3.623239990234375,0.1435618102550506,-0.3934317827224731,-0.3112064003944397
2024-12-07 20:03:44.187254000,3.63325390625,0.1213143914937973,-0.3565260767936706,-0.2756765186786651
2024-12-07 20:03:44.197268000,3.64326806640625,0.0967017263174057,-0.3541784882545471,-0.1942714005708694
2024-12-07 20:03:44.207282200,3.6532822265625,0.0603749975562095,-0.3721063435077667,-0.1416977196931839
2024-12-07 20:03:44.217296100,3.663296142578125,0.0303193591535091,-0.4000253081321716,-0.1322429776191711
2024-12-07 20:03:44.227309800,3.673309814453125,0.0050653330981731,-0.4510626196861267,-0.1397110372781753
2024-12-07 20:03:44.237324000,3.683323974609375,-0.0380070358514785,-0.4998016953468323,-0.1632821410894394
2024-12-07 20:03:44.247338200,3.693338134765625,-0.0929528027772903,-0.50895756483078,-0.1785913705825805
2024-12-07 20:03:44.257352200,3.703352294921875,-0.1464019119739532,-0.4931756556034088,-0.1984849274158477
2024-12-07 20:03:44.267366100,3.7133662109375,-0.1909732520580291,-0.4783247709274292,-0.2329888939857483
2024-12-07 20:03:44.277380400,3.72338037109375,-0.2338466793298721,-0.4550735056400299,-0.2623286843299866
2024-12-07 20:03:44.287394300,3.733394287109375,-0.2812008559703827,-0.4152064323425293,-0.2893472909927368
2024-12-07 20:03:44.297408300,3.743408203125,-0.3303771615028381,-0.358447790145874,-0.3168430924415588
2024-12-07 20:03:44.307422200,3.753422119140625,-0.3760391771793365,-0.295539528131485,-0.3278573155403137
2024-12-07 20:03:44.317436200,3.763436279296875,-0.4116341769695282,-0.2116211652755737,-0.3434818089008331
2024-12-07 20:03:44.327450400,3.773450439453125,-0.4281525015830993,-0.1109020039439201,-0.3778390288352966
2024-12-07 20:03:44.337464300,3.78346435546875,-0.4346247911453247,-0.0352650359272956,-0.4139610826969147
2024-12-07 20:03:44.347477200,3.793477294921875,-0.4461439847946167,-0.043224349617958,-0.4384811520576477
2024-12-07 20:03:44.357491200,3.8034912109375,-0.4728014171123504,-0.0855294615030288,-0.4496275186538696
2024-12-07 20:03:44.367505400,3.81350537109375,-0.5079337358474731,-0.0928597673773765,-0.4451372325420379
2024-12-07 20:03:44.377519000,3.82351904296875,-0.5313059091567993,-0.0600834488868713,-0.4346244037151336
2024-12-07 20:03:44.387533300,3.833533203125,-0.5256076455116272,-0.0086591253057122,-0.4198545515537262
2024-12-07 20:03:44.397547300,3.84354736328125,-0.5003587007522583,0.0235416870564222,-0.4110804796218872
2024-12-07 20:03:44.407561200,3.853561279296875,-0.4638327360153198,0.0027619949541985,-0.4372751712799072
2024-12-07 20:03:44.417575200,3.8635751953125,-0.4369904994964599,-0.0382887683808803,-0.489145815372467
2024-12-07 20:03:44.427589000,3.873589111328125,-0.4116393327713012,-0.0456408895552158,-0.5032362341880798
2024-12-07 20:03:44.437603300,3.883603271484375,-0.3896495997905731,-0.0585652105510234,-0.4613822102546692
2024-12-07 20:03:44.447617300,3.8936171875,-0.3646220564842224,-0.1161675006151199,-0.3797850906848907
2024-12-07 20:03:44.457631200,3.90363134765625,-0.3207384645938873,-0.2282077521085739,-0.3066498935222626
2024-12-07 20:03:44.467645200,3.913645263671875,-0.2734153270721435,-0.3438639044761657,-0.2604101002216339
2024-12-07 20:03:44.477659100,3.9236591796875,-0.2277586162090301,-0.4151274263858795,-0.2391370385885238
2024-12-07 20:03:44.487673300,3.93367333984375,-0.190379798412323,-0.4416171908378601,-0.2396762371063232
2024-12-07 20:03:44.497687300,3.943687255859375,-0.160247191786766,-0.4805232882499695,-0.2585724294185638
2024-12-07 20:03:44.507701200,3.953701171875,-0.1537392735481262,-0.5276302099227905,-0.2769551277160644
2024-12-07 20:03:44.517715200,3.963715087890625,-0.1534769535064697,-0.5672407150268555,-0.2770083844661712
2024-12-07 20:03:44.527729200,3.973729248046875,-0.1612551361322403,-0.6037547588348389,-0.2529065310955047
2024-12-07 20:03:44.537743400,3.983743408203125,-0.1678017228841781,-0.626244068145752,-0.2292765825986862
2024-12-07 20:03:44.547757000,3.993757080078125,-0.1662476360797882,-0.6111883521080017,-0.2037781774997711
2024-12-07 20:03:44.557771300,4.003771240234375,-0.1518007963895797,-0.5777702331542969,-0.1841216534376144
2024-12-07 20:03:44.567785200,4.01378515625,-0.13417649269104,-0.5707613825798035,-0.1634330600500106
2024-12-07 20:03:44.577799400,4.02379931640625,-0.113600380718708,-0.5921540260314941,-0.1533897519111633
2024-12-07 20:03:44.587813000,4.033813232421875,-0.0874858871102333,-0.6039937138557434,-0.1659127175807953
2024-12-07 20:03:44.597827000,4.0438271484375,-0.0624849274754524,-0.5874698758125305,-0.1812392026185989
2024-12-07 20:03:44.607841300,4.05384130859375,-0.0387607626616954,-0.530076801776886,-0.1910737454891204
2024-12-07 20:03:44.617854200,4.063854248046875,-0.0271959863603115,-0.4669215679168701,-0.2153575122356414
2024-12-07 20:03:44.627868200,4.0738681640625,-0.0266324114054441,-0.4349377155303955,-0.2290925681591034
2024-12-07 20:03:44.637882000,4.083882080078125,-0.031037813052535,-0.4239622950553894,-0.2211784571409225
2024-12-07 20:03:44.647896300,4.093896240234375,-0.0270676966756582,-0.4322890043258667,-0.1902769356966018
2024-12-07 20:03:44.657910000,4.103909912109375,-0.0178896430879831,-0.4416766464710235,-0.1470157504081726
2024-12-07 20:03:44.667924200,4.11392431640625,-0.0143221002072095,-0.4421713352203369,-0.1216897070407867
2024-12-07 20:03:44.677938200,4.123938232421875,-0.0144464690238237,-0.4314204156398773,-0.1402045488357544
2024-12-07 20:03:44.687952400,4.133952392578125,-0.0156478658318519,-0.4050602912902832,-0.1684585064649582
2024-12-07 20:03:44.697966300,4.14396630859375,-0.0098954364657402,-0.3507294058799743,-0.1913502365350723
2024-12-07 20:03:44.707980000,4.15397998046875,-0.0122786285355687,-0.2940768003463745,-0.2232780307531356
2024-12-07 20:03:44.717994200,4.163994140625,-0.0141348512843251,-0.2278639376163482,-0.257150799036026
2024-12-07 20:03:44.728008200,4.17400830078125,-0.0157944820821285,-0.153348371386528,-0.2699995636940002
2024-12-07 20:03:44.738022400,4.1840224609375,-0.0118375578895211,-0.0792504400014877,-0.2568075954914093
2024-12-07 20:03:44.748036000,4.1940361328125,-0.0052667884156107,0.0034691328182816,-0.2488353252410888
2024-12-07 20:03:44.758050300,4.20405029296875,-0.0017026797868311,0.087481215596199,-0.2625530064105987
2024-12-07 20:03:44.768064300,4.214064208984375,-0.0213260892778635,0.1921800971031189,-0.2915144860744476
2024-12-07 20:03:44.778078200,4.224078125,-0.0691037327051162,0.2978817522525787,-0.2959409058094024
2024-12-07 20:03:44.788092200,4.234092041015625,-0.1059586852788925,0.357045441865921,-0.2760665714740753
2024-12-07 20:03:44.798106000,4.244106201171875,-0.1241270303726196,0.3759222030639648,-0.2442812174558639
2024-12-07 20:03:44.808120300,4.254120361328125,-0.1310258656740188,0.3770091831684112,-0.2105143368244171
2024-12-07 20:03:44.818134300,4.26413427734375,-0.1317257434129715,0.3863922953605652,-0.2043107748031616
2024-12-07 20:03:44.828148200,4.274148193359375,-0.136397898197174,0.4125686883926391,-0.2243727594614029
2024-12-07 20:03:44.838162200,4.284162109375,-0.1369688808917999,0.4449420869350433,-0.247205376625061
2024-12-07 20:03:44.848176000,4.294176025390625,-0.1327134668827057,0.4515534043312073,-0.2535397112369537
2024-12-07 20:03:44.858190300,4.3041904296875,-0.1165214627981185,0.4303759336471557,-0.2496309876441955
2024-12-07 20:03:44.868204000,4.3142041015625,-0.097821295261383,0.3810399174690246,-0.2571025788784027
2024-12-07 20:03:44.878217200,4.32421728515625,-0.0529534295201301,0.3502694964408874,-0.2803019285202026
2024-12-07 20:03:44.888231200,4.334231201171875,-0.0064146853983402,0.3630379736423492,-0.3108721077442169
2024-12-07 20:03:44.898245400,4.344245361328125,0.0219059027731418,0.4246371686458587,-0.3192168474197387
2024-12-07 20:03:44.908259000,4.354259033203125,0.0328156650066375,0.4983937442302704,-0.2886163890361786
2024-12-07 20:03:44.918273300,4.364273193359375,0.0317099168896675,0.5219219326972961,-0.2265620529651641
2024-12-07 20:03:44.928287200,4.374287353515625,0.0241965893656015,0.4780373871326446,-0.1564643234014511
2024-12-07 20:03:44.938301400,4.384301513671875,0.0093041937798261,0.4208121597766876,-0.0999690815806388
2024-12-07 20:03:44.948315100,4.394315185546875,-0.0111560551449656,0.382762461900711,-0.0828618854284286
2024-12-07 20:03:44.958329000,4.4043291015625,-0.0241203233599662,0.3522146940231323,-0.0920998528599739
2024-12-07 20:03:44.968343300,4.41434326171875,-0.0305687375366687,0.3111888170242309,-0.1154894530773162
2024-12-07 20:03:44.978357200,4.424357177734375,-0.0257428213953971,0.2457741200923919,-0.1291253566741943
2024-12-07 20:03:44.988371200,4.43437109375,-0.0128018883988261,0.1661571860313415,-0.1262556910514831
2024-12-07 20:03:44.998385200,4.44438525390625,0.0077896728180348,0.0840364843606948,-0.1115028485655784
2024-12-07 20:03:45.008399400,4.4543994140625,0.0238870307803154,0.0140477549284696,-0.1187101304531097
2024-12-07 20:03:45.018413300,4.464413330078125,0.0430388860404491,-0.0589044839143753,-0.1356845796108245
2024-12-07 20:03:45.028427000,4.474427001953125,0.0607197359204292,-0.0937766507267952,-0.1682561486959457
2024-12-07 20:03:45.038441200,4.484441162109375,0.0709601193666458,-0.0504169277846813,-0.2283351868391037
2024-12-07 20:03:45.048455200,4.494455078125,0.0706377252936363,0.0358442515134811,-0.2673838436603546
2024-12-07 20:03:45.058469400,4.504469482421875,0.069481648504734,0.1101224794983863,-0.2461635172367096
2024-12-07 20:03:45.068483000,4.514483154296875,0.0541247762739658,0.1536817699670791,-0.189279556274414
2024-12-07 20:03:45.078497300,4.524497314453125,0.0271861050277948,0.171792596578598,-0.1540991961956024
2024-12-07 20:03:45.088511200,4.53451123046875,0.0286154877394437,0.1563119143247604,-0.1378314942121505
2024-12-07 20:03:45.098525200,4.544525146484375,0.0236966293305158,0.1284456551074981,-0.1380717009305954
2024-12-07 20:03:45.108539400,4.554539306640625,0.000428577652201,0.0881635248661041,-0.1291190981864929
2024-12-07 20:03:45.118553000,4.564552978515625,-0.0262006372213363,0.0345487669110298,-0.0950617939233779
2024-12-07 20:03:45.128567300,4.5745673828125,-0.0456880778074264,-0.0452618040144443,-0.0522358529269695
2024-12-07 20:03:45.138580200,4.584580322265625,-0.0603642277419567,-0.1301183700561523,-0.0333585664629936
2024-12-07 20:03:45.148594200,4.59459423828125,-0.0772633105516433,-0.1976814419031143,-0.062255997210741
2024-12-07 20:03:45.158608100,4.604608154296875,-0.0895790979266166,-0.230149894952774,-0.1370500773191452
2024-12-07 20:03:45.168622300,4.614622314453125,-0.0982770100235939,-0.2195408195257187,-0.2096809595823288
2024-12-07 20:03:45.178636300,4.62463623046875,-0.1010163426399231,-0.1778410375118255,-0.2419728636741638
2024-12-07 20:03:45.188650200,4.634650146484375,-0.1193522438406944,-0.1215067580342292,-0.251726895570755
2024-12-07 20:03:45.198664200,4.644664306640625,-0.1140490919351577,-0.0931693911552429,-0.2377679198980331
2024-12-07 20:03:45.208678100,4.65467822265625,-0.1094656959176063,-0.0827259272336959,-0.2168489396572113
2024-12-07 20:03:45.218692400,4.6646923828125,-0.1107871606945991,-0.0625982880592346,-0.2039278149604797
2024-12-07 20:03:45.228706000,4.6747060546875,-0.111933633685112,-0.0177427157759666,-0.2118442058563232
2024-12-07 20:03:45.238720300,4.68472021484375,-0.1119277775287628,0.0403608009219169,-0.2399621158838272
2024-12-07 20:03:45.248734000,4.69473388671875,-0.1057007163763046,0.0766248181462287,-0.2771351635456085
2024-12-07 20:03:45.258748000,4.704747802734375,-0.0753968730568885,0.0854579880833625,-0.3022432029247284
2024-12-07 20:03:45.268761900,4.714761962890625,-0.037253625690937,0.1128473281860351,-0.3051995933055877
2024-12-07 20:03:45.278775800,4.72477587890625,-0.0133680012077093,0.1642023921012878,-0.3045995831489563
2024-12-07 20:03:45.288790000,4.7347900390625,-0.0023809433914721,0.2111228257417678,-0.3038073182106018
2024-12-07 20:03:45.298804000,4.744803955078125,0.0086429454386234,0.2390623092651367,-0.2871406972408294
2024-12-07 20:03:45.308818000,4.75481787109375,0.0214306768029928,0.2596161961555481,-0.2564556896686554
2024-12-07 20:03:45.318831900,4.764831787109375,0.0193403623998165,0.2941597998142242,-0.1936892420053482
2024-12-07 20:03:45.328846000,4.77484619140625,0.0098907370120286,0.3352070748806,-0.1137227416038513
2024-12-07 20:03:45.338860000,4.784860107421875,0.0075663300231099,0.3549498915672302,-0.0427644103765487
2024-12-07 20:03:45.348873700,4.794873779296875,0.0055778473615646,0.3409918546676636,0.0229167081415653
2024-12-07 20:03:45.358888000,4.804887939453125,-0.0046841106377542,0.3227271139621734,0.0729178264737129
2024-12-07 20:03:45.368902000,4.81490185546875,-0.0130607252940535,0.2968951463699341,0.0961764082312583
2024-12-07 20:03:45.378916000,4.824916015625,-0.0141491591930389,0.2770644426345825,0.0906159952282905
2024-12-07 20:03:45.388928800,4.8349287109375,-0.0068267434835433,0.2945694327354431,0.0562789663672447
2024-12-07 20:03:45.398943000,4.84494287109375,0.0041910205036401,0.3218345940113067,0.0081756189465522
2024-12-07 20:03:45.408957000,4.85495703125,0.0138081954792141,0.3316820561885834,-0.0368699505925178
2024-12-07 20:03:45.418971000,4.864970947265625,0.0122861983254551,0.3179047107696533,-0.0655138418078422
2024-12-07 20:03:45.428984800,4.87498486328125,-0.0004293005913496,0.2907094955444336,-0.0753927677869796
2024-12-07 20:03:45.438999000,4.8849990234375,-0.0191276203840971,0.2571089267730713,-0.0854768231511116
2024-12-07 20:03:45.449013000,4.895012939453125,-0.0375723876059055,0.2211755961179733,-0.1078414022922515
2024-12-07 20:03:45.459027000,4.90502685546875,-0.0493259839713573,0.185818150639534,-0.1375984847545623
2024-12-07 20:03:45.469041000,4.915041015625,-0.0547222681343555,0.1689118146896362,-0.1695367246866226
2024-12-07 20:03:45.479054800,4.925054931640625,-0.0550628863275051,0.1389179527759552,-0.2058878093957901
2024-12-07 20:03:45.489069000,4.935069091796875,-0.0545774884521961,0.0865744352340698,-0.2344127893447876
2024-12-07 20:03:45.499083000,4.9450830078125,-0.0672405511140823,0.0450861118733882,-0.2398102134466171
2024-12-07 20:03:45.509097000,4.955096923828125,-0.0771295800805091,0.0331508070230484,-0.226690262556076
2024-12-07 20:03:45.519111000,4.96511083984375,-0.0815474987030029,0.037012655287981,-0.2032608389854431
2024-12-07 20:03:45.529124900,4.975124755859375,-0.0874431282281875,0.0393873639404773,-0.1776433438062667
2024-12-07 20:03:45.539139000,4.98513916015625,-0.1015549525618553,0.0507159195840358,-0.1515542268753051
2024-12-07 20:03:45.549152800,4.99515283203125,-0.1195884495973587,0.0688218176364898,-0.1336028128862381
2024-12-07 20:03:45.559167000,5.0051669921875,-0.1411264985799789,0.0980169847607612,-0.1329705715179443
2024-12-07 20:03:45.569181000,5.015180908203125,-0.1609803587198257,0.1513292044401168,-0.1459249854087829
2024-12-07 20:03:45.579195100,5.025195068359375,-0.1708889156579971,0.2335817366838455,-0.1429877877235412
2024-12-07 20:03:45.589208800,5.035208740234375,-0.1710483729839325,0.2974078357219696,-0.1265214383602142
2024-12-07 20:03:45.599222800,5.045222900390625,-0.1665705442428589,0.3274275064468384,-0.1154163107275962
2024-12-07 20:03:45.609237000,5.055237060546875,-0.16206094622612,0.3238869309425354,-0.1112893000245094
2024-12-07 20:03:45.619251000,5.0652509765625,-0.151748925447464,0.3088483214378357,-0.1132645606994628
2024-12-07 20:03:45.629265000,5.075264892578125,-0.141545683145523,0.3159658312797546,-0.1153324544429779
2024-12-07 20:03:45.639277800,5.08527783203125,-0.1393810659646988,0.3515475392341614,-0.1193807274103164
2024-12-07 20:03:45.649292000,5.0952919921875,-0.1427332609891891,0.39745032787323,-0.1227658838033676
2024-12-07 20:03:45.659306000,5.105305908203125,-0.1527499407529831,0.4394526481628418,-0.1187021732330322
2024-12-07 20:03:45.669320000,5.11531982421875,-0.1713977456092834,0.4614597856998443,-0.1092502251267433
2024-12-07 20:03:45.679334000,5.125333984375,-0.1834677308797836,0.4606136977672577,-0.0925471410155296
2024-12-07 20:03:45.689348000,5.13534814453125,-0.1949439048767089,0.4344748258590698,-0.0854945629835128
2024-12-07 20:03:45.699362000,5.145362060546875,-0.2082762122154235,0.4034692347049713,-0.0901502966880798
2024-12-07 20:03:45.709375700,5.155375732421875,-0.2153487354516983,0.3745180666446686,-0.1039151847362518
2024-12-07 20:03:45.719390000,5.165389892578125,-0.2166406363248825,0.3681805431842804,-0.1241504177451133
2024-12-07 20:03:45.729404000,5.17540380859375,-0.2148313671350479,0.3905456066131592,-0.1422347426414489
2024-12-07 20:03:45.739418000,5.185418212890625,-0.2152076661586761,0.428320437669754,-0.1493517756462097
2024-12-07 20:03:45.749431800,5.195431884765625,-0.2159756571054458,0.4677237272262573,-0.1515459418296814
2024-12-07 20:03:45.759446000,5.205446044921875,-0.2213456630706787,0.4993226528167724,-0.1580973118543625
2024-12-07 20:03:45.769460000,5.2154599609375,-0.2318859100341797,0.5185211896896362,-0.1737202107906341
2024-12-07 20:03:45.779474000,5.225473876953125,-0.2461338341236114,0.522200882434845,-0.1904160976409912
2024-12-07 20:03:45.789487900,5.23548779296875,-0.2654436528682709,0.5230196714401245,-0.2017017006874084
2024-12-07 20:03:45.799501800,5.245501708984375,-0.2796382904052734,0.5161228775978088,-0.2051025629043579
2024-12-07 20:03:45.809516000,5.25551611328125,-0.2884240746498108,0.4895608127117157,-0.1937510967254638
2024-12-07 20:03:45.819530000,5.265530029296875,-0.2984804213047027,0.4533942639827728,-0.1656182706356048
2024-12-07 20:03:45.829544000,5.2755439453125,-0.3017533719539642,0.4262866973876953,-0.1324094384908676
2024-12-07 20:03:45.839558000,5.285557861328125,-0.2966044247150421,0.3931590914726257,-0.1036723330616951
2024-12-07 20:03:45.849571800,5.29557177734375,-0.2785476446151733,0.3356879353523254,-0.0787896662950515
2024-12-07 20:03:45.859586000,5.3055859375,-0.2541128695011139,0.2459218204021453,-0.0699714124202728
2024-12-07 20:03:45.869599700,5.315599853515625,-0.2271960079669952,0.1302183717489242,-0.0669141262769699
2024-12-07 20:03:45.879613000,5.325613037109375,-0.2060377299785614,0.0251156445592641,-0.0699626430869102
2024-12-07 20:03:45.889627000,5.335626953125,-0.1713762730360031,-0.0447492487728595,-0.0763387456536293
2024-12-07 20:03:45.899641000,5.34564111328125,-0.0919165983796119,-0.0766949281096458,-0.0627459734678268
2024-12-07 20:03:45.909654800,5.35565478515625,-0.0392633192241191,-0.0671383962035179,-0.0453129261732101
2024-12-07 20:03:45.919669000,5.3656689453125,-0.0044877622276544,-0.0320701636373996,-0.04301168769598
2024-12-07 20:03:45.929683000,5.375682861328125,0.0327739752829074,0.027273116633296,-0.0462597161531448
2024-12-07 20:03:45.939697200,5.385697265625,0.0520603209733963,0.1235024482011795,-0.050951674580574
2024-12-07 20:03:45.949710800,5.3957109375,0.038815040141344,0.2395946234464645,-0.0515409633517265
2024-12-07 20:03:45.959724800,5.405724853515625,-0.0087247807532548,0.3369579315185547,-0.0421842113137245
2024-12-07 20:03:45.969739000,5.415739013671875,-0.0871188938617706,0.3608285188674927,-0.0192433949559927
2024-12-07 20:03:45.979753000,5.4257529296875,-0.1590130627155304,0.3098862469196319,0.0168107450008392
2024-12-07 20:03:45.989767000,5.435766845703125,-0.2237989604473114,0.2696487307548523,0.0599878914654254
2024-12-07 20:03:45.999780900,5.44578076171875,-0.2667671740055084,0.2689685523509979,0.0916696488857269
2024-12-07 20:03:46.009795000,5.455795166015625,-0.2735607326030731,0.2631997466087341,0.1070245280861854
2024-12-07 20:03:46.019809000,5.46580908203125,-0.2694371044635772,0.2301499247550964,0.1043453887104988
2024-12-07 20:03:46.029822700,5.47582275390625,-0.2582627534866333,0.1808295100927353,0.0827013403177261
2024-12-07 20:03:46.039837000,5.4858369140625,-0.2452742457389831,0.1166707575321197,0.0428050532937049
2024-12-07 20:03:46.049851000,5.495850830078125,-0.2225473374128341,0.0571793653070926,-0.0045216251164674
2024-12-07 20:03:46.059865000,5.505864990234375,-0.2039462178945541,0.0242847967892885,-0.0453273802995681
2024-12-07 20:03:46.069878800,5.515878662109375,-0.1831431537866592,0.0082014389336109,-0.057731807231903
2024-12-07 20:03:46.079893000,5.52589306640625,-0.1664754897356033,0.0012218266492709,-0.0612024366855621
2024-12-07 20:03:46.089907000,5.535906982421875,-0.1484124213457107,-0.0012247189879417,-0.0619567818939685
2024-12-07 20:03:46.099921000,5.5459208984375,-0.1366537660360336,-0.0015698645729571,-0.0552661195397377
2024-12-07 20:03:46.109935000,5.55593505859375,-0.1280719637870788,-0.0081192152574658,-0.042417075484991
2024-12-07 20:03:46.119948800,5.56594873046875,-0.1176787167787551,0.014390354976058,-0.014490102417767
2024-12-07 20:03:46.129962000,5.5759619140625,-0.099576212465763,0.0388320498168468,0.0307628195732831
2024-12-07 20:03:46.139976000,5.585975830078125,-0.0778911560773849,0.0697145909070968,0.0804526135325431
2024-12-07 20:03:46.149990000,5.595989990234375,-0.0620391815900802,0.1018465384840965,0.1243185549974441
2024-12-07 20:03:46.160003800,5.60600390625,-0.0434495210647583,0.1366671025753021,0.1575316339731216
2024-12-07 20:03:46.170018000,5.61601806640625,-0.0248247813433408,0.1649922728538513,0.1898440271615982
2024-12-07 20:03:46.180032000,5.626031982421875,-0.0032212182413786,0.1882712244987487,0.2263293415307998
2024-12-07 20:03:46.190046000,5.6360458984375,0.0224352721124887,0.2041596472263336,0.2722932696342468
2024-12-07 20:03:46.200060000,5.646059814453125,0.057262759655714,0.2057106792926788,0.3172530233860016
2024-12-07 20:03:46.210073900,5.656073974609375,0.096926711499691,0.2089164704084396,0.3555523753166199
2024-12-07 20:03:46.220088000,5.666088134765625,0.1375732123851776,0.2185105085372924,0.3860756754875183
2024-12-07 20:03:46.230101800,5.676101806640625,0.1806315332651138,0.237632006406784,0.4270868003368377
2024-12-07 20:03:46.240116000,5.686115966796875,0.2188050299882888,0.2540748715400696,0.4767100214958191
2024-12-07 20:03:46.250130200,5.696130126953125,0.2630011439323425,0.2658213973045349,0.5374485850334167
2024-12-07 20:03:46.260143900,5.706143798828125,0.3077150881290436,0.277964323759079,0.599006175994873
2024-12-07 20:03:46.270158000,5.716157958984375,0.3516638576984405,0.2773436605930328,0.6543324589729309
2024-12-07 20:03:46.280172000,5.726172119140625,0.3943117260932922,0.270829826593399,0.70699542760849
2024-12-07 20:03:46.290186200,5.736186279296875,0.444551944732666,0.2630245387554168,0.7565321922302246
2024-12-07 20:03:46.300200000,5.746199951171875,0.4989811182022095,0.266335666179657,0.7979451417922974
2024-12-07 20:03:46.310214100,5.756214111328125,0.543615996837616,0.2810080051422119,0.8323032259941101
2024-12-07 20:03:46.320228000,5.76622802734375,0.571572482585907,0.3164671957492828,0.8732756972312927
2024-12-07 20:03:46.330242000,5.776241943359375,0.5886870622634888,0.3706390857696533,0.9130856990814208
2024-12-07 20:03:46.340256000,5.786256103515625,0.6038068532943726,0.4496060609817505,0.9539138078689576
2024-12-07 20:03:46.350270000,5.79627001953125,0.6029351949691772,0.5552663803100586,0.9970415830612184
2024-12-07 20:03:46.360283100,5.806283203125,0.5913885235786438,0.6577466726303101,1.0504968166351318
2024-12-07 20:03:46.370296800,5.816296875,0.5805851817131042,0.7525725960731506,1.120030641555786
2024-12-07 20:03:46.380311000,5.82631103515625,0.5704382658004761,0.8237900137901306,1.2024253606796265
2024-12-07 20:03:46.390325000,5.836324951171875,0.556840717792511,0.8471742868423462,1.2983648777008057
2024-12-07 20:03:46.400339200,5.846339111328125,0.5528050065040588,0.8291817307472229,1.3816534280776978
2024-12-07 20:03:46.410353000,5.856352783203125,0.5727328062057495,0.8057840466499329,1.4231942892074585
2024-12-07 20:03:46.420367000,5.8663671875,0.6152142286300659,0.8409937024116516,1.4078112840652466
2024-12-07 20:03:46.430381000,5.876381103515625,0.6723281741142273,0.9683274030685424,1.346636176109314
2024-12-07 20:03:46.440395000,5.88639501953125,0.7308875918388367,1.152743577957153,1.27595853805542
2024-12-07 20:03:46.450409200,5.8964091796875,0.7866634726524353,1.3179941177368164,1.2029480934143066
2024-12-07 20:03:46.460423000,5.9064228515625,0.8340552449226379,1.389083743095398,1.1299349069595337
2024-12-07 20:03:46.470437000,5.91643701171875,0.8738789558410645,1.3709782361984253,1.0542771816253662
2024-12-07 20:03:46.480451000,5.926451171875,0.9062826633453368,1.2946157455444336,0.94234699010849
2024-12-07 20:03:46.490465300,5.93646533203125,0.9381637573242188,1.2324823141098022,0.7975383996963501
2024-12-07 20:03:46.500479000,5.94647900390625,0.9795271754264832,1.160475492477417,0.6263877153396606
2024-12-07 20:03:46.510493000,5.956492919921875,1.034931182861328,0.9749440550804138,0.4548811018466949
2024-12-07 20:03:46.520507100,5.966507080078125,1.0891207456588743,0.6938527822494507,0.3244567811489105
2024-12-07 20:03:46.530521000,5.97652099609375,1.1212046146392822,0.3569889962673187,0.2244498133659362
2024-12-07 20:03:46.540535000,5.98653515625,1.138241410255432,0.0014007911086082,0.1301504671573639
2024-12-07 20:03:46.550549000,5.996549072265625,1.1394245624542236,-0.3479427099227905,0.0443509854376316
2024-12-07 20:03:46.560563200,6.006563232421875,1.1079603433609009,-0.634601354598999,-0.0092491246759891
2024-12-07 20:03:46.570577200,6.0165771484375,1.0326509475708008,-0.8532891273498535,-0.0204182602465152
2024-12-07 20:03:46.580590800,6.0265908203125,0.9367859363555908,-0.9919295907020568,4.12086956202e-05
2024-12-07 20:03:46.590604000,6.03660400390625,0.8438481092453003,-1.030598521232605,0.0321303904056549
2024-12-07 20:03:46.600618200,6.0466181640625,0.765359103679657,-1.003764510154724,0.0553355738520622
2024-12-07 20:03:46.610632000,6.0566318359375,0.7095173597335815,-0.9477792978286744,0.0400681868195533
2024-12-07 20:03:46.620646000,6.06664599609375,0.6850482225418091,-0.904015302658081,-0.0302171595394611
2024-12-07 20:03:46.630660000,6.07666015625,0.6703866720199585,-0.8817362785339355,-0.1566516458988189
2024-12-07 20:03:46.640674000,6.086674072265625,0.6352095603942871,-0.9053915739059448,-0.3007483780384063
2024-12-07 20:03:46.650688300,6.096688232421875,0.5746930837631226,-0.946803331375122,-0.4150165021419525
2024-12-07 20:03:46.660702000,6.106701904296875,0.5015823841094971,-0.9693597555160522,-0.4593775570392608
2024-12-07 20:03:46.670716200,6.116716064453125,0.4032590389251709,-1.0198346376419067,-0.4306833446025848
2024-12-07 20:03:46.680730000,6.126730224609375,0.3074842989444732,-1.0502040386199951,-0.3556335866451263
2024-12-07 20:03:46.690744000,6.136744140625,0.2255249172449112,-1.0534530878067017,-0.2525920867919922
2024-12-07 20:03:46.700758000,6.146758056640625,0.1548025459051132,-1.007923245429993,-0.1585249453783035
2024-12-07 20:03:46.710772000,6.15677197265625,0.0976560413837432,-0.945381760597229,-0.0936054065823555
2024-12-07 20:03:46.720786200,6.1667861328125,0.0545663610100746,-0.8385751843452454,-0.0647061169147491
2024-12-07 20:03:46.730800000,6.176800048828125,0.0182841252535581,-0.7212626934051514,-0.0615400858223438
2024-12-07 20:03:46.740814000,6.18681396484375,-0.0158765073865652,-0.6046047806739807,-0.064479149878025
2024-12-07 20:03:46.750828000,6.196828125,-0.0450129136443138,-0.501660943031311,-0.0622502230107784
2024-12-07 20:03:46.760842000,6.206842041015625,-0.0759519264101982,-0.4098609983921051,-0.0366489849984645
2024-12-07 20:03:46.770856200,6.216856201171875,-0.0955301597714424,-0.334148108959198,0.0089312940835952
2024-12-07 20:03:46.780870000,6.226869873046875,-0.1064366027712822,-0.2657277882099151,0.0362851545214653
2024-12-07 20:03:46.790884000,6.236884033203125,-0.1081266403198242,-0.1918482482433319,0.0480928122997283
2024-12-07 20:03:46.800898000,6.24689794921875,-0.1064501851797103,-0.1614807546138763,0.0503844618797302
2024-12-07 20:03:46.810911000,6.256910888671875,-0.1059270352125167,-0.1549840867519378,0.0375132597982883
2024-12-07 20:03:46.820925000,6.266925048828125,-0.1107082068920135,-0.1469722390174865,0.0016604545526206
2024-12-07 20:03:46.830939100,6.276939208984375,-0.1179087162017822,-0.143659308552742,-0.0585336051881313
2024-12-07 20:03:46.840953000,6.286953125,-0.1212347373366355,-0.1580912470817566,-0.1393064856529235
2024-12-07 20:03:46.850967300,6.29696728515625,-0.1190933883190155,-0.1985227167606353,-0.2237314730882644
2024-12-07 20:03:46.860981000,6.30698095703125,-0.1075312718749046,-0.2542967796325683,-0.2688677906990051
2024-12-07 20:03:46.870995000,6.316994873046875,-0.1053724959492683,-0.3322880268096924,-0.2702929973602295
2024-12-07 20:03:46.881009200,6.327009033203125,-0.1180432811379432,-0.4110424816608429,-0.2593719065189361
2024-12-07 20:03:46.891023000,6.337023193359375,-0.1270919144153595,-0.4646052718162536,-0.2681977450847626
2024-12-07 20:03:46.901037000,6.347037109375,-0.1225773319602012,-0.473653107881546,-0.301113098859787
2024-12-07 20:03:46.911051000,6.357051025390625,-0.090764470398426,-0.4589362144470215,-0.3662276268005371
2024-12-07 20:03:46.921065200,6.367065185546875,-0.0341632440686225,-0.4396301805973053,-0.4211180210113525
2024-12-07 20:03:46.931079200,6.3770791015625,0.0316475071012973,-0.425975501537323,-0.4416286945343017
2024-12-07 20:03:46.941092900,6.3870927734375,0.0663064122200012,-0.3964474499225616,-0.4409003257751465
2024-12-07 20:03:46.951107000,6.397107177734375,0.0763554722070694,-0.4219310581684112,-0.4377521574497223
2024-12-07 20:03:46.961121000,6.40712109375,0.0733956396579742,-0.510540246963501,-0.418230652809143
2024-12-07 20:03:46.971135200,6.41713525390625,0.0749356895685195,-0.5559632182121277,-0.3539069890975952
2024-12-07 20:03:46.981149000,6.42714892578125,0.0978513956069946,-0.4927288293838501,-0.3125006854534149
2024-12-07 20:03:46.991163100,6.4371630859375,0.1189441084861755,-0.390462189912796,-0.3373918235301971
2024-12-07 20:03:47.001177000,6.447177001953125,0.1011177077889442,-0.3551649153232574,-0.3671832680702209
2024-12-07 20:03:47.011191000,6.45719091796875,0.0298625621944665,-0.4186296463012695,-0.3717988729476928
2024-12-07 20:03:47.021205000,6.467205078125,-0.0803209319710731,-0.4872808754444122,-0.3437792360782623
2024-12-07 20:03:47.031219000,6.477218994140625,-0.2038871347904205,-0.5471972227096558,-0.3066168427467346
2024-12-07 20:03:47.041232100,6.487232177734375,-0.3112524747848511,-0.6334854960441589,-0.2834196388721466
2024-12-07 20:03:47.051246000,6.49724609375,-0.3648394346237182,-0.6858487129211426,-0.2797193527221679
2024-12-07 20:03:47.061260000,6.507260009765625,-0.3807036280632019,-0.6308443546295166,-0.3020744621753692
2024-12-07 20:03:47.071274000,6.51727392578125,-0.3844138979911804,-0.5358080267906189,-0.3436011970043182
2024-12-07 20:03:47.081288200,6.5272880859375,-0.4030501544475555,-0.4265624582767486,-0.3940049707889557
2024-12-07 20:03:47.091302100,6.53730224609375,-0.4369969367980957,-0.3192631900310516,-0.4179286956787109
2024-12-07 20:03:47.101316000,6.547316162109375,-0.4612375497817993,-0.2673568427562713,-0.3990316987037658
2024-12-07 20:03:47.111330000,6.557330078125,-0.4642781913280487,-0.2885999381542206,-0.3506006300449371
2024-12-07 20:03:47.121344000,6.567343994140625,-0.4388846755027771,-0.3656031191349029,-0.2917972505092621
2024-12-07 20:03:47.131358200,6.577358154296875,-0.3668298125267029,-0.4390982389450073,-0.1993654668331146
2024-12-07 20:03:47.141372000,6.587371826171875,-0.2436703443527221,-0.5039078593254089,-0.0822955667972564
2024-12-07 20:03:47.151386000,6.59738623046875,-0.1285659372806549,-0.567192018032074,-0.0208223722875118
2024-12-07 20:03:47.161400000,6.607400146484375,-0.0764438807964325,-0.6217257976531982,-0.0406392216682434
2024-12-07 20:03:47.171414000,6.6174140625,-0.0463880039751529,-0.6369451284408569,-0.0748311057686805
2024-12-07 20:03:47.181428000,6.627427978515625,0.014522485435009,-0.619595468044281,-0.0971350818872451
2024-12-07 20:03:47.191442000,6.63744189453125,0.0663438215851783,-0.609792947769165,-0.1423035413026809
2024-12-07 20:03:47.201456000,6.6474560546875,0.0898523405194282,-0.6044541001319885,-0.1903634816408157
2024-12-07 20:03:47.211470000,6.657469970703125,0.0807197093963623,-0.5785980820655823,-0.2111012190580368
2024-12-07 20:03:47.221484000,6.667484130859375,0.043784599751234,-0.532598078250885,-0.2042326629161834
2024-12-07 20:03:47.231498000,6.677498046875,-0.0056768413633108,-0.4519748389720917,-0.2112911343574524
2024-12-07 20:03:47.241512000,6.687511962890625,-0.0726894289255142,-0.3360423743724823,-0.2259837985038757
2024-12-07 20:03:47.251526000,6.69752587890625,-0.1462389677762985,-0.2493297904729843,-0.2204692512750625
2024-12-07 20:03:47.261538800,6.707538818359375,-0.2096887826919555,-0.2114729434251785,-0.2167994230985641
2024-12-07 20:03:47.271552800,6.717552734375,-0.2487740069627761,-0.1914941221475601,-0.2337648570537567
2024-12-07 20:03:47.281567000,6.72756689453125,-0.2641361951828003,-0.1828492432832718,-0.2552461922168731
2024-12-07 20:03:47.291581000,6.737580810546875,-0.255134642124176,-0.1798848211765289,-0.2562513351440429
2024-12-07 20:03:47.301594600,6.7475947265625,-0.2224329113960266,-0.1919140517711639,-0.2363788336515426
2024-12-07 20:03:47.311608800,6.75760888671875,-0.185990110039711,-0.2032142281532287,-0.2190231680870056
2024-12-07 20:03:47.321622800,6.767622802734375,-0.1584343761205673,-0.219646468758583,-0.2154907435178756
2024-12-07 20:03:47.331637000,6.777636962890625,-0.1451676189899444,-0.227809652686119,-0.2152467370033264
2024-12-07 20:03:47.341651000,6.78765087890625,-0.1334880590438842,-0.2097041606903076,-0.2190659642219543
2024-12-07 20:03:47.351665000,6.797664794921875,-0.1132177039980888,-0.1533353477716446,-0.2188974916934967
2024-12-07 20:03:47.361678800,6.807678955078125,-0.0857197642326355,-0.0543887838721275,-0.2270065546035766
2024-12-07 20:03:47.371692800,6.81769287109375,-0.066903255879879,0.057472463697195,-0.2429848909378051
2024-12-07 20:03:47.381707000,6.82770703125,-0.0606837123632431,0.1515028327703476,-0.2664422988891601
2024-12-07 20:03:47.391720700,6.837720703125,-0.0549206733703613,0.2213616818189621,-0.2946256697177887
2024-12-07 20:03:47.401735000,6.84773486328125,-0.0520204901695251,0.285186767578125,-0.3149852454662323
2024-12-07 20:03:47.411748900,6.857748779296875,-0.0445015840232372,0.3571687936782837,-0.314435601234436
2024-12-07 20:03:47.421762800,6.8677626953125,-0.0491370819509029,0.4284445643424988,-0.3060581088066101
2024-12-07 20:03:47.431776800,6.87777685546875,-0.061076670885086,0.4969239234924316,-0.2857081890106201
2024-12-07 20:03:47.441790700,6.887790771484375,-0.0730422511696815,0.5638222694396973,-0.2436733841896057
2024-12-07 20:03:47.451805000,6.897804931640625,-0.0889780223369598,0.6000963449478149,-0.2072241306304931
2024-12-07 20:03:47.461819000,6.90781884765625,-0.1059847027063369,0.613470733165741,-0.175461396574974
2024-12-07 20:03:47.471832800,6.917832763671875,-0.1109396517276763,0.5977757573127747,-0.1516693085432052
2024-12-07 20:03:47.481845800,6.927845703125,-0.1121338158845901,0.5578283071517944,-0.1330721974372863
2024-12-07 20:03:47.491860000,6.93785986328125,-0.1176898404955864,0.5093220472335815,-0.1269178092479705
2024-12-07 20:03:47.501873700,6.947873779296875,-0.1086183115839958,0.4652030766010284,-0.1234181448817253
2024-12-07 20:03:47.511888000,6.957887939453125,-0.1044933572411537,0.4270006120204925,-0.1112857013940811
2024-12-07 20:03:47.521901800,6.96790185546875,-0.1134865880012512,0.3747552633285522,-0.0896802768111229
2024-12-07 20:03:47.531915800,6.977915771484375,-0.1308460682630539,0.3002259135246277,-0.0709384977817535
2024-12-07 20:03:47.541930000,6.987929931640625,-0.1164490208029747,0.2074381858110427,-0.0787620618939399
2024-12-07 20:03:47.551943700,6.997943603515625,-0.1148862466216087,0.1055143475532531,-0.1038535013794899
2024-12-07 20:03:47.561958000,7.0079580078125,-0.1409250348806381,0.0044335350394248,-0.1083747521042823
2024-12-07 20:03:47.571971800,7.017971923828125,-0.1544204205274582,-0.1433228403329849,-0.0583051815629005
2024-12-07 20:03:47.581986000,7.027986083984375,-0.166856050491333,-0.34171262383461,-0.0127989500761032
2024-12-07 20:03:47.591999700,7.037999755859375,-0.1739031821489334,-0.5258451700210571,-0.0020289383828639
2024-12-07 20:03:47.602014000,7.048013916015625,-0.1650335192680359,-0.6594101190567017,-0.0284331161528825
2024-12-07 20:03:47.612028000,7.05802783203125,-0.1389470398426056,-0.7214938998222351,-0.0931411683559417
2024-12-07 20:03:47.622041900,7.068041748046875,-0.0989567413926124,-0.6955642700195312,-0.171778455376625
2024-12-07 20:03:47.632055800,7.078055908203125,-0.0499112680554389,-0.5836487412452698,-0.2501764297485351
2024-12-07 20:03:47.642069800,7.08806982421875,0.0008483171695843,-0.4302408397197723,-0.3176481425762176
2024-12-07 20:03:47.652084000,7.098083984375,0.0470181629061698,-0.26316699385643,-0.3597292304039001
2024-12-07 20:03:47.662098000,7.108097900390625,0.0779867321252822,-0.0831348970532417,-0.3710849583148956
2024-12-07 20:03:47.672111900,7.11811181640625,0.1020122170448303,0.0662346854805946,-0.3311908543109894
2024-12-07 20:03:47.682125800,7.128125732421875,0.1188164949417114,0.1446495950222015,-0.2667681872844696
2024-12-07 20:03:47.692139800,7.138139892578125,0.1241502687335014,0.1739595681428909,-0.2282682061195373
2024-12-07 20:03:47.702153000,7.148153076171875,0.1141397133469581,0.1984489262104034,-0.1997928917407989
2024-12-07 20:03:47.712167000,7.1581669921875,0.1018362119793891,0.2627585530281067,-0.1646761000156402
2024-12-07 20:03:47.722180900,7.168180908203125,0.0929183512926101,0.3466761112213135,-0.1247561275959014
2024-12-07 20:03:47.732194800,7.17819482421875,0.0844294726848602,0.4218285679817199,-0.0878925696015358
2024-12-07 20:03:47.742209000,7.188208984375,0.0639399141073226,0.4461000859737396,-0.0797571465373039
2024-12-07 20:03:47.752222700,7.19822265625,0.0357963778078556,0.415160983800888,-0.0957879871129989
2024-12-07 20:03:47.762237000,7.20823681640625,0.0032464247196912,0.3489699959754944,-0.1213189139962196
2024-12-07 20:03:47.772251000,7.2182509765625,-0.0228520501405,0.284063309431076,-0.1578495651483535
2024-12-07 20:03:47.782264800,7.228264892578125,-0.0426965951919555,0.2464429438114166,-0.1995016634464264
2024-12-07 20:03:47.792278800,7.23827880859375,-0.0599348247051239,0.2420329302549362,-0.2506292462348938
2024-12-07 20:03:47.802292700,7.248292724609375,-0.0813327878713607,0.2390102446079254,-0.2911740243434906
2024-12-07 20:03:47.812307000,7.258306884765625,-0.1167722418904304,0.2048918753862381,-0.3101066052913666
2024-12-07 20:03:47.822321000,7.26832080078125,-0.1399470865726471,0.1340589821338653,-0.3174452185630798
2024-12-07 20:03:47.832334800,7.2783349609375,-0.1363270431756973,0.0506596788763999,-0.3021629154682159
2024-12-07 20:03:47.842348800,7.288348876953125,-0.1337842643260955,0.0038527592550963,-0.284774899482727
2024-12-07 20:03:47.852362800,7.29836279296875,-0.1432106643915176,-0.0048485128208994,-0.2675730288028717
2024-12-07 20:03:47.862377000,7.308376953125,-0.1556777209043502,-0.0093777505680918,-0.2522199153900146
2024-12-07 20:03:47.872390700,7.318390625,-0.1686633825302124,-0.0284176655113697,-0.2380203455686569
2024-12-07 20:03:47.882404900,7.32840478515625,-0.1864815354347229,-0.0478385016322135,-0.2387900054454803
2024-12-07 20:03:47.892418800,7.338418701171875,-0.2062959522008896,-0.0567820034921169,-0.2559654116630554
2024-12-07 20:03:47.902433000,7.34843310546875,-0.2214203029870987,-0.0549398958683013,-0.284087061882019
2024-12-07 20:03:47.912445700,7.35844580078125,-0.23480886220932,-0.0477476753294467,-0.3282746076583862
2024-12-07 20:03:47.922460000,7.3684599609375,-0.2538714706897735,-0.0375011600553989,-0.3737688660621643
2024-12-07 20:03:47.932473900,7.378473876953125,-0.2736702263355255,-0.0260482225567102,-0.4011932611465454
2024-12-07 20:03:47.942488000,7.388488037109375,-0.2922276854515075,-0.0107840476557612,-0.4059355556964874
2024-12-07 20:03:47.952501800,7.398501708984375,-0.3247243762016296,0.0108030773699283,-0.3959160447120666
2024-12-07 20:03:47.962515700,7.408515625,-0.3462637364864349,0.0451349504292011,-0.3783362507820129
2024-12-07 20:03:47.972530000,7.418530029296875,-0.3332664668560028,0.0745580196380615,-0.3269643187522888
2024-12-07 20:03:47.982544000,7.4285439453125,-0.3342286646366119,0.1100166738033294,-0.2783163487911224
2024-12-07 20:03:47.992557800,7.438557861328125,-0.3445367217063904,0.1490228325128555,-0.2433183640241623
2024-12-07 20:03:48.002571800,7.44857177734375,-0.3467016220092773,0.1701864451169967,-0.2268965095281601
2024-12-07 20:03:48.012586000,7.4585859375,-0.3402715623378753,0.1677708476781845,-0.2163792848587036
2024-12-07 20:03:48.022600000,7.468599853515625,-0.3217101395130157,0.1556699723005294,-0.218775063753128
2024-12-07 20:03:48.032613600,7.478613525390625,-0.2985117137432098,0.1344385892152786,-0.2335272133350372
2024-12-07 20:03:48.042627800,7.4886279296875,-0.2676912248134613,0.121834397315979,-0.2594831883907318
2024-12-07 20:03:48.052641800,7.498641845703125,-0.2370704412460327,0.1205128282308578,-0.2925164103507995
2024-12-07 20:03:48.062656000,7.508656005859375,-0.2099224328994751,0.1277835220098495,-0.3104802370071411
2024-12-07 20:03:48.072669700,7.518669677734375,-0.1899763643741607,0.1550687551498413,-0.3122297525405884
2024-12-07 20:03:48.082684000,7.528683837890625,-0.1735241562128067,0.1969578713178634,-0.3045167028903961
2024-12-07 20:03:48.092697900,7.53869775390625,-0.1716627329587936,0.2625355124473572,-0.3068905770778656
2024-12-07 20:03:48.102711800,7.5487119140625,-0.1569282561540603,0.3118756115436554,-0.3124629855155945
2024-12-07 20:03:48.112725800,7.558725830078125,-0.146352931857109,0.3380308151245117,-0.3081753253936767
2024-12-07 20:03:48.122739000,7.568739013671875,-0.1567501723766327,0.3482056856155395,-0.2989424169063568
2024-12-07 20:03:48.132753000,7.5787529296875,-0.168554350733757,0.3305778801441192,-0.3027655184268951
2024-12-07 20:03:48.142766800,7.588766845703125,-0.1818611025810241,0.2999861240386963,-0.320442259311676
2024-12-07 20:03:48.152780800,7.59878076171875,-0.1941729635000229,0.2977144718170166,-0.3360015749931335
2024-12-07 20:03:48.162794800,7.608794677734375,-0.2098802775144577,0.3445304334163666,-0.3372708261013031
2024-12-07 20:03:48.172809000,7.61880908203125,-0.2313080132007599,0.426655113697052,-0.3209512233734131
2024-12-07 20:03:48.182823000,7.628822998046875,-0.2623948156833648,0.5164898633956909,-0.2991098463535309
2024-12-07 20:03:48.192836900,7.6388369140625,-0.3011749386787414,0.5726565718650818,-0.2699858546257019
2024-12-07 20:03:48.202850800,7.648850830078125,-0.3447674214839935,0.5909591317176819,-0.2564495503902435
2024-12-07 20:03:48.212864800,7.65886474609375,-0.3787301778793335,0.5830925703048706,-0.2608709931373596
2024-12-07 20:03:48.222879000,7.66887890625,-0.4133765697479248,0.5555770397186279,-0.2751500904560089
2024-12-07 20:03:48.232892700,7.678892578125,-0.4358938634395599,0.5141136050224304,-0.2858612239360809
2024-12-07 20:03:48.242907000,7.688906982421875,-0.4544859230518341,0.468254029750824,-0.2978582382202148
2024-12-07 20:03:48.252921000,7.698921142578125,-0.4652248919010162,0.4134752452373504,-0.3136624991893768
2024-12-07 20:03:48.262935000,7.70893505859375,-0.4769603908061981,0.3636781275272369,-0.3426635265350342
2024-12-07 20:03:48.272949200,7.71894921875,-0.4464636743068695,0.3011144697666168,-0.3581656515598297
2024-12-07 20:03:48.282963200,7.728963134765625,-0.4111559987068176,0.2412940263748169,-0.3640128970146179
2024-12-07 20:03:48.292977200,7.73897705078125,-0.3732754290103912,0.1789399832487106,-0.3719612658023834
2024-12-07 20:03:48.302991000,7.7489912109375,-0.3156315684318542,0.1230876445770263,-0.3683812022209167
2024-12-07 20:03:48.313005300,7.75900537109375,-0.2633305191993713,0.0678250938653945,-0.3334047496318817
2024-12-07 20:03:48.323019300,7.769019287109375,-0.2346850335597992,0.0270457118749618,-0.2804616391658783
2024-12-07 20:03:48.333032200,7.7790322265625,-0.2125167101621627,-0.0155498180538415,-0.2391497194766998
2024-12-07 20:03:48.343046100,7.789046142578125,-0.2316368669271469,-0.0515506975352764,-0.2335416376590728
2024-12-07 20:03:48.353060400,7.799060302734375,-0.2181017249822616,-0.1035703793168068,-0.2228174805641174
2024-12-07 20:03:48.363074300,7.80907421875,-0.1515698283910751,-0.1469982862472534,-0.1932476013898849
2024-12-07 20:03:48.373088000,7.819087890625,-0.0846070274710655,-0.1246560513973236,-0.1613337844610214
2024-12-07 20:03:48.383102200,7.829102294921875,-0.0178383812308311,-0.0148027865216135,-0.1355266869068145
2024-12-07 20:03:48.393116200,7.8391162109375,0.013215915299952,0.1636109948158264,-0.1188404709100723
2024-12-07 20:03:48.403130400,7.84913037109375,0.0249202400445938,0.3760367035865783,-0.0947487205266952
2024-12-07 20:03:48.413144000,7.85914404296875,8.25112219899e-05,0.561247706413269,-0.0264957249164581
2024-12-07 20:03:48.423158300,7.869158203125,-0.0352818742394447,0.6721848249435425,0.0953508242964744
2024-12-07 20:03:48.433172200,7.879172119140625,-0.0727697536349296,0.7349913120269775,0.2224409580230713
2024-12-07 20:03:48.443186200,7.889186279296875,-0.1130260974168777,0.7930626273155212,0.3037432730197906
2024-12-07 20:03:48.453200100,7.8992001953125,-0.1339488923549652,0.8230043053627014,0.34091517329216
2024-12-07 20:03:48.463214000,7.909214111328125,-0.1374221742153167,0.7946144938468933,0.3533785045146942
2024-12-07 20:03:48.473228300,7.919228271484375,-0.1383290737867355,0.7045871615409851,0.3523345291614532
2024-12-07 20:03:48.483242200,7.9292421875,-0.1422790735960006,0.5834215879440308,0.3432115912437439
2024-12-07 20:03:48.493256200,7.939256103515625,-0.1391279101371765,0.4746813774108886,0.3274356722831726
2024-12-07 20:03:48.503270100,7.949270263671875,-0.1212799400091171,0.4014356434345245,0.3008687794208526
2024-12-07 20:03:48.513284000,7.9592841796875,-0.0828747823834419,0.3711934387683868,0.2518020868301391
2024-12-07 20:03:48.523298300,7.96929833984375,-0.0249488987028598,0.3726453781127929,0.1980994343757629
2024-12-07 20:03:48.533312000,7.97931201171875,0.0321627818048,0.381674587726593,0.1680901199579239
2024-12-07 20:03:48.543325200,7.9893251953125,0.0802775844931602,0.3780369758605957,0.1712068170309066
2024-12-07 20:03:48.553339100,7.999339111328125,0.1197323873639106,0.3547675907611847,0.2007330358028412
2024-12-07 20:03:48.563353300,8.009353271484375,0.1570677757263183,0.3172098398208618,0.2507171034812927
2024-12-07 20:03:48.573367000,8.019366943359374,0.193461924791336,0.2828478813171386,0.3190013170242309
2024-12-07 20:03:48.583381200,8.02938134765625,0.2198703587055206,0.2478803098201751,0.405104786157608
2024-12-07 20:03:48.593395200,8.039395263671874,0.2430596202611923,0.2086080759763717,0.5046680569648743
2024-12-07 20:03:48.603409400,8.049409423828125,0.2746433913707733,0.1702015697956085,0.6103582978248596
2024-12-07 20:03:48.613423000,8.059423095703124,0.3225444257259369,0.1349002569913864,0.7114020586013794
2024-12-07 20:03:48.623437000,8.06943701171875,0.387472003698349,0.0928579941391944,0.7994611263275146
2024-12-07 20:03:48.633451300,8.079451171875,0.4623304903507232,0.0661902725696563,0.8789348006248474
2024-12-07 20:03:48.643465200,8.08946533203125,0.5419763326644897,0.080130323767662,0.9598637223243712
2024-12-07 20:03:48.653479200,8.099479248046874,0.6153460741043091,0.1212176010012626,1.0672011375427246
2024-12-07 20:03:48.663493000,8.1094931640625,0.6771292686462402,0.1509589850902557,1.2041407823562622
2024-12-07 20:03:48.673507300,8.11950732421875,0.7266391515731812,0.1545614898204803,1.341257929801941
2024-12-07 20:03:48.683521300,8.129521240234375,0.7712124586105347,0.1459754556417465,1.4494149684906006
2024-12-07 20:03:48.693535000,8.139534912109376,0.8096128106117249,0.1685723066329956,1.5152696371078491
2024-12-07 20:03:48.703549200,8.149549072265625,0.8411672711372375,0.256414532661438,1.5402882099151611
2024-12-07 20:03:48.713563100,8.159563232421876,0.8640429377555847,0.4180713295936584,1.532882571220398
2024-12-07 20:03:48.723577300,8.169577392578125,0.8719908595085144,0.6389837265014648,1.5058821439743042
2024-12-07 20:03:48.733591000,8.179591064453126,0.8931193351745605,0.8917470574378967,1.4580870866775513
2024-12-07 20:03:48.743604200,8.189604248046875,0.9240931868553162,1.1263500452041626,1.3894784450531006
2024-12-07 20:03:48.753618200,8.1996181640625,0.9494374990463256,1.3010574579238892,1.2994097471237185
2024-12-07 20:03:48.763632400,8.20963232421875,0.9661672115325928,1.4204587936401367,1.1988730430603027
2024-12-07 20:03:48.773646000,8.21964599609375,0.98836088180542,1.5239750146865845,1.0972778797149658
2024-12-07 20:03:48.783660300,8.229660400390625,1.0059148073196411,1.6005022525787354,0.9995837807655334
2024-12-07 20:03:48.793674200,8.23967431640625,0.9962318539619446,1.592242956161499,0.9031798243522644
2024-12-07 20:03:48.803688200,8.249688232421875,0.9782701730728148,1.4796142578125,0.8212170600891113
2024-12-07 20:03:48.813702100,8.2597021484375,0.9818282127380372,1.2094472646713257,0.7117516398429871
2024-12-07 20:03:48.823716000,8.269716064453124,0.9965059757232666,0.8727099895477295,0.5922590494155884
2024-12-07 20:03:48.833730300,8.279730224609375,1.0198713541030884,0.5165179371833801,0.4944990873336792
2024-12-07 20:03:48.843744300,8.289744140625,1.027833342552185,0.1654165983200073,0.4459216892719269
2024-12-07 20:03:48.853758200,8.29975830078125,1.0267595052719116,-0.1246400028467178,0.4469776749610901
2024-12-07 20:03:48.863772200,8.309772216796874,1.019474983215332,-0.33777916431427,0.4763264954090118
2024-12-07 20:03:48.873786000,8.3197861328125,1.008078694343567,-0.477922260761261,0.4993552267551422
2024-12-07 20:03:48.883800300,8.32980029296875,0.9865837693214417,-0.5798909664154053,0.488805890083313
2024-12-07 20:03:48.893814000,8.33981396484375,0.9531010985374452,-0.703721821308136,0.4391027390956878
2024-12-07 20:03:48.903828200,8.349828125,0.9028677344322203,-0.8641930222511292,0.3668312132358551
2024-12-07 20:03:48.913842200,8.35984228515625,0.841803789138794,-1.0455986261367798,0.2812411189079284
2024-12-07 20:03:48.923856400,8.3698564453125,0.7830009460449219,-1.205398678779602,0.2014354914426803
2024-12-07 20:03:48.933869000,8.379869140625,0.7371100187301636,-1.300831913948059,0.1410542428493499
2024-12-07 20:03:48.943883300,8.38988330078125,0.7134366631507874,-1.3003568649291992,0.127343475818634
2024-12-07 20:03:48.953897200,8.399897216796875,0.675481379032135,-1.2471017837524414,0.1501410454511642
2024-12-07 20:03:48.963911200,8.4099111328125,0.6407005190849304,-1.1947914361953735,0.19817915558815
2024-12-07 20:03:48.973925000,8.419925048828125,0.6217790246009827,-1.1495167016983032,0.2489384710788726
2024-12-07 20:03:48.983939000,8.42993896484375,0.6120544672012329,-1.122476577758789,0.2697572112083435
2024-12-07 20:03:48.993953300,8.439953369140625,0.6023445129394531,-1.0925679206848145,0.2539191842079162
2024-12-07 20:03:49.003967200,8.44996728515625,0.5893841981887817,-1.043592929840088,0.1994269043207168
2024-12-07 20:03:49.013981200,8.459981201171875,0.5735458731651306,-0.993116021156311,0.1345792859792709
2024-12-07 20:03:49.023995100,8.4699951171875,0.5538949370384216,-0.95061993598938,0.087412841618061
2024-12-07 20:03:49.034009300,8.48000927734375,0.5321786403656006,-0.9278955459594728,0.0676591470837593
2024-12-07 20:03:49.044023300,8.490023193359375,0.5167493224143982,-0.925792157649994,0.0735742896795272
2024-12-07 20:03:49.054037000,8.500037109375,0.5041242241859436,-0.9295313358306884,0.0977381095290184
2024-12-07 20:03:49.064051200,8.51005126953125,0.4797419309616089,-0.9269155859947203,0.1255819946527481
2024-12-07 20:03:49.074065200,8.520065185546875,0.4424379169940948,-0.9094319939613342,0.1439709365367889
2024-12-07 20:03:49.084079400,8.530079345703125,0.3855133950710296,-0.8869885206222534,0.1411229521036148
2024-12-07 20:03:49.094093000,8.540093017578124,0.3148023784160614,-0.8675614595413208,0.1099593117833137
2024-12-07 20:03:49.104107300,8.550107177734375,0.2446025162935257,-0.8801443576812744,0.0493561476469039
2024-12-07 20:03:49.114121200,8.560121337890624,0.1786431074142456,-0.8510387539863586,-0.0128729920834302
2024-12-07 20:03:49.124135200,8.57013525390625,0.0921199321746826,-0.829031229019165,-0.0779422745108604
2024-12-07 20:03:49.134149000,8.580149169921874,0.0139511944726109,-0.8186737895011902,-0.138869434595108
2024-12-07 20:03:49.144162300,8.590162353515625,-0.0454183891415596,-0.8184042572975159,-0.1901637613773346
2024-12-07 20:03:49.154176300,8.60017626953125,-0.0796725526452064,-0.8338160514831543,-0.237442284822464
2024-12-07 20:03:49.164190200,8.610190185546875,-0.0974265113472938,-0.8384227752685547,-0.2745957672595978
2024-12-07 20:03:49.174204200,8.6202041015625,-0.0990750044584274,-0.819649875164032,-0.3088639676570892
2024-12-07 20:03:49.184218000,8.630218017578125,-0.0863951668143272,-0.7525315284729004,-0.3532639443874359
2024-12-07 20:03:49.194232300,8.640232421875,-0.0587070286273956,-0.661483645439148,-0.4151556193828583
2024-12-07 20:03:49.204246300,8.650246337890625,-0.0355380624532699,-0.5950739979743958,-0.4608908891677856
2024-12-07 20:03:49.214260200,8.66026025390625,-0.0183439925312995,-0.5728769302368164,-0.4593692421913147
2024-12-07 20:03:49.224274200,8.670274169921875,-0.00393842253834,-0.5961776971817017,-0.4232059121131897
2024-12-07 20:03:49.234288000,8.6802880859375,0.0084752738475799,-0.6215088367462158,-0.3730997443199157
2024-12-07 20:03:49.244302300,8.69030224609375,0.020308231934905,-0.6325644254684448,-0.330643355846405
2024-12-07 20:03:49.254316000,8.70031591796875,0.0225358698517084,-0.6529673337936401,-0.3050451874732971
2024-12-07 20:03:49.264330200,8.710330322265625,0.0179214105010032,-0.6598086953163147,-0.2899240255355835
2024-12-07 20:03:49.274344200,8.72034423828125,0.0254430714994668,-0.6332533359527588,-0.2781849503517151
2024-12-07 20:03:49.284358100,8.730358154296875,0.0314788594841957,-0.584592878818512,-0.2768586874008178
2024-12-07 20:03:49.294372000,8.7403720703125,0.0430820360779762,-0.543450117111206,-0.2946412563323974
2024-12-07 20:03:49.304386000,8.750385986328125,0.0328917168080806,-0.5569638013839722,-0.322697103023529
2024-12-07 20:03:49.314400300,8.760400146484375,-0.0052076601423323,-0.6392339468002319,-0.3285024762153625
2024-12-07 20:03:49.324414200,8.770414306640625,-0.048739954829216,-0.7523418664932251,-0.3113072514533996
2024-12-07 20:03:49.334428200,8.78042822265625,-0.0881107524037361,-0.7923920154571533,-0.3109028041362762
2024-12-07 20:03:49.344441000,8.790441162109374,-0.1021442785859108,-0.6679046750068665,-0.3712055683135986
2024-12-07 20:03:49.354455300,8.800455322265625,-0.1453717350959777,-0.560599684715271,-0.4874175190925598
2024-12-07 20:03:49.364469200,8.81046923828125,-0.2124663442373275,-0.6022933125495911,-0.595516562461853
2024-12-07 20:03:49.374483200,8.820483154296875,-0.2533098757266998,-0.6900614500045776,-0.6163846254348755
2024-12-07 20:03:49.384497200,8.8304970703125,-0.2552574574947357,-0.6400281190872192,-0.580255389213562
2024-12-07 20:03:49.394511000,8.840510986328125,-0.2186919599771499,-0.5004152059555054,-0.4897269606590271
2024-12-07 20:03:49.404525300,8.850525390625,-0.1491389721632003,-0.4359914660453796,-0.3393747508525848
2024-12-07 20:03:49.414539000,8.8605390625,-0.0644534081220626,-0.5980372428894043,-0.1768011301755905
2024-12-07 20:03:49.424553200,8.87055322265625,0.0156502183526754,-0.7238172888755798,-0.0258456990122795
2024-12-07 20:03:49.434567200,8.880567138671875,0.0693801492452621,-0.6880057454109192,0.0423516742885112
2024-12-07 20:03:49.444581400,8.890581298828126,0.1030094772577285,-0.5922307372093201,0.0807584524154663
2024-12-07 20:03:49.454595000,8.900594970703125,0.1306225806474685,-0.6466750502586365,0.0631650388240814
2024-12-07 20:03:49.464609000,8.910609130859376,0.0773159563541412,-0.7490949034690857,-0.0388912893831729
2024-12-07 20:03:49.474623200,8.920623291015625,-0.0361885242164135,-0.6980730891227722,-0.194888174533844
2024-12-07 20:03:49.484637200,8.93063720703125,-0.1468915939331054,-0.5263327956199646,-0.3486601710319519
2024-12-07 20:03:49.494651100,8.940651123046875,-0.236775204539299,-0.3179146647453308,-0.4454010128974914
2024-12-07 20:03:49.504665000,8.9506650390625,-0.3263026773929596,-0.1070439741015434,-0.4790383279323578
2024-12-07 20:03:49.514679300,8.96067919921875,-0.4087616205215454,0.1011905446648597,-0.4982770979404449
2024-12-07 20:03:49.524693200,8.970693359375,-0.4503178596496582,0.2894150614738464,-0.5316532254219055
2024-12-07 20:03:49.534706200,8.9807060546875,-0.4593608677387237,0.4380017518997192,-0.5829111933708191
2024-12-07 20:03:49.544720100,8.99072021484375,-0.4477518796920776,0.5449745059013367,-0.6247265934944153
2024-12-07 20:03:49.554734300,9.000734375,-0.4237487912178039,0.6221219897270203,-0.6254713535308838
2024-12-07 20:03:49.564748300,9.010748291015624,-0.3861654698848724,0.654576301574707,-0.5916193723678589
2024-12-07 20:03:49.574762000,9.020761962890624,-0.348945289850235,0.6262381672859192,-0.5504517555236816
2024-12-07 20:03:49.584776200,9.030776123046875,-0.3090383410453796,0.5652967691421509,-0.515237033367157
2024-12-07 20:03:49.594790100,9.0407900390625,-0.2743835151195526,0.5040835738182068,-0.4912638068199157
2024-12-07 20:03:49.604804400,9.050804443359375,-0.2703323066234588,0.4769579470157623,-0.4664543271064758
2024-12-07 20:03:49.614818000,9.060818115234374,-0.2840012013912201,0.4757771492004394,-0.4414718151092529
2024-12-07 20:03:49.624832300,9.070832275390623,-0.3167378306388855,0.501575767993927,-0.4160096049308777
2024-12-07 20:03:49.634846200,9.08084619140625,-0.3569785952568054,0.5447729825973511,-0.3803510367870331
2024-12-07 20:03:49.644860200,9.090860107421875,-0.3830392360687256,0.6146879196166992,-0.3488026857376098
2024-12-07 20:03:49.654874000,9.1008740234375,-0.3810620307922363,0.6978169083595276,-0.3364471793174743
2024-12-07 20:03:49.664888000,9.11088818359375,-0.3614867329597473,0.7762315273284912,-0.3555105924606323
2024-12-07 20:03:49.674902300,9.12090234375,-0.3360067009925842,0.8468909859657288,-0.3948030769824981
2024-12-07 20:03:49.684916200,9.130916259765623,-0.3147861063480377,0.898735523223877,-0.4248219728469848
2024-12-07 20:03:49.694930200,9.14093017578125,-0.3035780191421509,0.9368691444396972,-0.4276033937931061
2024-12-07 20:03:49.704944000,9.150944091796877,-0.3007143139839172,0.9631300568580629,-0.3988894522190094
2024-12-07 20:03:49.714958000,9.1609580078125,-0.3038549721240997,0.9658488631248474,-0.3474547564983368
2024-12-07 20:03:49.724971300,9.17097119140625,-0.3072249293327331,0.9331178069114684,-0.2972214221954345
2024-12-07 20:03:49.734985200,9.180985107421876,-0.3303581178188324,0.8692019581794739,-0.256342202425003
2024-12-07 20:03:49.744999200,9.190999267578125,-0.3766891360282898,0.7789974808692932,-0.2093424797058105
2024-12-07 20:03:49.755013000,9.20101318359375,-0.435604065656662,0.6321554183959961,-0.1505290418863296
2024-12-07 20:03:49.765027300,9.21102734375,-0.4598963558673858,0.3814376890659332,-0.0687686577439308
2024-12-07 20:03:49.775041000,9.221041015625,-0.4667433202266693,0.0442350842058658,-0.0009373086504638
2024-12-07 20:03:49.785055200,9.23105517578125,-0.4757019281387329,-0.3151443898677826,0.0121870152652263
2024-12-07 20:03:49.795069200,9.241069091796875,-0.477023035287857,-0.6515843272209167,-0.0321537181735038
2024-12-07 20:03:49.805083400,9.25108349609375,-0.457040786743164,-0.9024125933647156,-0.1075880229473114
2024-12-07 20:03:49.815097000,9.26109716796875,-0.4181478023529053,-1.0057306289672852,-0.2038163989782333
2024-12-07 20:03:49.825111000,9.271111083984374,-0.3738144040107727,-0.9334776997566224,-0.3136699199676513
2024-12-07 20:03:49.835125200,9.281125244140624,-0.3066846132278442,-0.696439266204834,-0.4308993220329284
2024-12-07 20:03:49.845139200,9.29113916015625,-0.1938200891017913,-0.3901504874229431,-0.5326411724090576
2024-12-07 20:03:49.855153200,9.301153076171875,-0.0677948296070098,-0.1157802492380142,-0.5988155007362366
2024-12-07 20:03:49.865167000,9.3111669921875,0.0246986225247383,0.1332913488149643,-0.6284072399139404
2024-12-07 20:03:49.875181300,9.321181396484375,0.0758582800626754,0.3301553726196289,-0.6162134408950806
2024-12-07 20:03:49.885195300,9.3311953125,0.0779685750603675,0.4648926854133606,-0.538998544216156
2024-12-07 20:03:49.895209000,9.341208984375,0.0570949874818325,0.5250356197357178,-0.4164236187934875
2024-12-07 20:03:49.905222100,9.35122216796875,0.0107807507738471,0.5473824739456177,-0.3134439885616302
2024-12-07 20:03:49.915236400,9.361236328125,-0.0439108945429325,0.5601439476013184,-0.231256291270256
2024-12-07 20:03:49.925250300,9.371250244140626,-0.1099029555916786,0.5740896463394165,-0.1857191771268844
2024-12-07 20:03:49.935264000,9.381263916015625,-0.1587895154953003,0.6070094108581543,-0.1659472286701202
2024-12-07 20:03:49.945278200,9.3912783203125,-0.1757117807865142,0.6404110789299011,-0.1428701430559158
2024-12-07 20:03:49.955292200,9.401292236328125,-0.1902868896722793,0.6417241096496582,-0.1351082324981689
2024-12-07 20:03:49.965306400,9.411306396484376,-0.2083894610404968,0.6044023036956787,-0.1710145622491836
2024-12-07 20:03:49.975320000,9.421320068359377,-0.2288174480199813,0.5635523200035095,-0.2530362010002136
2024-12-07 20:03:49.985334300,9.431334228515626,-0.2005485147237777,0.5033313035964966,-0.3345435559749603
2024-12-07 20:03:49.995348200,9.44134814453125,-0.1481827944517135,0.4334364831447601,-0.3921350836753845
2024-12-07 20:03:50.005362200,9.451362060546876,-0.1037884354591369,0.3594269454479217,-0.4139708578586578
2024-12-07 20:03:50.015376100,9.461376220703125,-0.0580028444528579,0.2914202213287353,-0.4088181555271148
2024-12-07 20:03:50.025390000,9.47139013671875,-0.0347814112901687,0.2318775504827499,-0.384863018989563
2024-12-07 20:03:50.035404300,9.481404296875,-0.046108391135931,0.1695016026496887,-0.3400599658489227
2024-12-07 20:03:50.045418200,9.491418212890624,-0.0742223113775253,0.0932510569691658,-0.2868819832801819
2024-12-07 20:03:50.055432200,9.50143212890625,-0.1075872704386711,0.0327430106699466,-0.2387863546609878
2024-12-07 20:03:50.065446100,9.511446044921875,-0.1394751667976379,0.0188618171960115,-0.2073669135570526
2024-12-07 20:03:50.075460000,9.521460205078125,-0.1727840602397918,0.0048405998386442,-0.1959452331066131
2024-12-07 20:03:50.085474300,9.531474365234375,-0.196452647447586,0.0151896439492702,-0.2176521122455597
2024-12-07 20:03:50.095487200,9.5414873046875,-0.2279174327850341,0.0507313944399356,-0.2670199573040008
2024-12-07 20:03:50.105501200,9.551501220703123,-0.2664184868335724,0.0825471207499504,-0.3284862637519836
2024-12-07 20:03:50.115515100,9.56151513671875,-0.2985242307186126,0.1201842650771141,-0.3931515216827392
2024-12-07 20:03:50.125529300,9.571529296875,-0.3253342807292938,0.1547153443098068,-0.4478389918804168
2024-12-07 20:03:50.135543000,9.58154296875,-0.3481422066688537,0.18110391497612,-0.4950668513774872
2024-12-07 20:03:50.145557200,9.59155712890625,-0.3749732971191406,0.1959723383188247,-0.5131023526191711
2024-12-07 20:03:50.155571200,9.6015712890625,-0.4081438183784485,0.2062789648771286,-0.4892163574695587
2024-12-07 20:03:50.165585200,9.611585205078123,-0.4470568597316742,0.2241588979959488,-0.4369515478610992
2024-12-07 20:03:50.175599000,9.62159912109375,-0.4884906411170959,0.2479115724563598,-0.3910497426986694
2024-12-07 20:03:50.185613000,9.631613037109377,-0.4834396839141845,0.2605488002300262,-0.3461903929710388
2024-12-07 20:03:50.195627300,9.641627197265626,-0.4769600629806518,0.2678017914295196,-0.3270452916622162
2024-12-07 20:03:50.205641200,9.65164111328125,-0.4704640805721283,0.2665642201900482,-0.3466397523880005
2024-12-07 20:03:50.215655200,9.6616552734375,-0.4534686803817749,0.2582100629806518,-0.3963942527770996
2024-12-07 20:03:50.225669000,9.671669189453125,-0.4295037090778351,0.2611176967620849,-0.4381470382213592
2024-12-07 20:03:50.235683300,9.681683349609376,-0.4097522795200348,0.2918808758258819,-0.4629265367984772
2024-12-07 20:03:50.245697300,9.691697265625,-0.3928923308849334,0.3611387610435486,-0.4603019952774048
2024-12-07 20:03:50.255710700,9.701710693359376,-0.366207480430603,0.4282287359237671,-0.4309416711330414
2024-12-07 20:03:50.265724700,9.711724609375,-0.3423074781894684,0.4487119019031524,-0.4130281805992126
2024-12-07 20:03:50.275738600,9.721738525390624,-0.3273862600326538,0.4364088773727417,-0.4035496711730957
2024-12-07 20:03:50.285752600,9.731752685546876,-0.3493078052997589,0.4131017029285431,-0.4169277846813202
2024-12-07 20:03:50.295765800,9.741765869140623,-0.3430649638175964,0.3926562964916229,-0.4377877712249756
2024-12-07 20:03:50.305779700,9.75177978515625,-0.325578361749649,0.3709049224853515,-0.4539182782173157
2024-12-07 20:03:50.315793400,9.76179345703125,-0.3304411768913269,0.3549772500991821,-0.4990670084953308
2024-12-07 20:03:50.325807600,9.7718076171875,-0.3574637472629547,0.3547151982784271,-0.5679123997688293
2024-12-07 20:03:50.335821600,9.781821533203123,-0.4018413722515106,0.3589031100273132,-0.6398519277572632
2024-12-07 20:03:50.345835800,9.791835693359374,-0.4574556350708008,0.3719744384288788,-0.697334885597229
2024-12-07 20:03:50.355849500,9.801849365234377,-0.5214555263519287,0.409844309091568,-0.714234471321106
2024-12-07 20:03:50.365863700,9.81186376953125,-0.5552699565887451,0.4864458739757538,-0.644816517829895
2024-12-07 20:03:50.375877600,9.821877685546877,-0.5629011988639832,0.5705770254135132,-0.5278377532958984
2024-12-07 20:03:50.385891600,9.8318916015625,-0.5417199730873108,0.6039690375328064,-0.4065150618553161
2024-12-07 20:03:50.395905500,9.841905517578123,-0.4899846911430359,0.5303170680999756,-0.2866485714912414
2024-12-07 20:03:50.405919500,9.85191943359375,-0.4284757673740387,0.3666341006755829,-0.1911444216966629
2024-12-07 20:03:50.415933700,9.86193359375,-0.3611757159233093,0.2040164321660995,-0.1550682485103607
2024-12-07 20:03:50.425947600,9.87194775390625,-0.2740024626255035,0.1208909228444099,-0.1663605868816375
2024-12-07 20:03:50.435961600,9.881961669921877,-0.1652502566576004,0.0772405266761779,-0.1604993343353271
2024-12-07 20:03:50.445975600,9.8919755859375,-0.0793651789426803,0.0199916195124387,-0.1255024671554565
2024-12-07 20:03:50.455989500,9.901989501953125,-0.0151593862101435,-0.0696044713258743,-0.085319235920906
2024-12-07 20:03:50.466002700,9.912002685546875,0.045107152312994,-0.1482638567686081,-0.0610969774425029
2024-12-07 20:03:50.476016600,9.9220166015625,0.1004300862550735,-0.1778764575719833,-0.0531830377876758
2024-12-07 20:03:50.486030600,9.932030517578124,0.1397641748189926,-0.1282127648591995,-0.0503643490374088
2024-12-07 20:03:50.496044500,9.94204443359375,0.1565431952476501,-0.0475468970835208,-0.0268149077892303
2024-12-07 20:03:50.506058800,9.952058837890624,0.1231905817985534,0.0426442474126815,0.0298699438571929
2024-12-07 20:03:50.516072400,9.962072509765624,0.0406331829726696,0.1723423302173614,0.124656431376934
2024-12-07 20:03:50.526086700,9.972086669921875,0.0107080414891242,0.2410955727100372,0.2513232827186584
2024-12-07 20:03:50.536100600,9.9821005859375,0.0203293412923812,0.3000645041465759,0.3859922885894775
2024-12-07 20:03:50.546114600,9.992114501953123,0.0470323227345943,0.4005059003829956,0.4914401471614837
2024-12-07 20:03:50.556128500,10.00212841796875,0.0928954929113388,0.5258330702781677,0.5515138506889343
2024-12-07 20:03:50.566142500,10.012142578125,0.1537007838487625,0.6182376146316528,0.5839740633964539
2024-12-07 20:03:50.576156700,10.02215673828125,0.235739916563034,0.6632805466651917,0.6140159964561462
2024-12-07 20:03:50.586170600,10.032170654296875,0.3235621750354767,0.6648430228233337,0.6417437195777893
2024-12-07 20:03:50.596184600,10.0421845703125,0.4060986638069153,0.644707977771759,0.6749528646469116
2024-12-07 20:03:50.606198500,10.052198486328123,0.4791638255119324,0.602577269077301,0.7173551917076111
2024-12-07 20:03:50.616212500,10.06221240234375,0.5360430479049683,0.5403488278388977,0.7844886779785156
2024-12-07 20:03:50.626226700,10.072226806640623,0.5850947499275208,0.4601162672042846,0.8668559789657593
2024-12-07 20:03:50.636240400,10.082240478515626,0.6404582858085632,0.3783198893070221,0.9576730132102966
2024-12-07 20:03:50.646254600,10.092254638671877,0.6923409104347229,0.3067474365234375,1.0549631118774414
2024-12-07 20:03:50.656267500,10.102267578125,0.7372816205024719,0.2629395425319671,1.159847378730774
2024-12-07 20:03:50.666281700,10.11228173828125,0.7710779309272766,0.2612444460391998,1.270708680152893
2024-12-07 20:03:50.676295400,10.12229541015625,0.8021296858787537,0.2677501440048218,1.3754732608795166
2024-12-07 20:03:50.686309600,10.1323095703125,0.8297248482704163,0.2673205733299255,1.470172882080078
2024-12-07 20:03:50.696323600,10.142323486328126,0.8554391860961914,0.2773122787475586,1.5437710285186768
2024-12-07 20:03:50.706337800,10.152337890625,0.8793346881866455,0.3305888175964355,1.6028542518615725
2024-12-07 20:03:50.716351500,10.1623515625,0.9028646945953368,0.4281622469425201,1.629707932472229
2024-12-07 20:03:50.726365400,10.172365478515625,0.908015787601471,0.569862425327301,1.6127585172653198
2024-12-07 20:03:50.736379600,10.182379638671875,0.881673276424408,0.7450799345970154,1.549086332321167
2024-12-07 20:03:50.746393600,10.1923935546875,0.8506314754486084,0.915014147758484,1.452829360961914
2024-12-07 20:03:50.756407600,10.202407470703124,0.8438156247138977,1.067974090576172,1.3412154912948608
2024-12-07 20:03:50.766421500,10.21242138671875,0.8852860927581787,1.230859398841858,1.2176584005355835
2024-12-07 20:03:50.776435700,10.222435791015624,0.932137966156006,1.341347098350525,1.0896079540252686
2024-12-07 20:03:50.786449700,10.23244970703125,0.95889550447464,1.381770133972168,0.9723301529884338
2024-12-07 20:03:50.796463600,10.242463623046875,0.9482605457305908,1.4105831384658811,0.8977029323577881
2024-12-07 20:03:50.806477600,10.2524775390625,0.9336270093917848,1.3924025297164917,0.9014449119567872
2024-12-07 20:03:50.816491500,10.262491455078123,0.9285889863967896,1.2664891481399536,0.9412811994552612
2024-12-07 20:03:50.826505700,10.272505615234374,0.912505865097046,1.0196224451065063,0.9548596143722534
2024-12-07 20:03:50.836518400,10.282518310546877,0.9093113541603088,0.6538258790969849,0.8980997204780579
2024-12-07 20:03:50.846532600,10.29253271484375,0.9327349662780762,0.2235905975103378,0.7824686765670776
2024-12-07 20:03:50.856546600,10.302546630859377,0.9818766117095948,-0.1377629190683365,0.6561027765274048
2024-12-07 20:03:50.866560800,10.312560791015626,1.0174623727798462,-0.3439344465732574,0.5429882407188416
2024-12-07 20:03:50.876574500,10.322574462890625,1.0041173696517944,-0.3800737559795379,0.4756184816360473
2024-12-07 20:03:50.886588700,10.332588623046876,0.9572070837020874,-0.3321794867515564,0.4482966065406799
2024-12-07 20:03:50.896602600,10.3426025390625,0.9116447567939758,-0.3149559497833252,0.4255858659744262
2024-12-07 20:03:50.906616600,10.352616455078126,0.8732826709747314,-0.3860586285591125,0.3823007047176361
2024-12-07 20:03:50.916630500,10.362630615234377,0.8436158895492554,-0.5469862818717957,0.305420845746994
2024-12-07 20:03:50.926644500,10.37264453125,0.8126100301742554,-0.7296748757362366,0.2073440700769424
2024-12-07 20:03:50.936658700,10.38265869140625,0.7670304775238037,-0.8801335692405701,0.101926289498806
2024-12-07 20:03:50.946672600,10.392672607421876,0.7180458903312683,-1.006632685661316,0.007130010984838
2024-12-07 20:03:50.956686600,10.4026865234375,0.6723864674568176,-1.0928490161895752,-0.0444852896034717
2024-12-07 20:03:50.966700500,10.412700439453126,0.6184353232383728,-1.1421643495559692,-0.0505929812788963
2024-12-07 20:03:50.976714500,10.422714599609376,0.5749102830886841,-1.1727607250213623,-0.0224573612213134
2024-12-07 20:03:50.986728700,10.432728759765626,0.5444495677947998,-1.147022008895874,0.0187366809695959
2024-12-07 20:03:50.996742400,10.442742431640625,0.5215187668800354,-1.064886450767517,0.0609152093529701
2024-12-07 20:03:51.006756600,10.452756591796875,0.5040040016174316,-0.9629294276237488,0.0939477309584617
2024-12-07 20:03:51.016769500,10.46276953125,0.5020502805709839,-0.8991787433624268,0.1166741922497749
2024-12-07 20:03:51.026783700,10.47278369140625,0.5033928155899048,-0.8595224022865295,0.1283209919929504
2024-12-07 20:03:51.036797400,10.48279736328125,0.4984233379364013,-0.8225215673446655,0.1217425540089607
2024-12-07 20:03:51.046811600,10.492811767578123,0.50322026014328,-0.7893705368041992,0.1037052348256111
2024-12-07 20:03:51.056825600,10.50282568359375,0.5190215706825256,-0.7630480527877808,0.0844906046986579
2024-12-07 20:03:51.066839800,10.51283984375,0.5312535166740417,-0.7462546825408936,0.0704482942819595
2024-12-07 20:03:51.076853500,10.522853515625,0.5265386700630188,-0.7827528119087219,0.0568194016814231
2024-12-07 20:03:51.086867500,10.532867431640623,0.4895433783531189,-0.8617035746574402,0.0357830934226512
2024-12-07 20:03:51.096881700,10.542881591796874,0.420802354812622,-0.9716208577156068,-0.0112868938595056
2024-12-07 20:03:51.106895600,10.5528955078125,0.3343833088874817,-1.0970629453659058,-0.0801136270165443
2024-12-07 20:03:51.116909600,10.56290966796875,0.2420627772808075,-1.128464698791504,-0.1603787690401077
2024-12-07 20:03:51.126923500,10.572923583984377,0.1426722705364227,-1.074238896369934,-0.2537329494953155
2024-12-07 20:03:51.136937700,10.582937744140626,0.0496234148740768,-0.960601270198822,-0.3509621024131775
2024-12-07 20:03:51.146951700,10.59295166015625,-0.0427017249166965,-0.8359330892562866,-0.4386927485466003
2024-12-07 20:03:51.156965400,10.60296533203125,-0.1178951859474182,-0.7616333961486816,-0.5097787976264954
2024-12-07 20:03:51.166979600,10.6129794921875,-0.1672054678201675,-0.7312038540840149,-0.5659448504447937
2024-12-07 20:03:51.176993500,10.62299365234375,-0.1972701549530029,-0.7250608205795288,-0.6186298727989197
2024-12-07 20:03:51.187007700,10.6330078125,-0.2012419998645782,-0.7419348359107971,-0.6522533893585205
2024-12-07 20:03:51.197020400,10.6430205078125,-0.1795359253883361,-0.7630874514579773,-0.6476868987083435
2024-12-07 20:03:51.207034600,10.65303466796875,-0.1357586234807968,-0.7720516324043274,-0.6265957355499268
2024-12-07 20:03:51.217048600,10.663048583984375,-0.0767908617854118,-0.7599256634712219,-0.5934869050979614
2024-12-07 20:03:51.227062800,10.673062744140625,-0.0214463789016008,-0.718608558177948,-0.560353696346283
2024-12-07 20:03:51.237076500,10.683076416015624,0.0171854831278324,-0.6319881081581116,-0.5119167566299438
2024-12-07 20:03:51.247090700,10.693090576171874,0.0588679499924182,-0.5806317329406738,-0.413800299167633
2024-12-07 20:03:51.257106000,10.70310595703125,0.0903104618191719,-0.6041942238807678,-0.2930857241153717
2024-12-07 20:03:51.267119900,10.713119873046876,0.0922857299447059,-0.6873186230659485,-0.200287863612175
2024-12-07 20:03:51.277133800,10.7231337890625,0.0739975795149803,-0.776214063167572,-0.1647496223449707
2024-12-07 20:03:51.287147800,10.733147705078125,0.0509133003652095,-0.8151190876960754,-0.1689954996109008
2024-12-07 20:03:51.297161700,10.74316162109375,0.0218310039490461,-0.8534181118011475,-0.1974587738513946
2024-12-07 20:03:51.307176000,10.753176025390625,0.0004721864825114,-0.8875311017036438,-0.233215183019638
2024-12-07 20:03:51.317190000,10.76318994140625,-0.0228529162704944,-0.8481024503707886,-0.277588814496994
2024-12-07 20:03:51.327203800,10.773203857421874,-0.056157611310482,-0.7947766184806824,-0.3503628969192505
2024-12-07 20:03:51.337217800,10.7832177734375,-0.116398349404335,-0.7549691796302795,-0.4302788078784942
2024-12-07 20:03:51.347231700,10.793231689453124,-0.1905242353677749,-0.7048261165618896,-0.5126040577888489
2024-12-07 20:03:51.357246000,10.803245849609375,-0.2529864907264709,-0.6856515407562256,-0.5622467398643494
2024-12-07 20:03:51.367259600,10.813259765625,-0.3073147237300873,-0.5908384919166565,-0.5495967268943787
2024-12-07 20:03:51.377272800,10.82327294921875,-0.3345679938793182,-0.4195353388786316,-0.4673710167407989
2024-12-07 20:03:51.387286800,10.833286865234374,-0.3208061158657074,-0.3013485372066498,-0.3643357157707214
2024-12-07 20:03:51.397301000,10.843301025390623,-0.2693727910518646,-0.3105213344097137,-0.2744528949260711
2024-12-07 20:03:51.407314700,10.853314697265626,-0.1760652363300323,-0.3713881373405456,-0.1748056560754776
2024-12-07 20:03:51.417329000,10.863328857421877,-0.0675340816378593,-0.3573192358016968,-0.0462217926979064
2024-12-07 20:03:51.427342800,10.8733427734375,0.0117146726697683,-0.2450776398181915,0.0356610901653766
2024-12-07 20:03:51.437357000,10.883357177734377,0.0576957203447818,-0.127944529056549,0.0437870994210243
2024-12-07 20:03:51.447370800,10.893370849609376,0.0970937311649322,-0.1602550595998764,0.007750803604722
2024-12-07 20:03:51.457384700,10.903384765625,0.0792122483253479,-0.2197966277599334,-0.0579848885536193
2024-12-07 20:03:51.467399000,10.91339892578125,0.0002295486629009,-0.1875819712877273,-0.1622724086046219
2024-12-07 20:03:51.477412900,10.923412841796877,-0.0994507521390914,-0.0758182033896446,-0.2784609794616699
2024-12-07 20:03:51.487426800,10.9334267578125,-0.1794654428958892,0.1112603396177291,-0.3778536021709442
2024-12-07 20:03:51.497440800,10.943440673828125,-0.2451896965503692,0.3480421900749206,-0.4571025967597961
2024-12-07 20:03:51.507455000,10.953455078125,-0.3383902311325073,0.6235872507095337,-0.5244350433349609
2024-12-07 20:03:51.517469000,10.963468994140625,-0.4298810958862304,0.8805112838745117,-0.5908503532409668
2024-12-07 20:03:51.527482600,10.973482666015624,-0.4903252422809601,1.0610805749893188,-0.6770645976066589
2024-12-07 20:03:51.537496800,10.983496826171876,-0.5253081321716309,1.188880443572998,-0.7513500452041626
2024-12-07 20:03:51.547510000,10.993510009765624,-0.530756950378418,1.2594369649887085,-0.7861122488975525
2024-12-07 20:03:51.557524000,11.00352392578125,-0.5112085938453674,1.2734986543655396,-0.7491561770439148
2024-12-07 20:03:51.567537700,11.01353759765625,-0.454399436712265,1.2793290615081787,-0.638709306716919
2024-12-07 20:03:51.577552000,11.0235517578125,-0.3772554099559784,1.2667969465255735,-0.4898071587085724
2024-12-07 20:03:51.587565800,11.03356591796875,-0.3391136229038238,1.146701455116272,-0.3536399900913238
2024-12-07 20:03:51.597580000,11.043580078125,-0.3517007231712341,0.8842213153839111,-0.2650544047355652
2024-12-07 20:03:51.607593700,11.05359375,-0.367808073759079,0.5880144238471985,-0.2308074831962585
2024-12-07 20:03:51.617608000,11.06360791015625,-0.3843298554420471,0.3812601864337921,-0.2244846373796463
2024-12-07 20:03:51.627622000,11.073621826171877,-0.3736558854579925,0.2804265320301056,-0.1937413662672042
2024-12-07 20:03:51.637635800,11.0836357421875,-0.3724619150161743,0.2541449964046478,-0.157987505197525
2024-12-07 20:03:51.647649800,11.09364990234375,-0.3817504942417145,0.2600500285625458,-0.1359471976757049
2024-12-07 20:03:51.657663700,11.103663818359376,-0.3881403803825378,0.2849665284156799,-0.1249179542064666
2024-12-07 20:03:51.667678000,11.113677978515623,-0.401383489370346,0.3128913938999176,-0.1302863657474517
2024-12-07 20:03:51.677692000,11.12369189453125,-0.4143499135971069,0.3663637340068817,-0.144922137260437
2024-12-07 20:03:51.687705900,11.133705810546877,-0.4435610473155975,0.4388256967067718,-0.1379382610321045
2024-12-07 20:03:51.697719800,11.1437197265625,-0.4996247589588165,0.4588070213794708,-0.0987068265676498
2024-12-07 20:03:51.707733800,11.153733642578125,-0.5788681507110596,0.3576737642288208,-0.0260549951344728
2024-12-07 20:03:51.717746700,11.16374658203125,-0.6513880491256714,0.1024144068360328,0.0551832765340805
2024-12-07 20:03:51.727761000,11.173760986328125,-0.6794692277908325,-0.2535700500011444,0.1255650371313095
2024-12-07 20:03:51.737774800,11.18377490234375,-0.6621192693710327,-0.6157397031784058,0.1459786593914032
2024-12-07 20:03:51.747788800,11.193788818359376,-0.6105679273605347,-0.9079790115356444,0.086423709988594
2024-12-07 20:03:51.757803000,11.203802978515624,-0.5381296277046204,-1.0831269025802612,-0.0358481518924236
2024-12-07 20:03:51.767816700,11.213816650390624,-0.4445562362670898,-1.113946557044983,-0.1902105659246444
2024-12-07 20:03:51.777831000,11.223830810546875,-0.3398494124412536,-0.987980842590332,-0.3503334522247314
2024-12-07 20:03:51.787844900,11.233844970703124,-0.2302339822053909,-0.7133367657661438,-0.504429817199707
2024-12-07 20:03:51.797859000,11.243859130859375,-0.1051476672291755,-0.3734932541847229,-0.6194114089012146
2024-12-07 20:03:51.807872800,11.253872802734374,0.0231298748403787,-0.0609244182705879,-0.6866841912269592
2024-12-07 20:03:51.817886700,11.26388671875,0.1161238998174667,0.1850321888923645,-0.6910588145256042
2024-12-07 20:03:51.827901000,11.27390087890625,0.1671721786260604,0.3093520104885101,-0.6253179311752319
2024-12-07 20:03:51.837915000,11.283914794921875,0.1550476402044296,0.2989189028739929,-0.5362959504127502
2024-12-07 20:03:51.847928800,11.2939287109375,0.0904004722833633,0.2352525889873504,-0.4465865790843963
2024-12-07 20:03:51.857942800,11.30394287109375,-0.0036929007619619,0.1899366229772567,-0.350659430027008
2024-12-07 20:03:51.867957000,11.31395703125,-0.0989033058285713,0.1726031750440597,-0.2434490621089935
2024-12-07 20:03:51.877971000,11.323970947265623,-0.1779600381851196,0.1880225986242294,-0.1641768813133239
2024-12-07 20:03:51.887983900,11.33398388671875,-0.2101067900657653,0.2270392328500747,-0.1374928057193756
2024-12-07 20:03:51.897997800,11.343997802734377,-0.2299419045448303,0.3041252791881561,-0.1734378188848495
2024-12-07 20:03:51.908012000,11.354011962890626,-0.246830865740776,0.426517516374588,-0.2456313073635101
2024-12-07 20:03:51.918025700,11.364025634765625,-0.2616597712039947,0.5590482354164124,-0.3085695803165436
2024-12-07 20:03:51.928039700,11.374039794921876,-0.2783876061439514,0.6652159094810486,-0.3258199393749237
2024-12-07 20:03:51.938054000,11.384053955078125,-0.2936949431896209,0.6763312220573425,-0.3166699409484863
2024-12-07 20:03:51.948067800,11.39406787109375,-0.2884730100631714,0.6028820276260376,-0.3215653598308563
