time,seconds_elapsed,z,y,x
2024-12-07 20:32:17.634953500,0.016953369140625,0.0475765615701675,0.1523624211549759,-0.0430158525705337
2024-12-07 20:32:17.644967700,0.0269677734375,0.044705856591463,0.1538157165050506,-0.0772927328944206
2024-12-07 20:32:17.654981600,0.036981689453125,0.0508503019809722,0.1341482698917389,-0.1063281148672103
2024-12-07 20:32:17.664995300,0.046995361328125,0.0521225295960903,0.1516512781381607,-0.1443738490343094
2024-12-07 20:32:17.675009500,0.057009521484375,-0.0378654152154922,0.2773428857326507,-0.24968321621418
2024-12-07 20:32:17.685022700,0.067022705078125,-0.1897585839033126,0.4564389288425445,-0.4573709666728973
2024-12-07 20:32:17.695036400,0.077036376953125,-0.2215705811977386,0.5398435592651367,-0.6043814420700073
2024-12-07 20:32:17.705050400,0.08705029296875,-0.2927837371826172,0.3815689384937286,-0.7302847504615784
2024-12-07 20:32:17.715064600,0.097064697265625,-0.4907639324665069,0.1836233735084533,-0.7984195947647095
2024-12-07 20:32:17.725078500,0.10707861328125,-0.8403268456459045,-0.0136512303724884,-0.7623220682144165
2024-12-07 20:32:17.735091500,0.117091552734375,-1.2049607038497925,-0.2418726831674575,-0.6744140982627869
2024-12-07 20:32:17.745105400,0.12710546875,-1.433043360710144,-0.4189170598983764,-0.5742926597595215
2024-12-07 20:32:17.755119600,0.13711962890625,-1.5226120948791504,-0.4249666929244995,-0.4679899215698242
2024-12-07 20:32:17.765133300,0.14713330078125,-1.5338037014007568,-0.301855593919754,-0.3477396070957184
2024-12-07 20:32:17.775146500,0.157146484375,-1.5076380968093872,-0.1172604486346244,-0.2380322515964508
2024-12-07 20:32:17.785160400,0.167160400390625,-1.5002315044403076,0.0381212681531906,-0.1385419368743896
2024-12-07 20:32:17.795174700,0.177174560546875,-1.4901604652404783,0.1318813264369964,-0.0722342878580093
2024-12-07 20:32:17.805188400,0.187188232421875,-1.4669392108917236,0.1271055042743683,-0.0584134310483932
2024-12-07 20:32:17.815202600,0.19720263671875,-1.418632984161377,0.0629805773496627,-0.0929453074932098
2024-12-07 20:32:17.825215500,0.207215576171875,-1.3163515329360962,-0.0158339887857437,-0.1454177498817443
2024-12-07 20:32:17.835229400,0.2172294921875,-1.161122441291809,-0.0066202506422996,-0.1877678781747818
2024-12-07 20:32:17.845243400,0.227243408203125,-0.911907196044922,0.0475613065063953,-0.1966700702905655
2024-12-07 20:32:17.855257600,0.237257568359375,-0.5735312700271606,0.1254901885986328,-0.1460577547550201
2024-12-07 20:32:17.865271600,0.247271484375,-0.2204024642705917,0.2084154784679412,-0.0262844935059547
2024-12-07 20:32:17.875284500,0.257284423828125,0.0667605921626091,0.3041643798351288,0.1352977454662323
2024-12-07 20:32:17.885298400,0.26729833984375,0.3758170008659363,0.3710043430328369,0.182576984167099
2024-12-07 20:32:17.895312600,0.277312744140625,0.4450698494911194,0.3011869192123413,-0.1565523445606231
2024-12-07 20:32:17.905326600,0.28732666015625,0.0875155925750732,0.1219224035739898,-0.5855154395103455
2024-12-07 20:32:17.915339500,0.297339599609375,-0.2568292617797851,0.148098886013031,-0.7684634327888489
2024-12-07 20:32:17.925353500,0.307353515625,-0.4138019382953644,0.4139800369739532,-0.5790561437606812
2024-12-07 20:32:17.935367700,0.31736767578125,-0.4295588135719299,0.5288288593292236,-0.2827233076095581
2024-12-07 20:32:17.945381400,0.32738134765625,-0.3765628039836883,0.4014601409435272,-0.095999039709568
2024-12-07 20:32:17.955395600,0.3373955078125,-0.3432080447673797,0.2309166342020034,-0.0455222837626934
2024-12-07 20:32:17.965408500,0.347408447265625,-0.3825382590293884,0.0467002876102924,0.0002019898965954
2024-12-07 20:32:17.975422500,0.35742236328125,-0.4509293138980865,-0.1026833429932594,0.0589747577905654
2024-12-07 20:32:17.985436400,0.3674365234375,-0.5043839812278748,-0.1557418256998062,0.0884839445352554
2024-12-07 20:32:17.995450600,0.37745068359375,-0.574070394039154,-0.08839101344347,0.1027528941631317
2024-12-07 20:32:18.005464600,0.387464599609375,-0.6892958879470825,0.0094058057293295,0.0781017839908599
2024-12-07 20:32:18.015477500,0.3974775390625,-0.8232033252716064,0.0474453307688236,-0.0091308560222387
2024-12-07 20:32:18.025491500,0.407491455078125,-0.8822441101074219,-0.0206590835005044,-0.1658820211887359
2024-12-07 20:32:18.035505400,0.41750537109375,-0.9554253816604614,-0.0850252881646156,-0.2942040562629699
2024-12-07 20:32:18.045519600,0.42751953125,-1.0722802877426147,-0.0454900488257408,-0.3642510771751404
2024-12-07 20:32:18.055532500,0.437532470703125,-1.2139474153518677,0.095640443265438,-0.3580980896949768
2024-12-07 20:32:18.065546500,0.44754638671875,-1.378431797027588,0.2527534663677215,-0.28871551156044
2024-12-07 20:32:18.075560400,0.457560546875,-1.5524883270263672,0.353701114654541,-0.2081708461046219
2024-12-07 20:32:18.085574400,0.467574462890625,-1.7133203744888306,0.3682577013969421,-0.1554237455129623
2024-12-07 20:32:18.095588400,0.47758837890625,-1.8571616411209104,0.2900571823120117,-0.1482313424348831
2024-12-07 20:32:18.105601500,0.4876015625,-1.9794551134109497,0.1876172870397567,-0.159105435013771
2024-12-07 20:32:18.115615500,0.497615478515625,-2.029814004898072,0.1269467622041702,-0.1407610476016998
2024-12-07 20:32:18.125629400,0.50762939453125,-1.9215768575668333,0.0110447444021701,-0.0806209072470665
2024-12-07 20:32:18.135643400,0.517643310546875,-1.6148006916046145,-0.1526653468608856,-0.0424575395882129
2024-12-07 20:32:18.145656600,0.527656494140625,-1.130674123764038,-0.3426527678966522,-0.0345181711018085
2024-12-07 20:32:18.155670500,0.53767041015625,-0.4659603536128998,-0.4902560710906982,-0.0611372627317905
2024-12-07 20:32:18.165684500,0.5476845703125,0.2330608069896698,-0.511622965335846,-0.0718662962317466
2024-12-07 20:32:18.175699500,0.557699462890625,0.6415780186653137,-0.2609984874725342,-0.010360587388277
2024-12-07 20:32:18.185713400,0.56771337890625,-0.0557352304458618,-0.0226991735398769,-0.2852625846862793
2024-12-07 20:32:18.195726300,0.577726318359375,-1.177897572517395,-0.1086287274956703,-0.658351480960846
2024-12-07 20:32:18.205740500,0.587740478515625,-0.9137648344039916,-0.3073590695858001,-0.457762211561203
2024-12-07 20:32:18.215754500,0.59775439453125,-0.2978798747062683,-0.3529499769210815,-0.0353856459259986
2024-12-07 20:32:18.225768400,0.6077685546875,0.1542004346847534,-0.223840057849884,0.2858838140964508
2024-12-07 20:32:18.235782400,0.617782470703125,0.3532283008098602,0.0185808278620243,0.4051742553710937
2024-12-07 20:32:18.245795600,0.627795654296875,0.3409520983695984,0.2059852182865142,0.4482621252536773
2024-12-07 20:32:18.255809500,0.6378095703125,0.1676820665597915,0.2352895736694336,0.3266195654869079
2024-12-07 20:32:18.265823500,0.647823486328125,-0.1952282190322876,-0.0058028544299304,-0.0287970136851072
2024-12-07 20:32:18.275837400,0.65783740234375,-0.315980464220047,-0.2339822351932525,-0.1682406663894653
2024-12-07 20:32:18.285850600,0.6678505859375,-0.2149709463119506,-0.3013755977153778,-0.1254337131977081
2024-12-07 20:32:18.295864600,0.677864501953125,-0.0811449810862541,-0.1484832465648651,-0.0386708565056324
2024-12-07 20:32:18.305878500,0.68787841796875,-0.0195579547435045,0.01017736364156,-0.037622433155775
2024-12-07 20:32:18.315892500,0.697892578125,0.0398323982954025,-0.0102027431130409,-0.0685867443680763
2024-12-07 20:32:18.325906400,0.707906494140625,0.0740963667631149,-0.0954891443252563,-0.0510783232748508
2024-12-07 20:32:18.335919400,0.71791943359375,0.0772066712379455,-0.1343363970518112,-0.011400950141251
2024-12-07 20:32:18.345933300,0.727933349609375,0.0784893780946731,-0.111696109175682,0.0035174307413399
2024-12-07 20:32:18.355947500,0.737947509765625,0.071761168539524,-0.0755594074726104,-0.0164304450154304
2024-12-07 20:32:18.365961500,0.74796142578125,0.0567478649318218,-0.0682276636362075,-0.0432919189333915
2024-12-07 20:32:18.375974400,0.757974365234375,0.0406458601355552,-0.0759545639157295,-0.0452304370701313
2024-12-07 20:32:18.385988400,0.76798828125,0.037733606994152,-0.0726899877190589,-0.028101947158575
2024-12-07 20:32:18.396002600,0.77800244140625,0.0387890189886093,-0.0649843961000442,-0.0205412358045578
2024-12-07 20:32:18.406016500,0.7880166015625,0.0411804839968681,-0.0499894544482231,-0.0381343625485897
2024-12-07 20:32:18.416030500,0.798030517578125,0.0401743426918983,-0.0301110856235027,-0.0583754517138004
2024-12-07 20:32:18.426043400,0.80804345703125,0.0447602681815624,-0.0152505971491336,-0.0615937635302543
2024-12-07 20:32:18.436057600,0.8180576171875,0.051803532987833,-0.0021446489263325,-0.0467948429286479
2024-12-07 20:32:18.446071300,0.8280712890625,0.0580642335116863,0.0095973489806056,-0.0339280888438224
2024-12-07 20:32:18.456085500,0.83808544921875,0.055009588599205,0.0284756999462842,-0.0238150022923946
2024-12-07 20:32:18.466098400,0.848098388671875,0.0513070225715637,0.0555774234235286,-0.0114504024386405
2024-12-07 20:32:18.476112600,0.858112548828125,0.0576472133398056,0.0750344842672348,-0.0001916238106787
2024-12-07 20:32:18.486126300,0.868126220703125,0.0700916349887847,0.0964782536029815,0.008410120382905
2024-12-07 20:32:18.496140500,0.878140625,0.0915750861167907,0.1231010779738426,0.0058513549156486
2024-12-07 20:32:18.506154500,0.888154541015625,0.1197816506028175,0.1567735373973846,-0.0002356758341193
2024-12-07 20:32:18.516167400,0.89816748046875,0.1494697779417038,0.2170629799365997,0.0122609417885541
2024-12-07 20:32:18.526181400,0.908181396484375,0.1866091936826706,0.2954578697681427,0.0463673919439315
2024-12-07 20:32:18.536195600,0.918195556640625,0.2297721207141876,0.3852977454662323,0.0857219845056533
2024-12-07 20:32:18.546209500,0.92820947265625,0.268487274646759,0.4947657287120819,0.1153376325964927
2024-12-07 20:32:18.556223500,0.938223388671875,0.2926863431930542,0.6285807490348816,0.1305607855319976
2024-12-07 20:32:18.566236400,0.948236328125,0.2949355244636535,0.7823857665061951,0.1504227966070175
2024-12-07 20:32:18.576250600,0.958250732421875,0.2834578156471252,0.9229210019111632,0.1784797310829162
2024-12-07 20:32:18.586264600,0.9682646484375,0.2641737461090088,1.002044916152954,0.1898242235183715
2024-12-07 20:32:18.596278500,0.978278564453125,0.221488356590271,0.9844601154327391,0.16433085501194
2024-12-07 20:32:18.606291500,0.98829150390625,0.1576643586158752,0.883890688419342,0.1246446520090103
2024-12-07 20:32:18.616305700,0.9983056640625,0.0952563807368278,0.7255721688270569,0.100415214896202
2024-12-07 20:32:18.626319400,1.0083193359375,0.0491381138563156,0.5394394397735596,0.0947435721755027
2024-12-07 20:32:18.636333600,1.01833349609375,0.0131090050563216,0.3717447221279144,0.0870502293109893
2024-12-07 20:32:18.646347500,1.028347412109375,-0.0065663140267133,0.2523551881313324,0.04478370398283
2024-12-07 20:32:18.656360400,1.0383603515625,-0.0123669449239969,0.2028478235006332,-0.019767589867115
2024-12-07 20:32:18.666374400,1.04837451171875,-0.0063006528653204,0.1918935626745224,-0.0519777722656726
2024-12-07 20:32:18.676388600,1.058388671875,0.0117246862500905,0.1775337904691696,-0.0553986020386219
2024-12-07 20:32:18.686402600,1.068402587890625,0.0262827221304178,0.1551923006772995,-0.0474510788917541
2024-12-07 20:32:18.696415500,1.07841552734375,0.0358333513140678,0.1323652863502502,-0.0390557311475276
2024-12-07 20:32:18.706429400,1.088429443359375,0.0487276278436183,0.0959603860974311,-0.0346441864967346
2024-12-07 20:32:18.716443600,1.098443603515625,0.0600551180541515,0.0572574660181999,-0.0364865623414516
2024-12-07 20:32:18.726457600,1.10845751953125,0.0612263344228267,0.0127090159803628,-0.0413041301071643
2024-12-07 20:32:18.736470500,1.118470458984375,0.0611459091305732,-0.0334283858537673,-0.0446738302707672
2024-12-07 20:32:18.746484500,1.128484375,0.0607257038354873,-0.0497936196625232,-0.0527227893471717
2024-12-07 20:32:18.756498700,1.138498779296875,0.058784257620573,-0.0479302071034908,-0.0508543141186237
2024-12-07 20:32:18.766512400,1.148512451171875,0.0615929551422596,-0.0521802604198455,-0.0409494042396545
2024-12-07 20:32:18.776526300,1.1585263671875,0.055505234748125,-0.059964146465063,-0.0301902331411838
2024-12-07 20:32:18.786539500,1.16853955078125,0.0413677506148815,-0.0332149602472782,-0.0295478142797946
2024-12-07 20:32:18.796553700,1.1785537109375,0.0224872715771198,0.0255351699888706,-0.0298551432788372
2024-12-07 20:32:18.806567400,1.1885673828125,0.0155392717570066,0.0410791970789432,-0.0170009583234787
2024-12-07 20:32:18.816581400,1.198581298828125,0.0115559818223118,0.0273439437150955,-0.0026246821507811
2024-12-07 20:32:18.826594600,1.208594482421875,0.0105241369456052,0.0103942835703492,0.000707846134901
2024-12-07 20:32:18.836608500,1.2186083984375,0.0121372137218713,0.0044628912582993,0.0069891782477498
2024-12-07 20:32:18.846622500,1.22862255859375,0.0209663435816764,0.0193943958729505,0.021748699247837
2024-12-07 20:32:18.856636400,1.238636474609375,0.0379799492657184,0.0466470532119274,0.0250755175948143
2024-12-07 20:32:18.866650600,1.248650634765625,0.055727832019329,0.0781574100255966,0.0130904447287321
2024-12-07 20:32:18.876663600,1.25866357421875,0.0770493671298027,0.1057405695319175,0.0017275346908718
2024-12-07 20:32:18.886677500,1.268677490234375,0.0910046398639679,0.1544727236032486,0.0008707814849913
2024-12-07 20:32:18.896691500,1.27869140625,0.0953493192791938,0.2143861204385757,0.0105010382831096
2024-12-07 20:32:18.906705400,1.288705322265625,0.0968446061015129,0.2493914663791656,0.0180653873831033
2024-12-07 20:32:18.916718600,1.298718505859375,0.0871467068791389,0.2706120610237121,0.0195157453417778
2024-12-07 20:32:18.926732500,1.308732666015625,0.0746399760246276,0.2624749839305877,0.0326291881501674
2024-12-07 20:32:18.936746500,1.31874658203125,0.0596940480172634,0.2303122580051422,0.045657105743885
2024-12-07 20:32:18.946760400,1.328760498046875,0.0416592918336391,0.1931584179401397,0.0504907704889774
2024-12-07 20:32:18.956774400,1.3387744140625,0.0223777405917644,0.1624452471733093,0.0547443702816963
2024-12-07 20:32:18.966787600,1.34878759765625,0.0056482441723346,0.13554547727108,0.0633327811956405
2024-12-07 20:32:18.976801300,1.35880126953125,-0.004930630326271,0.1114095076918602,0.0645820647478103
2024-12-07 20:32:18.986815500,1.3688154296875,-0.0106774177402257,0.0871071442961692,0.0524585433304309
2024-12-07 20:32:18.996829400,1.378829345703125,-0.014035397209227,0.0731913298368454,0.0354366824030876
2024-12-07 20:32:19.006842600,1.388842529296875,-0.0155811849981546,0.0848837345838546,0.0297205746173858
2024-12-07 20:32:19.016856300,1.398856201171875,-0.0057344129309058,0.091812215745449,0.0286744851619005
2024-12-07 20:32:19.026870500,1.40887060546875,0.0019915923476219,0.0938571244478225,0.0244473125785589
2024-12-07 20:32:19.036884500,1.418884521484375,0.0053330603986978,0.0804734081029892,0.002969452412799
2024-12-07 20:32:19.046898700,1.428898681640625,0.0113647673279047,0.063556008040905,-0.0173165425658226
2024-12-07 20:32:19.056911400,1.438911376953125,0.0175337120890617,0.0584238320589065,-0.0120061989873647
2024-12-07 20:32:19.066925600,1.448925537109375,0.0199433397501707,0.0640106126666069,0.0113912681117653
2024-12-07 20:32:19.076939500,1.458939453125,0.019061567261815,0.0609514378011226,0.0305356681346893
2024-12-07 20:32:19.086953500,1.468953369140625,0.0128109063953161,0.0576145946979522,0.0318746529519557
2024-12-07 20:32:19.096966400,1.47896630859375,0.0065663265995681,0.0652173832058906,0.0195372942835092
2024-12-07 20:32:19.106980600,1.488980712890625,0.0021409483160823,0.0716873258352279,0.0082846041768789
2024-12-07 20:32:19.116994300,1.498994384765625,-0.0047182897105813,0.06250661611557,0.0017595936078578
2024-12-07 20:32:19.127008500,1.509008544921875,-0.0080892760306596,0.0478161834180355,0.0009568664245307
2024-12-07 20:32:19.137022500,1.5190224609375,-0.003650584956631,0.0362577959895134,0.002460221061483
2024-12-07 20:32:19.147035600,1.52903564453125,0.0040663694962859,0.0427621081471443,0.007510207593441
2024-12-07 20:32:19.157049300,1.53904931640625,0.0141680054366588,0.067554272711277,0.0152171291410923
2024-12-07 20:32:19.167063600,1.5490634765625,0.0234458390623331,0.0877163335680961,0.0291423648595809
2024-12-07 20:32:19.177076500,1.559076416015625,0.028315695002675,0.0860079154372215,0.0278691090643405
2024-12-07 20:32:19.187089700,1.569089599609375,0.0224296636879444,0.0766939744353294,0.0073616029694676
2024-12-07 20:32:19.197103600,1.579103515625,0.0103373154997825,0.0554214417934417,-0.0062732491642236
2024-12-07 20:32:19.207117600,1.58911767578125,-0.003155984217301,0.0453058704733848,0.00508718425408
2024-12-07 20:32:19.217131500,1.599131591796875,-0.0141156921163201,0.0334939509630203,0.0161446295678615
2024-12-07 20:32:19.227145700,1.609145751953125,-0.0233274418860673,0.0159260220825672,0.0086470758542418
2024-12-07 20:32:19.237158700,1.61915869140625,-0.02915177680552,-0.0067073842510581,-0.0083393640816211
2024-12-07 20:32:19.247172600,1.629172607421875,-0.0304453521966934,-0.0222088936716318,-0.0097890179604291
2024-12-07 20:32:19.257186600,1.6391865234375,-0.0315010286867618,-0.0256406422704458,-0.0064813713543117
2024-12-07 20:32:19.267200800,1.64920068359375,-0.0324363745748996,-0.0331567153334617,-0.0161555204540491
2024-12-07 20:32:19.277213700,1.659213623046875,-0.0328547582030296,-0.0461635924875736,-0.027902191504836
2024-12-07 20:32:19.287227600,1.6692275390625,-0.0322891511023044,-0.0609305948019027,-0.0232765339314937
2024-12-07 20:32:19.297241600,1.67924169921875,-0.0338833183050155,-0.0718756541609764,-0.0155991725623607
2024-12-07 20:32:19.307255800,1.689255859375,-0.0360307916998863,-0.0597563832998275,-0.0118560902774333
2024-12-07 20:32:19.317269500,1.69926953125,-0.0384311005473136,-0.0481149069964885,-0.0079151429235935
2024-12-07 20:32:19.327282700,1.70928271484375,-0.0363062508404254,-0.0342168658971786,-0.0045437468215823
2024-12-07 20:32:19.337296600,1.719296630859375,-0.0362689681351184,-0.0235517043620347,-0.0044713094830513
2024-12-07 20:32:19.347310800,1.729310791015625,-0.0351077876985073,-0.0382522009313106,-0.0123247923329472
2024-12-07 20:32:19.357324500,1.739324462890625,-0.0356809012591838,-0.0524766743183136,-0.0212027058005332
2024-12-07 20:32:19.367337700,1.749337646484375,-0.0365808829665184,-0.0592091679573059,-0.01815951988101
2024-12-07 20:32:19.377351700,1.7593515625,-0.0384267196059227,-0.0639932751655578,-0.0009640213102102
2024-12-07 20:32:19.387365600,1.76936572265625,-0.0352432541549205,-0.0835345238447189,0.0116291753947734
2024-12-07 20:32:19.397379600,1.779379638671875,-0.0359098426997661,-0.0975805670022964,0.0003237901255488
2024-12-07 20:32:19.407392800,1.789392822265625,-0.0388473086059093,-0.0963028445839881,-0.0181321464478969
2024-12-07 20:32:19.417406500,1.799406494140625,-0.0450772419571876,-0.1011708378791809,-0.0244757961481809
2024-12-07 20:32:19.427420700,1.809420654296875,-0.0551292188465595,-0.1119791269302368,-0.0209627784788608
2024-12-07 20:32:19.437434600,1.8194345703125,-0.0643014088273048,-0.1073396354913711,-0.0090768244117498
2024-12-07 20:32:19.447448800,1.82944873046875,-0.0627499520778656,-0.0838040336966514,0.0061801900155842
2024-12-07 20:32:19.457461500,1.83946142578125,-0.0550675280392169,-0.0534623749554157,0.0094260508194565
2024-12-07 20:32:19.467475700,1.849475830078125,-0.0512403398752212,-0.0336177162826061,-0.0061901081353425
2024-12-07 20:32:19.477489700,1.85948974609375,-0.0498371198773384,-0.0362254828214645,-0.022694781422615
2024-12-07 20:32:19.487504000,1.86950390625,-0.0478240773081779,-0.0587314255535602,-0.0281837731599807
2024-12-07 20:32:19.497516500,1.8795166015625,-0.048048049211502,-0.0783948749303817,-0.0231583900749683
2024-12-07 20:32:19.507530800,1.88953076171875,-0.0480742268264293,-0.1027309522032737,-0.0129484171047806
2024-12-07 20:32:19.517544700,1.899544677734375,-0.0481163077056407,-0.0961478799581527,-0.0084149176254868
2024-12-07 20:32:19.527558700,1.90955859375,-0.0412594228982925,-0.0652654394507408,-0.0060943271964788
2024-12-07 20:32:19.537572600,1.919572509765625,-0.0327335819602012,-0.0229446142911911,-0.0007019583135843
2024-12-07 20:32:19.547585800,1.929585693359375,-0.022224448621273,0.0064953062683343,0.0043826564215123
2024-12-07 20:32:19.557599700,1.939599853515625,-0.0156325921416282,0.0147271361202001,0.0019871431868523
2024-12-07 20:32:19.567613700,1.94961376953125,-0.0182130597531795,-0.0126637704670429,-0.0021320837549865
2024-12-07 20:32:19.577627600,1.959627685546875,-0.023934593424201,-0.0439908020198345,-0.0122718038037419
2024-12-07 20:32:19.587640800,1.969640869140625,-0.0321394950151443,-0.0399587638676166,-0.0321039818227291
2024-12-07 20:32:19.597654500,1.979654541015625,-0.0393449440598487,-0.0321812704205513,-0.0446498692035675
2024-12-07 20:32:19.607668700,1.989668701171875,-0.0440942272543907,-0.0346981808543205,-0.047722615301609
2024-12-07 20:32:19.617682700,1.9996826171875,-0.0536744184792041,-0.0610349811613559,-0.0497594028711319
2024-12-07 20:32:19.627696600,2.009696533203125,-0.0625821575522422,-0.1136435344815254,-0.0626432821154594
2024-12-07 20:32:19.637709600,2.01970947265625,-0.0634050741791725,-0.1728019416332245,-0.0874985605478286
2024-12-07 20:32:19.647723800,2.029723876953125,-0.0606558062136173,-0.2143279314041137,-0.1227144002914428
2024-12-07 20:32:19.657737700,2.03973779296875,-0.0564805008471012,-0.2264599502086639,-0.1530430167913437
2024-12-07 20:32:19.667751400,2.04975146484375,-0.0520385690033435,-0.2245911806821823,-0.1696941703557968
2024-12-07 20:32:19.677764600,2.0597646484375,-0.0415680855512619,-0.2153585255146026,-0.1712116450071334
2024-12-07 20:32:19.687778800,2.06977880859375,-0.0278108697384595,-0.2124286442995071,-0.1689457893371582
2024-12-07 20:32:19.697792800,2.079792724609375,-0.0160341057926416,-0.1994891464710235,-0.1612953245639801
2024-12-07 20:32:19.707806500,2.089806396484375,-0.0021546832285821,-0.1780191361904144,-0.1444700807332992
2024-12-07 20:32:19.717819600,2.099819580078125,0.0130016338080167,-0.1841324269771576,-0.1291118860244751
2024-12-07 20:32:19.727833900,2.109833740234375,0.0284963902086019,-0.1740989983081817,-0.1253855675458908
2024-12-07 20:32:19.737847600,2.11984765625,0.045037280768156,-0.1407311856746673,-0.1029417887330055
2024-12-07 20:32:19.747861500,2.129861572265625,0.0674881786108017,-0.1237173154950141,-0.0801066383719444
2024-12-07 20:32:19.757875700,2.139875732421875,0.0855835601687431,-0.1041960790753364,-0.0745848417282104
2024-12-07 20:32:19.767888600,2.149888671875,0.0947074517607688,-0.0956000015139579,-0.0635585263371467
2024-12-07 20:32:19.777902600,2.159902587890625,0.0939745530486106,-0.1288825869560241,-0.0498720109462738
2024-12-07 20:32:19.787916500,2.16991650390625,0.0868909135460853,-0.1775180250406265,-0.037759143859148
2024-12-07 20:32:19.797930800,2.1799306640625,0.0739775076508522,-0.2087475806474685,-0.0403717048466205
2024-12-07 20:32:19.807943700,2.189943603515625,0.0732636377215385,-0.2185391336679458,-0.0527673102915287
2024-12-07 20:32:19.817957600,2.19995751953125,0.0714391097426414,-0.1976445019245147,-0.0644521936774253
2024-12-07 20:32:19.827971600,2.2099716796875,0.0682210847735405,-0.1645872443914413,-0.0729552581906318
2024-12-07 20:32:19.837985800,2.21998583984375,0.0633317828178405,-0.1317440718412399,-0.0807300880551338
2024-12-07 20:32:19.847999500,2.22999951171875,0.0573628842830657,-0.103997565805912,-0.0871347784996032
2024-12-07 20:32:19.858012700,2.2400126953125,0.0384893305599689,-0.107476457953453,-0.0790392979979515
2024-12-07 20:32:19.868026600,2.250026611328125,0.018788106739521,-0.1397778391838073,-0.0722133964300155
2024-12-07 20:32:19.878040600,2.26004052734375,0.0038925129920244,-0.180060014128685,-0.0696034952998161
2024-12-07 20:32:19.888054500,2.270054443359375,-0.0047373767010867,-0.1988424956798553,-0.0581347309052944
2024-12-07 20:32:19.898067700,2.280067626953125,-0.0147790908813476,-0.1823729872703552,-0.0504081062972545
2024-12-07 20:32:19.908081700,2.29008154296875,-0.0322362445294857,-0.1546646803617477,-0.0494801066815853
2024-12-07 20:32:19.918095600,2.300095703125,-0.0605584271252155,-0.1566535234451294,-0.0528886877000331
2024-12-07 20:32:19.928109600,2.310109619140625,-0.0863821282982826,-0.2029778212308883,-0.0571355298161506
2024-12-07 20:32:19.938122800,2.320122802734375,-0.1111042499542236,-0.2749947607517242,-0.0678281262516975
2024-12-07 20:32:19.948136400,2.330136474609375,-0.133247897028923,-0.3285240828990936,-0.1036768928170204
2024-12-07 20:32:19.958150700,2.340150634765625,-0.1433524638414383,-0.3614309132099151,-0.1560948342084884
2024-12-07 20:32:19.968164600,2.35016455078125,-0.1249878779053688,-0.3857678472995758,-0.2011205404996872
2024-12-07 20:32:19.978178800,2.3601787109375,-0.083809807896614,-0.4011318683624267,-0.2411172240972519
2024-12-07 20:32:19.988191500,2.37019140625,-0.0242620203644037,-0.3959457874298095,-0.2450848668813705
2024-12-07 20:32:19.998205700,2.380205810546875,0.0098022054880857,-0.3218452036380768,-0.2122251838445663
2024-12-07 20:32:20.008219600,2.3902197265625,0.0116223879158496,-0.2134962826967239,-0.1742137819528579
2024-12-07 20:32:20.018233900,2.40023388671875,0.00449656881392,-0.1561722755432129,-0.1399436891078949
2024-12-07 20:32:20.028246500,2.41024658203125,-0.0109008103609085,-0.1503740847110748,-0.1115176230669021
2024-12-07 20:32:20.038260700,2.4202607421875,-0.036520954221487,-0.160298615694046,-0.1004252955317497
2024-12-07 20:32:20.048274700,2.430274658203125,-0.0713018029928207,-0.1489966809749603,-0.0886710584163665
2024-12-07 20:32:20.058288600,2.44028857421875,-0.1035249829292297,-0.1216308400034904,-0.0786775425076484
2024-12-07 20:32:20.068302600,2.450302490234375,-0.1311964690685272,-0.1030697152018547,-0.0739434659481048
2024-12-07 20:32:20.078315800,2.460315673828125,-0.1494500339031219,-0.0942253544926643,-0.0896971225738525
2024-12-07 20:32:20.088329500,2.47032958984375,-0.1576619744300842,-0.0945720300078392,-0.1251620799303054
2024-12-07 20:32:20.098343700,2.48034375,-0.154312789440155,-0.0955760404467582,-0.1644077450037002
2024-12-07 20:32:20.108357600,2.490357666015625,-0.1378303915262222,-0.0775931775569915,-0.1896327435970306
2024-12-07 20:32:20.118370800,2.500370849609375,-0.1200492605566978,-0.0121193574741482,-0.1781561076641082
2024-12-07 20:32:20.128384500,2.510384521484375,-0.0974323228001594,0.0662522464990615,-0.1419773995876312
2024-12-07 20:32:20.138398700,2.520398681640625,-0.0769022852182388,0.111919067800045,-0.1026883050799369
2024-12-07 20:32:20.148412700,2.53041259765625,-0.071829155087471,0.1196671649813652,-0.0804564803838729
2024-12-07 20:32:20.158427000,2.540427001953125,-0.0851841121912002,0.1119836792349815,-0.0856408551335334
2024-12-07 20:32:20.168439600,2.550439453125,-0.1071407124400138,0.0927394852042198,-0.1010318323969841
2024-12-07 20:32:20.178454000,2.5604541015625,-0.1420163959264755,0.0790423154830932,-0.1052582710981369
2024-12-07 20:32:20.188468000,2.570468017578125,-0.1742113530635833,0.0810675397515297,-0.0966236963868141
2024-12-07 20:32:20.198482000,2.58048193359375,-0.2040744423866272,0.1046050935983657,-0.0998125672340393
2024-12-07 20:32:20.208494800,2.590494873046875,-0.22251757979393,0.1328904181718826,-0.1217046380043029
2024-12-07 20:32:20.218509000,2.600509033203125,-0.2291299402713775,0.1542332470417022,-0.1500371992588043
2024-12-07 20:32:20.228522800,2.610522705078125,-0.2311876714229583,0.1489906907081604,-0.1763532906770706
2024-12-07 20:32:20.238537000,2.620536865234375,-0.2223081588745117,0.1225359141826629,-0.1975022554397583
2024-12-07 20:32:20.248550000,2.6305498046875,-0.2161424160003662,0.0764080956578254,-0.2031649351119995
2024-12-07 20:32:20.258563800,2.640563720703125,-0.2092690765857696,0.0189831554889678,-0.2040197998285293
2024-12-07 20:32:20.268577800,2.650577880859375,-0.2046406418085098,-0.0324085168540477,-0.2006532549858093
2024-12-07 20:32:20.278591700,2.660591796875,-0.2003974318504333,-0.0641621872782707,-0.1972302943468094
2024-12-07 20:32:20.288606000,2.67060595703125,-0.1981022208929062,-0.0784667432308197,-0.2056160867214203
2024-12-07 20:32:20.298619000,2.680618896484375,-0.1941482126712799,-0.0882898122072219,-0.2178735584020614
2024-12-07 20:32:20.308632800,2.6906328125,-0.1827765703201294,-0.0863649174571037,-0.2353119254112243
2024-12-07 20:32:20.318646800,2.700646728515625,-0.1700876802206039,-0.0694610327482223,-0.257035344839096
2024-12-07 20:32:20.328661000,2.710660888671875,-0.1623553931713104,-0.0455331988632679,-0.2708109617233276
2024-12-07 20:32:20.338674000,2.720673828125,-0.1627263724803924,-0.0238625258207321,-0.2604906857013702
2024-12-07 20:32:20.348688000,2.73068798828125,-0.1582951098680496,-0.0148950647562742,-0.2307585477828979
2024-12-07 20:32:20.358701800,2.740701904296875,-0.1522284299135208,-0.0128199299797415,-0.1966360062360763
2024-12-07 20:32:20.368715800,2.7507158203125,-0.143218383193016,-0.0060106613673269,-0.1585464477539062
2024-12-07 20:32:20.378729700,2.760729736328125,-0.1423336863517761,0.0146906226873397,-0.1254470944404602
2024-12-07 20:32:20.388743000,2.770742919921875,-0.1391161382198333,0.0438468605279922,-0.0988840162754058
2024-12-07 20:32:20.398756900,2.7807568359375,-0.1392945647239685,0.0653446987271308,-0.0755312889814376
2024-12-07 20:32:20.408770800,2.790770751953125,-0.150772824883461,0.0734462589025497,-0.0563567839562892
2024-12-07 20:32:20.418784800,2.80078466796875,-0.172399029135704,0.055105336010456,-0.0239495765417814
2024-12-07 20:32:20.428798000,2.8107978515625,-0.1899460107088089,0.0170604642480611,0.0210948847234249
2024-12-07 20:32:20.438812000,2.82081201171875,-0.2079135626554489,-0.0191715769469738,0.0528456233441829
2024-12-07 20:32:20.448825900,2.830825927734375,-0.2228704541921615,-0.0320078805088996,0.0600323379039764
2024-12-07 20:32:20.458839800,2.84083984375,-0.2402638345956802,0.0024006958119571,0.0320803299546241
2024-12-07 20:32:20.468852700,2.850852783203125,-0.2549839615821838,0.0892166569828987,-0.0238829851150512
2024-12-07 20:32:20.478866700,2.86086669921875,-0.2804267406463623,0.1853599697351455,-0.0797310695052146
2024-12-07 20:32:20.488881000,2.870880859375,-0.305856704711914,0.2702393233776092,-0.1251482814550399
2024-12-07 20:32:20.498894800,2.880894775390625,-0.3316592872142792,0.330924242734909,-0.169114664196968
2024-12-07 20:32:20.508909000,2.890908935546875,-0.3548495173454284,0.3599121570587158,-0.217594176530838
2024-12-07 20:32:20.518921700,2.900921630859375,-0.3776262104511261,0.3460666537284851,-0.2592923641204834
2024-12-07 20:32:20.528936000,2.91093603515625,-0.396778404712677,0.2981702089309692,-0.2735351920127868
2024-12-07 20:32:20.538950000,2.920949951171875,-0.4046363234519958,0.2365185469388961,-0.2548544406890869
2024-12-07 20:32:20.548963800,2.9309638671875,-0.3959948718547821,0.1900283843278885,-0.2162720561027526
2024-12-07 20:32:20.558976800,2.940976806640625,-0.3749710619449615,0.208073690533638,-0.1716401427984237
2024-12-07 20:32:20.568991000,2.950990966796875,-0.3504349589347839,0.2887301445007324,-0.1302016228437423
2024-12-07 20:32:20.579004700,2.961004638671875,-0.3292585611343384,0.3791836202144623,-0.0945546925067901
2024-12-07 20:32:20.589019000,2.971018798828125,-0.3132309913635254,0.4079419076442718,-0.0593773089349269
2024-12-07 20:32:20.599031800,2.98103173828125,-0.2906407117843628,0.348044216632843,-0.0395604595541954
2024-12-07 20:32:20.609046000,2.9910458984375,-0.2574891448020935,0.2133139967918396,-0.0395736135542392
2024-12-07 20:32:20.619059700,3.001059814453125,-0.2160479724407196,0.0577337257564067,-0.0608717128634452
2024-12-07 20:32:20.629074000,3.011073974609375,-0.1677136868238449,-0.0733055919408798,-0.0929837822914123
2024-12-07 20:32:20.639087900,3.021087890625,-0.1160648688673973,-0.1424990445375442,-0.1230948120355606
2024-12-07 20:32:20.649100800,3.031100830078125,-0.0709077715873718,-0.1251153647899627,-0.1413975805044174
2024-12-07 20:32:20.659114800,3.04111474609375,-0.027327537536621,-0.0154416095465421,-0.1317926198244094
2024-12-07 20:32:20.669129000,3.05112890625,0.0089569622650742,0.1446624249219894,-0.0831761583685875
2024-12-07 20:32:20.679143000,3.061142822265625,0.0405473783612251,0.2925698459148407,0.0033752401359379
2024-12-07 20:32:20.689155800,3.07115576171875,0.0528797209262847,0.3815869688987732,0.1052948534488678
2024-12-07 20:32:20.699169800,3.081169677734375,0.0419549010694026,0.4175090193748474,0.2030938565731048
2024-12-07 20:32:20.709184000,3.09118408203125,0.0130444224923849,0.3890776634216308,0.2862934172153473
2024-12-07 20:32:20.719198000,3.101197998046875,-0.012930984608829,0.3230240643024444,0.3530194461345672
2024-12-07 20:32:20.729212000,3.1112119140625,-0.0318131037056446,0.2586070895195007,0.4055836796760559
2024-12-07 20:32:20.739224800,3.121224853515625,-0.02899388410151,0.2106957584619522,0.4468956887722015
2024-12-07 20:32:20.749239000,3.131239013671875,0.0012796014780178,0.1717749983072281,0.483134388923645
2024-12-07 20:32:20.759252700,3.141252685546875,0.0488561764359474,0.1537360697984695,0.5191727876663208
2024-12-07 20:32:20.769267000,3.151266845703125,0.1059956327080726,0.1534975469112396,0.5606226325035095
2024-12-07 20:32:20.779280000,3.16127978515625,0.1716023385524749,0.1709657609462738,0.5985844135284424
2024-12-07 20:32:20.789293800,3.1712939453125,0.2385098189115524,0.2031536251306533,0.6357081532478333
2024-12-07 20:32:20.799307800,3.181307861328125,0.2927341759204864,0.2287924140691757,0.6940129995346069
2024-12-07 20:32:20.809322000,3.191322021484375,0.329829454421997,0.229253813624382,0.7925759553909302
2024-12-07 20:32:20.819335000,3.2013349609375,0.3561153709888458,0.2107706815004348,0.9211275577545166
2024-12-07 20:32:20.829348900,3.211348876953125,0.3805322051048279,0.1938121169805526,1.0562493801116943
2024-12-07 20:32:20.839362800,3.22136279296875,0.4031547009944916,0.178933560848236,1.1684774160385132
2024-12-07 20:32:20.849377000,3.231376953125,0.4206951558589935,0.1565214097499847,1.244698166847229
2024-12-07 20:32:20.859391000,3.241390869140625,0.439827561378479,0.1286524832248687,1.281074285507202
2024-12-07 20:32:20.869404000,3.25140380859375,0.4602358043193817,0.1297141760587692,1.296013355255127
2024-12-07 20:32:20.879417900,3.26141796875,0.483367770910263,0.1782124787569046,1.3077526092529297
2024-12-07 20:32:20.889432000,3.27143212890625,0.51686030626297,0.2439028024673462,1.317795991897583
2024-12-07 20:32:20.899445800,3.28144580078125,0.5587795376777649,0.2943931221961975,1.3239604234695437
2024-12-07 20:32:20.909459000,3.291458984375,0.5967748165130615,0.3319646418094635,1.3142805099487305
2024-12-07 20:32:20.919473000,3.301472900390625,0.6270967721939087,0.3488072752952575,1.2789520025253296
2024-12-07 20:32:20.929487000,3.311487060546875,0.6449809670448303,0.3468182384967804,1.204611897468567
2024-12-07 20:32:20.939500800,3.321500732421875,0.6498057842254639,0.3383957147598266,1.0983182191848757
2024-12-07 20:32:20.949514000,3.331513916015625,0.6324948072433472,0.3419409990310669,0.9743424654006958
2024-12-07 20:32:20.959528000,3.34152783203125,0.5964033603668213,0.3639283180236816,0.8783160448074341
2024-12-07 20:32:20.969542000,3.3515419921875,0.55533766746521,0.361766904592514,0.8110129833221436
2024-12-07 20:32:20.979555800,3.361555908203125,0.511105477809906,0.2881419658660888,0.752249538898468
2024-12-07 20:32:20.989569800,3.37156982421875,0.4760873913764953,0.1585166156291961,0.6993618607521057
2024-12-07 20:32:20.999582700,3.381582763671875,0.4553680121898651,-0.0042432844638824,0.6446211338043213
2024-12-07 20:32:21.009597000,3.391596923828125,0.4396598935127258,-0.128617376089096,0.5854967832565308
2024-12-07 20:32:21.019611000,3.40161083984375,0.4193607568740845,-0.1885685920715332,0.5268891453742981
2024-12-07 20:32:21.029624800,3.411624755859375,0.4017923176288605,-0.1515608578920364,0.4585071206092834
2024-12-07 20:32:21.039637800,3.4216376953125,0.3981957137584686,-0.0941186025738716,0.3731589317321777
2024-12-07 20:32:21.049652000,3.43165185546875,0.4034189581871032,-0.0807495340704917,0.2677070796489715
2024-12-07 20:32:21.059666000,3.441666015625,0.4230027794837951,-0.1125886961817741,0.1632576435804367
2024-12-07 20:32:21.069679900,3.451679931640625,0.4405689239501953,-0.2011656910181045,0.0496771596372127
2024-12-07 20:32:21.079693800,3.46169384765625,0.464765340089798,-0.3281715512275696,-0.0622363239526748
2024-12-07 20:32:21.089707000,3.47170703125,0.482000857591629,-0.4694660604000091,-0.1540428549051284
2024-12-07 20:32:21.099721000,3.481720947265625,0.4720877707004547,-0.5699564218521118,-0.2107362300157547
2024-12-07 20:32:21.109734700,3.491734619140625,0.4586004018783569,-0.6074297428131104,-0.2355478554964065
2024-12-07 20:32:21.119748900,3.501748779296875,0.4598427712917328,-0.5900302529335022,-0.2381284534931183
2024-12-07 20:32:21.129762000,3.511761962890625,0.4814749956130981,-0.5424716472625732,-0.2266300469636917
2024-12-07 20:32:21.139776000,3.52177587890625,0.5158449411392212,-0.481710284948349,-0.2063870877027511
2024-12-07 20:32:21.149789700,3.531789794921875,0.5521402955055237,-0.4199167788028717,-0.1916750818490982
2024-12-07 20:32:21.159804000,3.541803955078125,0.5813791155815125,-0.3739828169345855,-0.1726193726062774
2024-12-07 20:32:21.169817000,3.551817138671875,0.6039012670516968,-0.360116571187973,-0.1442880034446716
2024-12-07 20:32:21.179830500,3.56183056640625,0.6268385052680969,-0.3989531993865967,-0.1096826270222663
2024-12-07 20:32:21.189844700,3.5718447265625,0.6584760546684265,-0.4547574818134308,-0.0749515369534492
2024-12-07 20:32:21.199858700,3.581858642578125,0.6973928213119507,-0.4864347279071808,-0.0377905890345573
2024-12-07 20:32:21.209872600,3.59187255859375,0.7429226636886597,-0.4788019955158233,0.0076955715194344
2024-12-07 20:32:21.219885600,3.601885498046875,0.7870155572891235,-0.4459364414215088,0.0434367880225181
2024-12-07 20:32:21.229899500,3.6118994140625,0.821063756942749,-0.4073023200035095,0.0656971186399459
2024-12-07 20:32:21.239913700,3.621913818359375,0.8352871537208557,-0.3762088418006897,0.0700737535953521
2024-12-07 20:32:21.249927400,3.631927490234375,0.8200613260269165,-0.340402603149414,0.0609004870057106
2024-12-07 20:32:21.259940600,3.641940673828125,0.7679837346076965,-0.2997137606143951,0.0498523600399494
2024-12-07 20:32:21.269954600,3.65195458984375,0.6761307716369629,-0.2714565396308899,0.0325364656746387
2024-12-07 20:32:21.279968800,3.66196875,0.5705966353416443,-0.2593194544315338,0.0291220247745513
2024-12-07 20:32:21.289982500,3.671982421875,0.4887926578521728,-0.3036663830280304,0.0333511345088481
2024-12-07 20:32:21.299995600,3.68199560546875,0.4472987651824951,-0.385167121887207,0.0251714996993541
2024-12-07 20:32:21.310009600,3.692009521484375,0.4404942989349365,-0.4829979240894317,-0.0019106524996459
2024-12-07 20:32:21.320023600,3.7020234375,0.4593603909015655,-0.6087183356285095,-0.0411643162369728
2024-12-07 20:32:21.330037500,3.71203759765625,0.5019872784614563,-0.708785355091095,-0.0853354483842849
2024-12-07 20:32:21.340051700,3.7220517578125,0.5436298251152039,-0.7363895177841187,-0.1177732795476913
2024-12-07 20:32:21.350064600,3.732064697265625,0.5778396725654602,-0.7139942646026611,-0.1381168514490127
2024-12-07 20:32:21.360078600,3.74207861328125,0.5887058973312378,-0.6291489005088806,-0.1635535061359405
2024-12-07 20:32:21.370092500,3.752092529296875,0.56672203540802,-0.5362871289253235,-0.2021214365959167
2024-12-07 20:32:21.380106800,3.762106689453125,0.527508020401001,-0.525865912437439,-0.2543223202228546
2024-12-07 20:32:21.390119700,3.77211962890625,0.4812784492969513,-0.6260105967521667,-0.2676232457160949
2024-12-07 20:32:21.400133600,3.782133544921875,0.4274722039699554,-0.7393874526023865,-0.2475360631942749
2024-12-07 20:32:21.410147600,3.792147705078125,0.3783710300922394,-0.8144491910934448,-0.2012438178062439
2024-12-07 20:32:21.420161800,3.802161865234375,0.3524579405784607,-0.8788702487945557,-0.1552174687385559
2024-12-07 20:32:21.430175500,3.812175537109375,0.3453487753868103,-0.8828516006469727,-0.1283664554357528
2024-12-07 20:32:21.440188700,3.822188720703125,0.352610170841217,-0.8329862952232361,-0.1373128145933151
2024-12-07 20:32:21.450202600,3.83220263671875,0.3547293543815613,-0.7029700875282288,-0.1854680478572845
2024-12-07 20:32:21.460216600,3.842216552734375,0.3302653133869171,-0.440393328666687,-0.2357354760169983
2024-12-07 20:32:21.470230500,3.85223046875,0.2600992619991302,-0.1422715783119201,-0.2727660536766052
2024-12-07 20:32:21.480243700,3.86224365234375,0.1869150698184967,0.02024488709867,-0.2885783016681671
2024-12-07 20:32:21.490257700,3.872257568359375,0.1166800111532211,0.021921306848526,-0.3049724400043487
2024-12-07 20:32:21.500271600,3.882271728515625,0.0597456246614456,-0.0103594018146395,-0.3384851217269897
2024-12-07 20:32:21.510285600,3.89228564453125,0.0036652674898505,-0.0472354926168918,-0.3834432363510132
2024-12-07 20:32:21.520298800,3.902298828125,-0.0506363213062286,-0.0997801944613456,-0.430372953414917
2024-12-07 20:32:21.530312400,3.9123125,-0.0897825732827186,-0.1450081467628479,-0.4762129783630371
2024-12-07 20:32:21.540326700,3.92232666015625,-0.1144218742847442,-0.1877577304840088,-0.5191354155540466
2024-12-07 20:32:21.550340600,3.932340576171875,-0.1399695724248886,-0.2013582289218902,-0.5535458326339722
2024-12-07 20:32:21.560354800,3.942354736328125,-0.1711863577365875,-0.1593535244464874,-0.5684060454368591
2024-12-07 20:32:21.570367500,3.952367431640625,-0.2133247554302215,-0.1209342628717422,-0.5718607902526855
2024-12-07 20:32:21.580381700,3.962381591796875,-0.2613413035869598,-0.1148097887635231,-0.5630680918693542
2024-12-07 20:32:21.590395600,3.972395751953125,-0.3052625358104706,-0.1059115752577781,-0.5370607972145081
2024-12-07 20:32:21.600409600,3.98240966796875,-0.3453606963157654,-0.0820509791374206,-0.5291738510131836
2024-12-07 20:32:21.610422500,3.992422607421875,-0.3882643282413482,-0.0998919084668159,-0.5755254030227661
2024-12-07 20:32:21.620436700,4.002436767578125,-0.431463211774826,-0.1545692533254623,-0.6467316746711731
2024-12-07 20:32:21.630450700,4.01245068359375,-0.4766846597194671,-0.2041942477226257,-0.7303484678268433
2024-12-07 20:32:21.640464600,4.022464599609375,-0.5175631046295166,-0.2594846487045288,-0.7986924052238464
2024-12-07 20:32:21.650477600,4.0324775390625,-0.5462431907653809,-0.3342687487602234,-0.7900787591934204
2024-12-07 20:32:21.660491800,4.04249169921875,-0.5187769532203674,-0.3826759457588196,-0.6799445152282715
2024-12-07 20:32:21.670505500,4.05250537109375,-0.4263263046741485,-0.4035201370716095,-0.5018930435180664
2024-12-07 20:32:21.680519700,4.062519775390625,-0.2959794700145721,-0.4339049458503723,-0.3060790598392486
2024-12-07 20:32:21.690533600,4.07253369140625,-0.1847852915525436,-0.4386012554168701,-0.164190873503685
2024-12-07 20:32:21.700546800,4.082546875,-0.1256162524223327,-0.4352395236492157,-0.1163988411426544
2024-12-07 20:32:21.710560500,4.092560546875,-0.1163339838385582,-0.4771584868431091,-0.1266060769557953
2024-12-07 20:32:21.720574700,4.10257470703125,-0.1283139437437057,-0.5180044174194336,-0.1015523970127105
2024-12-07 20:32:21.730588700,4.112588623046875,-0.1420167088508606,-0.4387010633945465,-0.0954090505838394
2024-12-07 20:32:21.740601600,4.1226015625,-0.1899868994951248,-0.2905909717082977,-0.1837588846683502
2024-12-07 20:32:21.750615600,4.132615478515625,-0.2682889103889465,-0.235687717795372,-0.3196848928928375
2024-12-07 20:32:21.760629800,4.142629638671875,-0.3355467915534973,-0.2245812714099884,-0.4004830718040466
2024-12-07 20:32:21.770643700,4.152643798828125,-0.3583334684371948,-0.1731455773115158,-0.3909618258476257
2024-12-07 20:32:21.780656600,4.16265673828125,-0.3584562242031097,-0.1255106776952743,-0.3672612905502319
2024-12-07 20:32:21.790670600,4.172670654296875,-0.3729642331600189,-0.0006476519629359,-0.356394350528717
2024-12-07 20:32:21.800684800,4.182684814453125,-0.3884265720844269,0.1912565380334854,-0.3653223216533661
2024-12-07 20:32:21.810698500,4.192698486328125,-0.404228538274765,0.3415975570678711,-0.3714255392551422
2024-12-07 20:32:21.820712400,4.20271240234375,-0.4138308465480804,0.4151671230792999,-0.3664488792419433
2024-12-07 20:32:21.830725600,4.2127255859375,-0.4008846879005432,0.4300272762775421,-0.3539522588253021
2024-12-07 20:32:21.840739800,4.22273974609375,-0.3739894032478332,0.4165447652339935,-0.3315934240818023
2024-12-07 20:32:21.850753500,4.23275341796875,-0.3482415378093719,0.386518657207489,-0.2994579672813415
2024-12-07 20:32:21.860767500,4.242767578125,-0.3225423097610473,0.3464298248291015,-0.2432892322540283
2024-12-07 20:32:21.870780700,4.25278076171875,-0.290438711643219,0.3083933591842651,-0.1639597117900848
2024-12-07 20:32:21.880794600,4.262794677734375,-0.2578315138816833,0.2713943421840668,-0.0747187882661819
2024-12-07 20:32:21.890808600,4.27280859375,-0.2280525267124176,0.2293694019317627,-0.0155373867601156
2024-12-07 20:32:21.900822500,4.282822509765625,-0.2068497687578201,0.199179545044899,-0.0100837647914886
2024-12-07 20:32:21.910836700,4.292836669921875,-0.1825030595064163,0.1918892860412597,-0.0462391711771488
2024-12-07 20:32:21.920849700,4.302849609375,-0.1659120917320251,0.2293983101844787,-0.1007522121071815
2024-12-07 20:32:21.930863600,4.312863525390625,-0.1477893739938736,0.2939977645874023,-0.1456092596054077
2024-12-07 20:32:21.940877600,4.322877685546875,-0.1368014365434646,0.3528144657611847,-0.1650005429983139
2024-12-07 20:32:21.950891800,4.332891845703125,-0.1332192569971084,0.4085355401039123,-0.1653302609920501
2024-12-07 20:32:21.960904700,4.34290478515625,-0.1272447258234024,0.4618608057498932,-0.1668575853109359
2024-12-07 20:32:21.970918700,4.352918701171875,-0.1222754567861557,0.498439073562622,-0.1714580655097961
2024-12-07 20:32:21.980932600,4.3629326171875,-0.1274944543838501,0.5032082200050354,-0.1627133041620254
2024-12-07 20:32:21.990946600,4.372946533203125,-0.1406694501638412,0.4686080813407898,-0.1316395998001098
2024-12-07 20:32:22.000959700,4.382959716796875,-0.1558092534542083,0.4163011908531189,-0.105869248509407
2024-12-07 20:32:22.010973700,4.3929736328125,-0.1699310392141342,0.3609201610088348,-0.0897174179553985
2024-12-07 20:32:22.020987400,4.4029873046875,-0.1820793151855468,0.2956276834011078,-0.062157429754734
2024-12-07 20:32:22.031001600,4.413001708984375,-0.1875590682029724,0.2434732615947723,-0.0429274551570415
2024-12-07 20:32:22.041015600,4.423015625,-0.1938877999782562,0.2077360451221466,-0.0376786291599273
2024-12-07 20:32:22.051028700,4.43302880859375,-0.1942552775144577,0.1966917961835861,-0.0505151562392711
2024-12-07 20:32:22.061042400,4.44304248046875,-0.1860538125038147,0.2052410840988159,-0.0869005918502807
2024-12-07 20:32:22.071056600,4.453056640625,-0.1735349148511886,0.2223079949617386,-0.1352271437644958
2024-12-07 20:32:22.081070600,4.463070556640625,-0.1557583212852478,0.2659537196159363,-0.1738312691450119
2024-12-07 20:32:22.091083500,4.47308349609375,-0.1131331175565719,0.3405861854553222,-0.205695167183876
2024-12-07 20:32:22.101097500,4.483097412109375,-0.052036739885807,0.4217934012413025,-0.2189252078533172
2024-12-07 20:32:22.111111700,4.493111572265625,0.0058033308014273,0.4712964594364166,-0.2047405391931533
2024-12-07 20:32:22.121125600,4.503125732421875,0.0283390004187822,0.4905058443546295,-0.1570388078689575
2024-12-07 20:32:22.131138600,4.513138671875,0.0267303120344877,0.4889263808727264,-0.1030471324920654
2024-12-07 20:32:22.141152500,4.523152587890625,0.003153613070026,0.4621967673301697,-0.065934382379055
2024-12-07 20:32:22.151166700,4.533166748046875,-0.0305897369980812,0.434713751077652,-0.0324817262589931
2024-12-07 20:32:22.161180700,4.5431806640625,-0.0696756169199943,0.4537169933319092,0.00118622276932
2024-12-07 20:32:22.171194600,4.553194580078125,-0.1096617430448532,0.4979118108749389,0.0182485915720462
2024-12-07 20:32:22.181208600,4.56320849609375,-0.1580910682678222,0.5346211194992065,0.0225357487797737
2024-12-07 20:32:22.191222500,4.573222412109375,-0.2229020595550537,0.5307166576385498,0.0047480859793722
2024-12-07 20:32:22.201236500,4.583236572265625,-0.2855595648288727,0.4695135056972503,-0.0508296862244606
2024-12-07 20:32:22.211250400,4.59325048828125,-0.343326210975647,0.3847169578075409,-0.1343616247177124
2024-12-07 20:32:22.221263400,4.603263427734375,-0.3863682150840759,0.3158798217773437,-0.2381806969642639
2024-12-07 20:32:22.231277600,4.613277587890625,-0.410025417804718,0.2624728083610534,-0.3456439077854156
2024-12-07 20:32:22.241291500,4.62329150390625,-0.4230778515338897,0.2367005795240402,-0.4233075380325317
2024-12-07 20:32:22.251305500,4.633305419921875,-0.4217121005058288,0.230810135602951,-0.4554355144500732
2024-12-07 20:32:22.261318400,4.643318359375,-0.4090154767036438,0.2496546655893325,-0.4550011456012726
2024-12-07 20:32:22.271332600,4.65333251953125,-0.3903678059577942,0.2812167108058929,-0.4334733784198761
2024-12-07 20:32:22.281346600,4.6633466796875,-0.3707413673400879,0.3081058263778686,-0.3997188806533813
2024-12-07 20:32:22.291360500,4.673360595703125,-0.3545126914978027,0.3205338418483734,-0.3470287024974823
2024-12-07 20:32:22.301374500,4.68337451171875,-0.3463783264160156,0.2829545140266418,-0.2832686305046081
2024-12-07 20:32:22.311387600,4.6933876953125,-0.3355596661567688,0.1828033030033111,-0.224740132689476
2024-12-07 20:32:22.321401600,4.703401611328125,-0.3269800245761871,0.0610102862119674,-0.1980400830507278
2024-12-07 20:32:22.331415300,4.713415283203125,-0.3122588694095611,-0.0261526349931955,-0.2021229416131973
2024-12-07 20:32:22.341429500,4.723429443359375,-0.2858773171901703,-0.0724032223224639,-0.2304672300815582
2024-12-07 20:32:22.351442700,4.733442626953125,-0.2527943849563598,-0.0776871517300605,-0.2747794687747955
2024-12-07 20:32:22.361456400,4.743456298828125,-0.2388665974140167,-0.0555568188428878,-0.3265659809112549
2024-12-07 20:32:22.371470300,4.75347021484375,-0.2382049858570099,-0.028721809387207,-0.3803725838661194
2024-12-07 20:32:22.381484500,4.763484619140625,-0.2542068362236023,0.0005167686613276,-0.430978775024414
2024-12-07 20:32:22.391498500,4.77349853515625,-0.2790666222572326,0.0259088352322578,-0.4771951138973236
2024-12-07 20:32:22.401511400,4.783511474609375,-0.3122488260269165,0.044219397008419,-0.5043444633483887
2024-12-07 20:32:22.411525400,4.793525390625,-0.3522700369358063,0.0623280331492424,-0.4976876676082611
2024-12-07 20:32:22.421539600,4.80353955078125,-0.3870980441570282,0.0918478369712829,-0.4489709734916687
2024-12-07 20:32:22.431553500,4.813553466796875,-0.3996817469596863,0.1384070962667465,-0.3623670935630798
2024-12-07 20:32:22.441566500,4.82356640625,-0.3946723341941833,0.2017708867788314,-0.2838499248027801
2024-12-07 20:32:22.451580400,4.833580322265625,-0.3916248679161072,0.2707665264606476,-0.2517007291316986
2024-12-07 20:32:22.461594600,4.8435947265625,-0.4035110771656036,0.3213093280792236,-0.2613893151283264
2024-12-07 20:32:22.471608300,4.8536083984375,-0.4117473363876343,0.3232112526893616,-0.2769190669059753
2024-12-07 20:32:22.481621500,4.86362158203125,-0.416617214679718,0.2913007140159607,-0.2720111310482025
2024-12-07 20:32:22.491635500,4.873635498046875,-0.4094610512256622,0.2638145983219147,-0.2489986419677734
2024-12-07 20:32:22.501649400,4.8836494140625,-0.3903637826442718,0.2770369052886963,-0.2187941521406173
2024-12-07 20:32:22.511663400,4.893663330078125,-0.3723234236240387,0.3211338222026825,-0.2127369344234466
2024-12-07 20:32:22.521676500,4.903676513671875,-0.3499142527580261,0.3593493998050689,-0.2213653028011322
2024-12-07 20:32:22.531690500,4.9136904296875,-0.3287616074085235,0.3454565405845642,-0.2191110849380493
2024-12-07 20:32:22.541704400,4.923704345703125,-0.32021364569664,0.3164530992507934,-0.1997547000646591
2024-12-07 20:32:22.551718400,4.933718505859375,-0.313000738620758,0.2936779856681824,-0.1805830150842666
2024-12-07 20:32:22.561732600,4.943732666015625,-0.3075242340564728,0.2865039706230163,-0.1701511442661285
2024-12-07 20:32:22.571745300,4.953745361328125,-0.3100241720676422,0.3060028851032257,-0.1638995110988617
2024-12-07 20:32:22.581759500,4.963759521484375,-0.3173393309116363,0.3509458601474762,-0.1460534036159515
2024-12-07 20:32:22.591773400,4.9737734375,-0.3144984245300293,0.4027685523033142,-0.123660072684288
2024-12-07 20:32:22.601787600,4.98378759765625,-0.3024497628211975,0.4472790062427521,-0.108750894665718
2024-12-07 20:32:22.611800300,4.99380029296875,-0.2834760546684265,0.4697187542915344,-0.1087572500109672
2024-12-07 20:32:22.621814500,5.003814453125,-0.263934314250946,0.4672108590602875,-0.1296207308769226
2024-12-07 20:32:22.631828500,5.013828369140625,-0.2374076247215271,0.4376217424869537,-0.1624187231063842
2024-12-07 20:32:22.641842700,5.0238427734375,-0.2141997814178466,0.3889532685279846,-0.1956922560930252
2024-12-07 20:32:22.651855400,5.03385546875,-0.1758373379707336,0.3119894862174988,-0.1894901245832443
2024-12-07 20:32:22.661869600,5.04386962890625,-0.1225030198693275,0.2217389345169067,-0.1593932062387466
2024-12-07 20:32:22.671883500,5.053883544921875,-0.0692592710256576,0.1348152756690979,-0.1429089158773422
2024-12-07 20:32:22.681897500,5.0638974609375,-0.0066715255379676,0.0630633234977722,-0.1756623387336731
2024-12-07 20:32:22.691911400,5.073911376953125,0.0579756386578083,0.0039385948330163,-0.2512384057044983
2024-12-07 20:32:22.701924600,5.083924560546875,0.1105973049998283,-0.0300569236278533,-0.3278599381446838
2024-12-07 20:32:22.711938300,5.093938232421875,0.137790635228157,-0.0360743515193462,-0.3900012969970703
2024-12-07 20:32:22.721952500,5.103952392578125,0.1485013365745544,-0.0224624034017324,-0.4245465099811554
2024-12-07 20:32:22.731966500,5.113966552734375,0.1351655125617981,0.0239484068006277,-0.3979361653327942
2024-12-07 20:32:22.741979600,5.123979736328125,0.0935783758759498,0.0997582152485847,-0.2307247966527938
2024-12-07 20:32:22.751993300,5.133993408203125,0.0208029728382825,0.254528135061264,0.1228785067796707
2024-12-07 20:32:22.762007600,5.144007568359375,-0.0137848313897848,0.4511309564113617,0.533260703086853
2024-12-07 20:32:22.772021500,5.154021484375,0.0036679306067526,0.6016860604286194,0.766581654548645
2024-12-07 20:32:22.782034400,5.164034423828125,0.0305123291909694,0.5985946655273438,0.7876967787742615
2024-12-07 20:32:22.792048400,5.17404833984375,0.0693330988287925,0.4824435114860534,0.7043578028678894
2024-12-07 20:32:22.802062600,5.1840625,0.1187765449285507,0.3176327347755432,0.5893763303756714
2024-12-07 20:32:22.812076500,5.19407666015625,0.1752405762672424,0.1873284727334976,0.4844100177288055
2024-12-07 20:32:22.822090500,5.204090576171875,0.2512597143650055,0.1666751354932785,0.4198976159095764
2024-12-07 20:32:22.832103400,5.214103515625,0.3294912278652191,0.2225505262613296,0.4265251755714416
2024-12-07 20:32:22.842117600,5.22411767578125,0.3906446099281311,0.2907814979553222,0.4964765608310699
2024-12-07 20:32:22.852131600,5.234131591796875,0.4302712976932525,0.3295726776123047,0.5946459770202637
2024-12-07 20:32:22.862145500,5.2441455078125,0.4589200019836426,0.3427606523036957,0.6970745921134949
2024-12-07 20:32:22.872158500,5.254158447265625,0.4762951731681824,0.3292405605316162,0.7977194786071777
2024-12-07 20:32:22.882172700,5.264172607421875,0.4996724128723144,0.2760431170463562,0.8933767676353455
2024-12-07 20:32:22.892186400,5.274186279296875,0.5155624747276306,0.2043801099061966,0.9857445359230042
2024-12-07 20:32:22.902200600,5.28420068359375,0.5309348106384277,0.1365240961313247,1.0722198486328125
2024-12-07 20:32:22.912213500,5.294213623046875,0.5476605296134949,0.0884361937642097,1.1428502798080444
2024-12-07 20:32:22.922227500,5.3042275390625,0.5734947919845581,0.0604157485067844,1.1908868551254272
2024-12-07 20:32:22.932241400,5.314241455078125,0.6118995547294617,0.0554035976529121,1.2223342657089231
2024-12-07 20:32:22.942255600,5.324255615234375,0.6447635293006897,0.112687662243843,1.2505011558532717
2024-12-07 20:32:22.952269600,5.33426953125,0.6743081212043762,0.2472605407238006,1.2965589761734009
2024-12-07 20:32:22.962282500,5.344282470703125,0.710110604763031,0.4305177330970764,1.3522475957870483
2024-12-07 20:32:22.972296400,5.35429638671875,0.7648758888244629,0.6200461983680725,1.4021846055984497
2024-12-07 20:32:22.982310700,5.364310546875,0.827491044998169,0.8000152111053467,1.4336559772491455
2024-12-07 20:32:22.992324600,5.37432470703125,0.8760050535202026,0.9608388543128968,1.426791071891785
2024-12-07 20:32:23.002337500,5.384337646484375,0.8986189961433411,1.0821765661239624,1.38506817817688
2024-12-07 20:32:23.012351500,5.3943515625,0.90627920627594,1.16920006275177,1.3309738636016846
2024-12-07 20:32:23.022365700,5.40436572265625,0.9092323780059814,1.219722867012024,1.2969671487808228
2024-12-07 20:32:23.032379400,5.41437939453125,0.9055553674697876,1.2251229286193848,1.270622968673706
2024-12-07 20:32:23.042392600,5.424392578125,0.899403989315033,1.2041015625,1.2250794172286987
2024-12-07 20:32:23.052406500,5.434406494140625,0.9007821679115297,1.1356228590011597,1.1274317502975464
2024-12-07 20:32:23.062420500,5.44442041015625,0.8939612507820129,1.016303300857544,0.9633644819259644
2024-12-07 20:32:23.072434400,5.454434326171875,0.874332845211029,0.9072493314743042,0.7497929334640503
2024-12-07 20:32:23.082448400,5.464448486328125,0.849597692489624,0.8090447187423706,0.5323621034622192
2024-12-07 20:32:23.092461600,5.474461669921875,0.8045644760131836,0.7138881087303162,0.3377916514873504
2024-12-07 20:32:23.102475500,5.4844755859375,0.746562123298645,0.58985835313797,0.1980484127998352
2024-12-07 20:32:23.112489500,5.494489501953125,0.6918385624885559,0.4019293487071991,0.1157199069857597
2024-12-07 20:32:23.122503400,5.50450341796875,0.6632598638534546,0.1602080464363098,0.0873761475086212
2024-12-07 20:32:23.132516400,5.514516357421875,0.6849128007888794,-0.0702800452709198,0.0882273390889167
2024-12-07 20:32:23.142530600,5.524530517578125,0.743213951587677,-0.2556025087833404,0.0797976329922676
2024-12-07 20:32:23.152544500,5.53454443359375,0.7830799221992493,-0.4112577438354492,0.0552176348865032
2024-12-07 20:32:23.162558500,5.544558349609375,0.7716914415359497,-0.564674437046051,0.0022361790761351
2024-12-07 20:32:23.172571400,5.5545712890625,0.7159783244132996,-0.7064322233200073,-0.0843929350376129
2024-12-07 20:32:23.182585600,5.564585693359375,0.6431890726089478,-0.8184106945991516,-0.1711619198322296
2024-12-07 20:32:23.192599300,5.574599365234375,0.5590110421180725,-0.9245862364768982,-0.2446167916059494
2024-12-07 20:32:23.202613200,5.58461328125,0.4712998270988464,-1.0149102210998535,-0.3038635849952698
2024-12-07 20:32:23.212627500,5.59462744140625,0.3829144835472107,-1.0627694129943848,-0.3535501062870025
2024-12-07 20:32:23.222640400,5.604640380859375,0.297184407711029,-1.076802372932434,-0.3879927694797516
2024-12-07 20:32:23.232654300,5.614654296875,0.2136462479829788,-1.0738052129745483,-0.4001761674880981
2024-12-07 20:32:23.242668300,5.624668212890625,0.137137621641159,-1.0571043491363523,-0.3742057979106903
2024-12-07 20:32:23.252682500,5.6346826171875,0.0861110910773277,-1.0297824144363403,-0.326764315366745
2024-12-07 20:32:23.262695400,5.6446953125,0.0529145188629627,-0.990974187850952,-0.2619136869907379
2024-12-07 20:32:23.272709400,5.65470947265625,0.0308984890580177,-0.9314995408058168,-0.1883283108472824
2024-12-07 20:32:23.282723300,5.664723388671875,0.0112209245562553,-0.8714393973350525,-0.1302615404129028
2024-12-07 20:32:23.292737500,5.674737548828125,3.30284237861e-05,-0.7907841801643372,-0.0759714543819427
2024-12-07 20:32:23.302750500,5.68475048828125,0.0028658329974859,-0.6745462417602539,-0.023380946367979
2024-12-07 20:32:23.312764400,5.694764404296875,0.0304621756076812,-0.5262567400932312,0.0425692349672317
2024-12-07 20:32:23.322778400,5.7047783203125,0.0959564968943595,-0.413344532251358,0.1092694401741027
2024-12-07 20:32:23.332792300,5.714792236328125,0.2007080763578415,-0.3442668616771698,0.1714157164096832
2024-12-07 20:32:23.342806300,5.72480615234375,0.3383666276931762,-0.3341553807258606,0.200679063796997
2024-12-07 20:32:23.352819500,5.7348193359375,0.4842646420001983,-0.3326828777790069,0.191022127866745
2024-12-07 20:32:23.362833200,5.744833251953125,0.6128143668174744,-0.3010219037532806,0.169531762599945
2024-12-07 20:32:23.372847400,5.754847412109375,0.6561411619186401,-0.3000974953174591,0.1699169725179672
2024-12-07 20:32:23.382861300,5.764861328125,0.5616423487663269,-0.3623912334442138,0.2058563232421875
2024-12-07 20:32:23.392874500,5.77487451171875,0.4192749559879303,-0.4469978213310241,0.253846675157547
2024-12-07 20:32:23.402888200,5.78488818359375,0.3016819953918457,-0.5168547034263611,0.2657118737697601
2024-12-07 20:32:23.412902400,5.79490234375,0.2122761756181717,-0.5731568336486816,0.2251841276884079
2024-12-07 20:32:23.422916400,5.804916259765625,0.1394863873720169,-0.6087616682052612,0.1366816908121109
2024-12-07 20:32:23.432929300,5.81492919921875,0.0675692409276962,-0.6052938103675842,0.0129272108897566
2024-12-07 20:32:23.442943200,5.824943115234375,-0.0051244050264358,-0.5607293248176575,-0.1011144071817398
2024-12-07 20:32:23.452957400,5.83495751953125,-0.0783473998308181,-0.5231437683105469,-0.1599975973367691
2024-12-07 20:32:23.462971400,5.844971435546875,-0.1422768533229828,-0.5896642208099365,-0.2008795142173767
2024-12-07 20:32:23.472985300,5.8549853515625,-0.1980669796466827,-0.6870760321617126,-0.2518225908279419
2024-12-07 20:32:23.482998300,5.864998291015625,-0.2316070944070816,-0.7151135206222534,-0.2925958335399627
2024-12-07 20:32:23.493012500,5.875012451171875,-0.2499793469905853,-0.6973000764846802,-0.3162842988967895
2024-12-07 20:32:23.503026400,5.8850263671875,-0.2648126184940338,-0.6656161546707153,-0.3430884778499603
2024-12-07 20:32:23.513040400,5.895040283203125,-0.2863270938396454,-0.6320163011550903,-0.3921275734901428
2024-12-07 20:32:23.523053300,5.90505322265625,-0.3038589358329773,-0.5940257906913757,-0.4503743648529053
2024-12-07 20:32:23.533067500,5.915067626953125,-0.306708812713623,-0.579693615436554,-0.4758699834346771
2024-12-07 20:32:23.543081200,5.925081298828125,-0.2991526126861572,-0.6111146211624146,-0.4593375921249389
2024-12-07 20:32:23.553095400,5.935095458984375,-0.2880200743675232,-0.6364720463752747,-0.4319825768470764
2024-12-07 20:32:23.563108400,5.9451083984375,-0.2864469289779663,-0.6240934133529663,-0.4088391959667206
2024-12-07 20:32:23.573122300,5.955122314453125,-0.2811320722103119,-0.5916573405265808,-0.39956134557724
2024-12-07 20:32:23.583136300,5.96513623046875,-0.2714187204837799,-0.5596101880073547,-0.396526426076889
2024-12-07 20:32:23.593150500,5.975150390625,-0.2470173686742782,-0.5572757124900818,-0.3930792808532715
2024-12-07 20:32:23.603164400,5.985164306640625,-0.199216827750206,-0.5100477337837219,-0.4042206108570099
2024-12-07 20:32:23.613177300,5.99517724609375,-0.1182316914200782,-0.4535299837589264,-0.4107524752616882
2024-12-07 20:32:23.623191300,6.00519140625,0.0078556658700108,-0.4312563836574554,-0.3620347380638122
2024-12-07 20:32:23.633205500,6.01520556640625,0.1757762134075164,-0.4102606475353241,-0.2902784049510956
2024-12-07 20:32:23.643219500,6.025219482421875,0.3434280753135681,-0.2828728854656219,-0.2343171089887619
2024-12-07 20:32:23.653232400,6.035232421875,0.4738571047782898,-0.0829265043139457,-0.1579143106937408
2024-12-07 20:32:23.663246300,6.045246337890625,0.4981105029582977,-0.0299676824361085,-0.1249787360429763
2024-12-07 20:32:23.673260500,6.055260498046875,0.3570370972156524,-0.1552157998085022,-0.188264787197113
2024-12-07 20:32:23.683274200,6.065274169921875,0.1451988667249679,-0.2923826873302459,-0.2713223993778229
2024-12-07 20:32:23.693287400,6.075287353515625,-0.0289803799241781,-0.3648400604724884,-0.3174307942390442
2024-12-07 20:32:23.703301400,6.08530126953125,-0.1649262309074401,-0.3521445095539093,-0.3362255096435547
2024-12-07 20:32:23.713315600,6.095315673828125,-0.3058817386627197,-0.2025697380304336,-0.3178882896900177
2024-12-07 20:32:23.723329300,6.105329345703125,-0.419611245393753,-0.0353866033256053,-0.3324773609638214
2024-12-07 20:32:23.733342500,6.115342529296875,-0.4743813574314117,0.1256585121154785,-0.3689349889755249
2024-12-07 20:32:23.743356400,6.1253564453125,-0.4912290573120117,0.2248444706201553,-0.3779529929161072
2024-12-07 20:32:23.753370400,6.135370361328125,-0.492942065000534,0.2424659878015518,-0.3612602651119232
2024-12-07 20:32:23.763384300,6.14538427734375,-0.4637149274349212,0.249047189950943,-0.3572945594787597
2024-12-07 20:32:23.773398300,6.155398193359375,-0.4206212759017944,0.2940376400947571,-0.3706596791744232
2024-12-07 20:32:23.783411200,6.1654111328125,-0.4018489122390747,0.3559484183788299,-0.3859014809131622
2024-12-07 20:32:23.793425400,6.17542529296875,-0.3960752487182617,0.3791860938072204,-0.3801105320453644
2024-12-07 20:32:23.803439400,6.185439453125,-0.3852359354496002,0.3724368512630462,-0.3522884845733642
2024-12-07 20:32:23.813453300,6.195453369140625,-0.3664667010307312,0.3922562301158905,-0.3080337643623352
2024-12-07 20:32:23.823466200,6.20546630859375,-0.3504089117050171,0.4561041891574859,-0.2741495668888092
2024-12-07 20:32:23.833480400,6.21548046875,-0.3422600924968719,0.5274398922920227,-0.2588369250297546
2024-12-07 20:32:23.843494400,6.225494384765625,-0.3384416401386261,0.5702568888664246,-0.2679036557674408
2024-12-07 20:32:23.853508400,6.23550830078125,-0.3338142037391662,0.5854049324989319,-0.2903490960597992
2024-12-07 20:32:23.863521300,6.245521240234375,-0.3208592534065246,0.5852323770523071,-0.3059272468090057
2024-12-07 20:32:23.873535500,6.255535400390625,-0.3013841807842254,0.5763412117958069,-0.3026824295520782
2024-12-07 20:32:23.883549400,6.265549560546875,-0.2626250684261322,0.5560359358787537,-0.2910676002502441
2024-12-07 20:32:23.893563400,6.2755634765625,-0.2094739526510238,0.522110104560852,-0.2740394473075866
2024-12-07 20:32:23.903577300,6.285577392578125,-0.1580621600151062,0.4938411712646484,-0.2529234886169433
2024-12-07 20:32:23.913590500,6.295590576171875,-0.1220743283629417,0.5045523047447205,-0.2385046780109405
2024-12-07 20:32:23.923604500,6.3056044921875,-0.1022758558392524,0.525000810623169,-0.221231147646904
2024-12-07 20:32:23.933618400,6.315618408203125,-0.0933334082365036,0.5137120485305786,-0.1928597688674926
2024-12-07 20:32:23.943632400,6.32563232421875,-0.0773856043815612,0.4482265412807464,-0.1602906286716461
2024-12-07 20:32:23.953645600,6.3356455078125,-0.0613424107432365,0.344900906085968,-0.145200490951538
2024-12-07 20:32:23.963659300,6.3456591796875,-0.0589330531656742,0.2298004180192947,-0.1499214768409729
2024-12-07 20:32:23.973673200,6.355673095703125,-0.077066995203495,0.1389559209346771,-0.1631748974323272
2024-12-07 20:32:23.983687400,6.3656875,-0.1039582639932632,0.0993517935276031,-0.1799608021974563
2024-12-07 20:32:23.993700400,6.375700439453125,-0.131444364786148,0.0757565945386886,-0.1841445863246917
2024-12-07 20:32:24.003714300,6.38571435546875,-0.1724948585033416,0.0236142948269844,-0.1532780230045318
2024-12-07 20:32:24.013728300,6.395728271484375,-0.2098200768232345,-0.1085949465632438,-0.1040465012192726
2024-12-07 20:32:24.023742500,6.405742431640625,-0.2252837121486663,-0.3311768770217895,-0.0991303026676178
2024-12-07 20:32:24.033756200,6.415756103515625,-0.223820224404335,-0.5352981686592102,-0.1484406888484954
2024-12-07 20:32:24.043769300,6.425769287109375,-0.1988024860620498,-0.6016851663589478,-0.2343670576810836
2024-12-07 20:32:24.053783300,6.435783203125,-0.163354754447937,-0.5337468385696411,-0.3418202996253967
2024-12-07 20:32:24.063797500,6.445797607421875,-0.1128987595438957,-0.3528833091259002,-0.4483235478401184
2024-12-07 20:32:24.073811200,6.455811279296875,-0.0381649658083915,-0.0815021693706512,-0.531669557094574
2024-12-07 20:32:24.083824400,6.465824462890625,0.0237828232347965,0.2100202143192291,-0.5685229301452637
2024-12-07 20:32:24.093838300,6.47583837890625,0.0654972940683364,0.4095894992351532,-0.5532723069190979
2024-12-07 20:32:24.103852300,6.485852294921875,0.1047205999493599,0.5203173160552979,-0.51582932472229
2024-12-07 20:32:24.113866200,6.4958662109375,0.1377395391464233,0.5530886054039001,-0.4576880037784576
2024-12-07 20:32:24.123879400,6.50587939453125,0.1469136029481887,0.5044928193092346,-0.3751127123832702
2024-12-07 20:32:24.133893400,6.515893310546875,0.1266200840473175,0.3468741774559021,-0.2547355890274048
2024-12-07 20:32:24.143907300,6.5259072265625,0.0815729722380638,0.2080742418766021,-0.1279598027467727
2024-12-07 20:32:24.153921300,6.53592138671875,0.0302571468055248,0.1994294375181198,-0.0254094861447811
2024-12-07 20:32:24.163934500,6.5459345703125,-0.0194502212107181,0.2795567512512207,0.038119688630104
2024-12-07 20:32:24.173948200,6.5559482421875,-0.0701123774051666,0.3633852303028106,0.0647739842534065
2024-12-07 20:32:24.183962600,6.565962646484375,-0.1254392862319946,0.4003635048866272,0.0439334213733673
2024-12-07 20:32:24.193976300,6.575976318359375,-0.1769092231988906,0.4027650952339172,-0.0181185901165008
2024-12-07 20:32:24.203990500,6.585990478515625,-0.2243073582649231,0.3758285343647003,-0.097544178366661
2024-12-07 20:32:24.214003500,6.59600341796875,-0.2559942901134491,0.3150527775287628,-0.1709721684455871
2024-12-07 20:32:24.224017400,6.606017333984375,-0.2728462517261505,0.2341355681419372,-0.2346888184547424
2024-12-07 20:32:24.234031400,6.61603125,-0.2735014855861664,0.1526613384485244,-0.2923249006271362
2024-12-07 20:32:24.244045600,6.626045654296875,-0.2635319232940674,0.0768233090639114,-0.3288158178329468
2024-12-07 20:32:24.254058500,6.63605859375,-0.2580665051937103,0.0209242310374975,-0.3280581831932068
2024-12-07 20:32:24.264072400,6.646072509765625,-0.2488136142492294,-0.0375710353255271,-0.3028167486190796
2024-12-07 20:32:24.274086400,6.65608642578125,-0.2360532283782959,-0.0888226255774498,-0.2609632611274719
2024-12-07 20:32:24.284100600,6.6661005859375,-0.2286781370639801,-0.1175892949104309,-0.2172972857952118
2024-12-07 20:32:24.294113300,6.67611328125,-0.2252513617277145,-0.1296474784612655,-0.1886510252952575
2024-12-07 20:32:24.304127500,6.68612744140625,-0.2360936254262924,-0.1198904514312744,-0.1740161478519439
2024-12-07 20:32:24.314141400,6.696141357421875,-0.2464266866445541,-0.1446196138858795,-0.1733801066875457
2024-12-07 20:32:24.324155600,6.70615576171875,-0.2636378705501556,-0.1806079745292663,-0.1849121302366256
2024-12-07 20:32:24.334169300,6.71616943359375,-0.2855541706085205,-0.2070892602205276,-0.2124096304178238
2024-12-07 20:32:24.344182500,6.7261826171875,-0.2972062826156616,-0.1875786632299423,-0.242262601852417
2024-12-07 20:32:24.354196500,6.736196533203125,-0.2967861890792846,-0.102904237806797,-0.2768898010253906
2024-12-07 20:32:24.364210700,6.746210693359375,-0.2981670498847961,0.0153044275939464,-0.3190998435020447
2024-12-07 20:32:24.374224400,6.756224365234375,-0.3068146407604217,0.1181846410036087,-0.3630716800689697
2024-12-07 20:32:24.384237600,6.766237548828125,-0.3168486058712005,0.1863924711942672,-0.3874923288822174
2024-12-07 20:32:24.394251500,6.77625146484375,-0.3311197161674499,0.2116549462080001,-0.3784408867359161
2024-12-07 20:32:24.404265500,6.786265380859375,-0.3483394682407379,0.1967710703611374,-0.3260314762592315
2024-12-07 20:32:24.414279400,6.796279541015625,-0.3546019494533539,0.1566133201122284,-0.2500320971012115
2024-12-07 20:32:24.424292600,6.806292724609375,-0.3538882136344909,0.1267100274562835,-0.1962354630231857
2024-12-07 20:32:24.434306300,6.816306396484375,-0.3496205806732178,0.1242612078785896,-0.1764783412218094
2024-12-07 20:32:24.444320500,6.826320556640625,-0.3454473912715912,0.1469089984893798,-0.1789787858724594
2024-12-07 20:32:24.454334500,6.83633447265625,-0.3372044265270233,0.1801298707723617,-0.1884599775075912
2024-12-07 20:32:24.464347600,6.84634765625,-0.3240412175655365,0.2218869030475616,-0.1935314238071441
2024-12-07 20:32:24.474361300,6.856361328125,-0.3135427236557007,0.2706490457057953,-0.2038551121950149
2024-12-07 20:32:24.484375600,6.86637548828125,-0.3044123351573944,0.3252478539943695,-0.2184154093265533
2024-12-07 20:32:24.494389500,6.876389404296875,-0.3001390695571899,0.3734284341335296,-0.2321613430976867
2024-12-07 20:32:24.504403700,6.88640380859375,-0.3018363118171692,0.4008922874927521,-0.2345605939626693
2024-12-07 20:32:24.514416400,6.89641650390625,-0.3059471249580383,0.4054260849952698,-0.2324508428573608
2024-12-07 20:32:24.524430600,6.9064306640625,-0.3077093362808227,0.3981801569461822,-0.2464878410100937
2024-12-07 20:32:24.534444500,6.916444580078125,-0.3129074573516845,0.3936759233474731,-0.2773949801921844
2024-12-07 20:32:24.544458500,6.92645849609375,-0.3257878124713897,0.4154565930366516,-0.3140627145767212
2024-12-07 20:32:24.554471400,6.936471435546875,-0.3394988775253296,0.4835360050201416,-0.3424932956695556
2024-12-07 20:32:24.564485600,6.946485595703125,-0.3515720665454864,0.5738027691841125,-0.361293077468872
2024-12-07 20:32:24.574499600,6.95649951171875,-0.3678620755672455,0.6722842454910278,-0.366985559463501
2024-12-07 20:32:24.584513500,6.966513427734375,-0.3789690434932709,0.7581014633178711,-0.3459503054618835
2024-12-07 20:32:24.594526500,6.9765263671875,-0.3864678740501404,0.7968682050704956,-0.2901257276535034
2024-12-07 20:32:24.604540700,6.986540771484375,-0.3838529288768768,0.7686339020729065,-0.2186574041843414
2024-12-07 20:32:24.614554400,6.996554443359375,-0.3657557070255279,0.6837198734283447,-0.1653058230876922
2024-12-07 20:32:24.624568600,7.006568603515625,-0.3475375473499298,0.576912522315979,-0.1449957638978958
2024-12-07 20:32:24.634582500,7.01658251953125,-0.3295835852622986,0.4675618410110473,-0.1311639994382858
2024-12-07 20:32:24.644595500,7.026595458984375,-0.3082476556301117,0.3717650175094604,-0.1080469563603401
2024-12-07 20:32:24.654609400,7.036609375,-0.274979293346405,0.2981441020965576,-0.0793136283755302
2024-12-07 20:32:24.664623600,7.04662353515625,-0.2304168790578842,0.245774358510971,-0.0576706528663635
2024-12-07 20:32:24.674637600,7.056637451171875,-0.1821272373199463,0.179543912410736,-0.0734816864132881
2024-12-07 20:32:24.684650500,7.066650390625,-0.1427526623010635,0.0841311141848564,-0.1281931400299072
2024-12-07 20:32:24.694664400,7.07666455078125,-0.1153886914253234,-0.0249495711177587,-0.1956890970468521
2024-12-07 20:32:24.704678700,7.0866787109375,-0.1008363738656044,-0.1284445375204086,-0.2521536946296692
2024-12-07 20:32:24.714692600,7.096692626953125,-0.0873238518834114,-0.209630399942398,-0.2906655669212341
2024-12-07 20:32:24.724705500,7.10670556640625,-0.0740115046501159,-0.2292304784059524,-0.3020441830158233
2024-12-07 20:32:24.734719500,7.116719482421875,-0.0711124837398529,-0.1717146337032318,-0.2823180556297302
2024-12-07 20:32:24.744733700,7.126733642578125,-0.0646362081170082,-0.0710301101207733,-0.2176272124052047
2024-12-07 20:32:24.754747400,7.136747314453125,-0.0637755617499351,0.0421846695244312,-0.1318376362323761
2024-12-07 20:32:24.764760600,7.146760498046875,-0.0793151035904884,0.1312751322984695,-0.0371984764933586
2024-12-07 20:32:24.774774500,7.1567744140625,-0.1082404926419258,0.1469931155443191,0.0673343241214752
2024-12-07 20:32:24.784788700,7.166788818359375,-0.1332917809486389,0.1243112310767173,0.1909207105636596
2024-12-07 20:32:24.794802400,7.176802490234375,-0.1418525725603103,0.1576613634824752,0.3019354343414306
2024-12-07 20:32:24.804816400,7.18681640625,-0.1142571493983268,0.2110926359891891,0.3689046204090118
2024-12-07 20:32:24.814829600,7.19682958984375,-0.0644114762544632,0.2261611521244049,0.3928413391113281
2024-12-07 20:32:24.824843500,7.206843505859375,-0.0045473398640751,0.2140451073646545,0.3854020535945892
2024-12-07 20:32:24.834857500,7.216857421875,0.0650543719530105,0.1878281980752945,0.3603121340274811
2024-12-07 20:32:24.844871400,7.226871337890625,0.1293907463550567,0.1700356155633926,0.3304013609886169
2024-12-07 20:32:24.854884400,7.23688427734375,0.1716974526643753,0.1633955538272857,0.3102976977825165
2024-12-07 20:32:24.864898600,7.246898681640625,0.1768333613872528,0.1741315573453903,0.3121898770332336
2024-12-07 20:32:24.874912500,7.25691259765625,0.1501764208078384,0.1812488138675689,0.3429688215255737
2024-12-07 20:32:24.884926500,7.266926513671875,0.1089269742369651,0.1665455102920532,0.4084069430828094
2024-12-07 20:32:24.894939400,7.276939453125,0.0720841288566589,0.1340867727994918,0.4955554902553558
2024-12-07 20:32:24.904953600,7.28695361328125,0.0448804758489131,0.0838555619120597,0.5767003893852234
2024-12-07 20:32:24.914967600,7.296967529296875,0.0332947559654712,-0.015544032678008,0.6423956155776978
2024-12-07 20:32:24.924981500,7.3069814453125,0.032070767134428,-0.1671897619962692,0.6944878101348877
2024-12-07 20:32:24.934994400,7.316994384765625,0.0495957396924495,-0.3358451724052429,0.7214831113815308
2024-12-07 20:32:24.945008600,7.327008544921875,0.0905908420681953,-0.4554735720157623,0.7227771878242493
2024-12-07 20:32:24.955022600,7.337022705078125,0.1402873396873474,-0.5272271037101746,0.7126011848449707
2024-12-07 20:32:24.965036300,7.347036376953125,0.1841842234134674,-0.5533095598220825,0.7073616981506348
2024-12-07 20:32:24.975050500,7.357050537109375,0.2234619408845901,-0.5292044281959534,0.7208775877952576
2024-12-07 20:32:24.985063700,7.367063720703125,0.2666413486003876,-0.4476451277732849,0.76239413022995
2024-12-07 20:32:24.995077600,7.37707763671875,0.3198172152042389,-0.3432787954807281,0.8311190009117126
2024-12-07 20:32:25.005091300,7.38709130859375,0.376296728849411,-0.2321887612342834,0.9269193410873412
2024-12-07 20:32:25.015105500,7.39710546875,0.429567813873291,-0.1087785735726356,1.0434523820877075
2024-12-07 20:32:25.025118500,7.407118408203125,0.4767283797264099,0.020839599892497,1.1624157428741455
2024-12-07 20:32:25.035132400,7.41713232421875,0.5315547585487366,0.1423088014125824,1.2681207656860352
2024-12-07 20:32:25.045146400,7.427146484375,0.5847809314727783,0.2424692213535308,1.343527913093567
2024-12-07 20:32:25.055160600,7.43716064453125,0.6349244713783264,0.3110487163066864,1.3740382194519043
2024-12-07 20:32:25.065173500,7.447173583984375,0.6929134726524353,0.4039594829082489,1.3540713787078855
2024-12-07 20:32:25.075187500,7.4571875,0.7554996609687805,0.5664022564888,1.2974869012832642
2024-12-07 20:32:25.085201400,7.467201416015625,0.8207758665084839,0.7800008654594421,1.2189066410064695
2024-12-07 20:32:25.095215600,7.477215576171875,0.8895754814147949,0.9969541430473328,1.1540929079055786
2024-12-07 20:32:25.105228500,7.487228515625,0.9508439302444458,1.1305230855941772,1.116011619567871
2024-12-07 20:32:25.115242500,7.497242431640625,0.995840311050415,1.1343863010406494,1.0824193954467771
2024-12-07 20:32:25.125256400,7.50725634765625,1.0174598693847656,1.0427289009094238,1.0270307064056396
2024-12-07 20:32:25.135270700,7.517270751953125,1.0257608890533447,0.931183934211731,0.9365954995155334
2024-12-07 20:32:25.145284400,7.527284423828125,1.0287257432937622,0.8343641757965088,0.8172997236251831
2024-12-07 20:32:25.155297500,7.537297607421875,1.0240845680236816,0.7471425533294678,0.66831374168396
2024-12-07 20:32:25.165311500,7.5473115234375,0.9812495112419128,0.64349764585495,0.5029170513153076
2024-12-07 20:32:25.175325400,7.557325439453125,0.888836681842804,0.5253344178199768,0.339944452047348
2024-12-07 20:32:25.185339400,7.56733935546875,0.7687259912490845,0.3944898545742035,0.2105944603681564
2024-12-07 20:32:25.195352300,7.577352294921875,0.6613575220108032,0.2572596669197082,0.1202656030654907
2024-12-07 20:32:25.205366300,7.5873662109375,0.6073073744773865,0.086066611111164,0.0516292825341224
2024-12-07 20:32:25.215380500,7.59738037109375,0.6225923299789429,-0.0960559621453285,-0.0124727878719568
2024-12-07 20:32:25.225394400,7.60739453125,0.6863747835159302,-0.2174819856882095,-0.0625687092542648
2024-12-07 20:32:25.235407400,7.617407470703125,0.7599649429321289,-0.3118301033973694,-0.1136993914842605
2024-12-07 20:32:25.245421300,7.62742138671875,0.8166298270225525,-0.4617394208908081,-0.1794408410787582
2024-12-07 20:32:25.255435500,7.637435546875,0.8259010910987854,-0.7028008103370667,-0.2646723985671997
2024-12-07 20:32:25.265449200,7.64744921875,0.7855827212333679,-0.975113570690155,-0.3493742346763611
2024-12-07 20:32:25.275462400,7.65746240234375,0.7107933759689331,-1.2238250970840454,-0.4152429103851318
2024-12-07 20:32:25.285476400,7.667476318359375,0.6216909289360046,-1.393038034439087,-0.4461792409420013
2024-12-07 20:32:25.295490300,7.677490234375,0.5220630764961243,-1.4572585821151731,-0.4236089289188385
2024-12-07 20:32:25.305504300,7.687504150390625,0.4225359261035919,-1.4551658630371094,-0.3685661852359772
2024-12-07 20:32:25.315518500,7.6975185546875,0.3463078141212463,-1.4296741485595703,-0.296953409910202
2024-12-07 20:32:25.325531400,7.707531494140625,0.2901673018932342,-1.3844300508499146,-0.2103287726640701
2024-12-07 20:32:25.335545300,7.71754541015625,0.2557343244552612,-1.3018025159835815,-0.117841936647892
2024-12-07 20:32:25.345559300,7.727559326171875,0.2368498295545578,-1.1848697662353516,-0.0294801164418458
2024-12-07 20:32:25.355573500,7.737573486328125,0.2256468087434768,-1.044675588607788,0.0498260185122489
2024-12-07 20:32:25.365586200,7.747586181640625,0.2174077779054641,-0.8885073065757751,0.1218080669641494
2024-12-07 20:32:25.375600400,7.757600341796875,0.2247333377599716,-0.7428551912307739,0.194802239537239
2024-12-07 20:32:25.385614300,7.7676142578125,0.2636224031448364,-0.633691668510437,0.2540258765220642
2024-12-07 20:32:25.395628500,7.777628662109375,0.3257802128791809,-0.5511360168457031,0.2947904765605926
2024-12-07 20:32:25.405641200,7.78764111328125,0.4019908308982849,-0.482990562915802,0.3062939941883087
2024-12-07 20:32:25.415655400,7.797655517578125,0.4661792516708374,-0.38880655169487,0.3046280741691589
2024-12-07 20:32:25.425669400,7.80766943359375,0.4754403829574585,-0.3051635921001434,0.3093607723712921
2024-12-07 20:32:25.435683600,7.81768359375,0.4242131114006042,-0.2789886891841888,0.322079986333847
2024-12-07 20:32:25.445696300,7.8276962890625,0.3383048474788666,-0.2701912224292755,0.3174644708633423
2024-12-07 20:32:25.455710500,7.83771044921875,0.257731944322586,-0.2730562388896942,0.2717835009098053
2024-12-07 20:32:25.465724400,7.847724365234375,0.1892391592264175,-0.3035126626491546,0.180496484041214
2024-12-07 20:32:25.475738400,7.85773828125,0.1409072279930114,-0.3164145350456238,0.0576761178672313
2024-12-07 20:32:25.485752300,7.86775244140625,0.086795262992382,-0.2882867455482483,-0.041553795337677
2024-12-07 20:32:25.495765500,7.877765625,0.0192406792193651,-0.2729437053203583,-0.0982869863510131
2024-12-07 20:32:25.505779200,7.887779296875,-0.0640648603439331,-0.2923650741577148,-0.1297977715730667
2024-12-07 20:32:25.515793400,7.89779345703125,-0.1373679339885711,-0.3438134491443634,-0.1417015492916107
2024-12-07 20:32:25.525807400,7.907807373046875,-0.1543338596820831,-0.4060302078723907,-0.1509563028812408
2024-12-07 20:32:25.535820500,7.917820556640625,-0.1172590181231498,-0.4800885021686554,-0.1651238650083542
2024-12-07 20:32:25.545834200,7.927834228515625,-0.0393959134817123,-0.5489240288734436,-0.2027231752872467
2024-12-07 20:32:25.555848400,7.937848388671875,0.0313272178173065,-0.588766872882843,-0.274137943983078
2024-12-07 20:32:25.565862400,7.9478623046875,0.0638942122459411,-0.6421182155609131,-0.3681163787841797
2024-12-07 20:32:25.575875300,7.957875244140625,0.0865989029407501,-0.7334935665130615,-0.4462518393993377
2024-12-07 20:32:25.585889300,7.96788916015625,0.1117218360304832,-0.8160081505775452,-0.466299831867218
2024-12-07 20:32:25.595903500,7.977903564453125,0.1329996436834335,-0.8443585634231567,-0.4500186443328857
2024-12-07 20:32:25.605917400,7.98791748046875,0.1302997320890426,-0.813176691532135,-0.4280462265014648
2024-12-07 20:32:25.615930400,7.997930419921875,0.0931903570890426,-0.7688463926315308,-0.4441718459129333
2024-12-07 20:32:25.625944300,8.0079443359375,0.0434877797961235,-0.7688882350921631,-0.5244107246398926
2024-12-07 20:32:25.635958500,8.01795849609375,-0.0127327963709831,-0.6830931901931763,-0.6492803692817688
2024-12-07 20:32:25.645972500,8.027972412109374,-0.0602286718785762,-0.429787665605545,-0.866469144821167
2024-12-07 20:32:25.655986400,8.037986328125,-0.1001441329717636,-0.2745678424835205,-1.0828421115875244
2024-12-07 20:32:25.665999400,8.047999267578126,-0.1734519004821777,-0.4377176165580749,-1.1380525827407837
2024-12-07 20:32:25.676013600,8.058013671875,-0.3230907022953033,-0.606544017791748,-0.9925044775009156
2024-12-07 20:32:25.686027300,8.06802734375,-0.475730836391449,-0.5141972899436951,-0.7112751603126526
2024-12-07 20:32:25.696041500,8.07804150390625,-0.4743528664112091,-0.2848724722862243,-0.2977965474128723
2024-12-07 20:32:25.706054400,8.088054443359376,-0.2685059607028961,-0.2013219147920608,0.0076632453128695
2024-12-07 20:32:25.716068400,8.098068359375,0.0147386053577065,-0.1037645414471626,0.012914365157485
2024-12-07 20:32:25.726082300,8.108082275390625,0.1196692809462547,0.0245995596051216,-0.1094168722629547
2024-12-07 20:32:25.736096300,8.11809619140625,-0.0318008884787559,-0.0714006349444389,-0.2141505181789398
2024-12-07 20:32:25.746109400,8.128109375,-0.2635334432125091,-0.2623964250087738,-0.2454195022583007
2024-12-07 20:32:25.756123400,8.138123291015624,-0.4279847741127014,-0.3529689013957977,-0.2280041575431823
2024-12-07 20:32:25.766137300,8.148137451171875,-0.5142184495925903,-0.2616810500621795,-0.2249891906976699
2024-12-07 20:32:25.776151300,8.1581513671875,-0.5499083399772644,-0.0327674224972724,-0.2798793613910675
2024-12-07 20:32:25.786164200,8.168164306640625,-0.5564833879470825,0.2378645986318588,-0.3677815198898315
2024-12-07 20:32:25.796178400,8.178178466796876,-0.5300703644752502,0.4538319110870361,-0.4176125526428222
2024-12-07 20:32:25.806192400,8.1881923828125,-0.4669877886772156,0.5814990997314453,-0.4149595201015472
2024-12-07 20:32:25.816206300,8.198206298828126,-0.3680590689182281,0.6347288489341736,-0.3984003067016601
2024-12-07 20:32:25.826220300,8.20822021484375,-0.2595674693584442,0.6522154808044434,-0.3872299492359161
2024-12-07 20:32:25.836233500,8.2182333984375,-0.1662155985832214,0.6352037787437439,-0.3773554861545563
2024-12-07 20:32:25.846247400,8.228247314453125,-0.126051664352417,0.5701448917388916,-0.3536051511764526
2024-12-07 20:32:25.856261400,8.238261474609375,-0.1363749653100967,0.4467540979385376,-0.3158292174339294
2024-12-07 20:32:25.866275300,8.248275390625,-0.16319540143013,0.3444167971611023,-0.2773391008377075
2024-12-07 20:32:25.876288500,8.25828857421875,-0.1969766169786453,0.2976183593273163,-0.2557468116283417
2024-12-07 20:32:25.886302500,8.268302490234374,-0.2349399775266647,0.2625389397144317,-0.2542681992053985
2024-12-07 20:32:25.896316400,8.27831640625,-0.2759284675121307,0.242006778717041,-0.2688900530338287
2024-12-07 20:32:25.906330400,8.288330322265624,-0.3008902668952942,0.2505667209625244,-0.2836517095565796
2024-12-07 20:32:25.916343600,8.298343505859375,-0.3107988536357879,0.2765613496303558,-0.2874419391155243
2024-12-07 20:32:25.926357200,8.308357177734376,-0.315809041261673,0.2974956631660461,-0.2748183012008667
2024-12-07 20:32:25.936371200,8.31837109375,-0.3245963752269745,0.3062858581542969,-0.2550726532936096
2024-12-07 20:32:25.946385400,8.328385498046876,-0.3278776407241821,0.2866221368312835,-0.2555365562438965
2024-12-07 20:32:25.956398600,8.338398681640625,-0.3189602196216583,0.2558977901935577,-0.2784637212753296
2024-12-07 20:32:25.966412300,8.348412353515625,-0.3038997948169708,0.2530458271503448,-0.31515833735466
2024-12-07 20:32:25.976426200,8.35842626953125,-0.2825291752815246,0.2850311398506164,-0.3249093294143677
2024-12-07 20:32:25.986440400,8.3684404296875,-0.2524378299713135,0.3441157639026642,-0.3051486611366272
2024-12-07 20:32:25.996453400,8.378453369140624,-0.2076776921749115,0.3953629732131958,-0.2822190225124359
2024-12-07 20:32:26.006467300,8.38846728515625,-0.157358318567276,0.416226714849472,-0.2666179537773132
2024-12-07 20:32:26.016481300,8.398481201171874,-0.1143674924969673,0.3826858103275299,-0.2473723888397216
2024-12-07 20:32:26.026495500,8.40849560546875,-0.0843592584133148,0.2808369696140289,-0.1923173815011978
2024-12-07 20:32:26.036509200,8.41850927734375,-0.0697505846619606,0.1977993845939636,-0.1321934908628463
2024-12-07 20:32:26.046522400,8.4285224609375,-0.0732901915907859,0.1914011389017105,-0.0862704664468765
2024-12-07 20:32:26.056536300,8.438536376953126,-0.0938074886798858,0.2206063717603683,-0.0646576434373855
2024-12-07 20:32:26.066550300,8.44855029296875,-0.1221288740634918,0.2514569759368896,-0.0471130050718784
2024-12-07 20:32:26.076564200,8.458564208984376,-0.153086706995964,0.2607596516609192,-0.0364642292261123
2024-12-07 20:32:26.086577400,8.468577392578124,-0.1811524331569671,0.2410005927085876,-0.0397862568497657
2024-12-07 20:32:26.096591400,8.47859130859375,-0.2046669572591781,0.2074925750494003,-0.0459122918546199
2024-12-07 20:32:26.106605300,8.488605224609374,-0.2127320617437362,0.1833132058382034,-0.051517978310585
2024-12-07 20:32:26.116619300,8.498619384765625,-0.1945151537656784,0.1639339327812194,-0.0545054972171783
2024-12-07 20:32:26.126632400,8.508632568359374,-0.161986231803894,0.169818177819252,-0.0654795840382576
2024-12-07 20:32:26.136646100,8.518646240234375,-0.1288528740406036,0.2090608477592468,-0.0754530951380729
2024-12-07 20:32:26.146660400,8.528660400390624,-0.1008811593055725,0.2485198378562927,-0.0712831243872642
2024-12-07 20:32:26.156674300,8.53867431640625,-0.0715231746435165,0.2670166492462158,-0.0589732155203819
2024-12-07 20:32:26.166687500,8.5486875,-0.0533124804496765,0.2854318916797638,-0.0564850270748138
2024-12-07 20:32:26.176701200,8.558701171875,-0.0482546538114547,0.3015703856945038,-0.064497172832489
2024-12-07 20:32:26.186715600,8.568715576171876,-0.046755027025938,0.3146103024482727,-0.0763527676463127
2024-12-07 20:32:26.196729300,8.578729248046875,-0.0520167686045169,0.3014701902866363,-0.0707213580608367
2024-12-07 20:32:26.206743600,8.58874365234375,-0.0529102571308612,0.273177832365036,-0.0662632212042808
2024-12-07 20:32:26.216756500,8.598756591796874,-0.0522404238581657,0.2500962913036346,-0.0801457613706588
2024-12-07 20:32:26.226770400,8.6087705078125,-0.0559451468288898,0.2353261113166809,-0.1022292301058769
2024-12-07 20:32:26.236784400,8.618784423828124,-0.0548337697982788,0.1901531964540481,-0.1337142884731292
2024-12-07 20:32:26.246798600,8.628798583984375,-0.0576410070061683,0.117261953651905,-0.1672708988189697
2024-12-07 20:32:26.256811300,8.638811279296876,-0.056731067597866,0.0561444610357284,-0.1841882318258285
2024-12-07 20:32:26.266825500,8.648825439453125,-0.0474070720374584,0.0053896708413958,-0.2021770924329757
2024-12-07 20:32:26.276839400,8.65883935546875,-0.0481684133410453,-0.0250767599791288,-0.2254010885953903
2024-12-07 20:32:26.286853600,8.668853515625,-0.0505663231015205,-0.0126632321625947,-0.2294717282056808
2024-12-07 20:32:26.296866300,8.6788662109375,-0.0592273212969303,0.036128245294094,-0.2234560400247573
2024-12-07 20:32:26.306880500,8.688880615234375,-0.0732509940862655,0.10492754727602,-0.2086251527070999
2024-12-07 20:32:26.316894500,8.69889453125,-0.0776496902108192,0.1362177282571792,-0.1909282803535461
2024-12-07 20:32:26.326908700,8.70890869140625,-0.0749393925070762,0.1351292878389358,-0.1652676612138748
2024-12-07 20:32:26.336921300,8.71892138671875,-0.0752402395009994,0.1210090219974517,-0.1400824189186096
2024-12-07 20:32:26.346935600,8.728935546875,-0.0780751779675483,0.1022968515753746,-0.131830096244812
2024-12-07 20:32:26.356949500,8.738949462890625,-0.0863123312592506,0.1209019050002098,-0.1467908918857574
2024-12-07 20:32:26.366963500,8.74896337890625,-0.1014627888798713,0.1658691167831421,-0.1752931028604507
2024-12-07 20:32:26.376976400,8.758976318359375,-0.1145952343940734,0.1976455152034759,-0.2038298696279525
2024-12-07 20:32:26.386990600,8.768990478515626,-0.1365199834108352,0.2047012895345688,-0.2251804322004318
2024-12-07 20:32:26.397004500,8.779004638671875,-0.1673434376716613,0.209380567073822,-0.238170176744461
2024-12-07 20:32:26.407018500,8.7890185546875,-0.1885621845722198,0.2160645723342895,-0.2373099774122238
2024-12-07 20:32:26.417031400,8.799031494140625,-0.2063663452863693,0.2169510126113891,-0.210164338350296
2024-12-07 20:32:26.427045600,8.809045654296876,-0.2220481038093567,0.2274302840232849,-0.1696869432926178
2024-12-07 20:32:26.437059300,8.819059326171875,-0.2256780713796615,0.2276770025491714,-0.1458820253610611
2024-12-07 20:32:26.447073500,8.829073486328125,-0.2224612385034561,0.1966253519058227,-0.1492221653461456
2024-12-07 20:32:26.457087500,8.83908740234375,-0.2294297516345977,0.1407031416893005,-0.1666887402534485
2024-12-07 20:32:26.467100400,8.849100341796875,-0.2411655038595199,0.0962898656725883,-0.1926010251045227
2024-12-07 20:32:26.477114400,8.8591142578125,-0.2533686757087707,0.0671862661838531,-0.2159052789211273
2024-12-07 20:32:26.487128600,8.869128662109375,-0.2595344483852386,0.0627797991037368,-0.2306293547153473
2024-12-07 20:32:26.497142500,8.879142578125,-0.262941837310791,0.0740505903959274,-0.2418302446603775
2024-12-07 20:32:26.507155500,8.889155517578125,-0.2647599875926971,0.0979231670498848,-0.2684341669082641
2024-12-07 20:32:26.517169400,8.89916943359375,-0.2624885737895965,0.1321240216493606,-0.2990405261516571
2024-12-07 20:32:26.527183600,8.90918359375,-0.2641431987285614,0.1659267246723175,-0.319180428981781
2024-12-07 20:32:26.537197600,8.919197509765626,-0.2742788791656494,0.1877917945384979,-0.3203116953372955
2024-12-07 20:32:26.547210500,8.92921044921875,-0.2937803864479065,0.2083639204502105,-0.2923967242240906
2024-12-07 20:32:26.557224400,8.939224365234375,-0.3105600774288177,0.2340296357870102,-0.2555414140224457
2024-12-07 20:32:26.567238700,8.94923876953125,-0.3255952298641205,0.266271710395813,-0.2342739403247833
2024-12-07 20:32:26.577252400,8.95925244140625,-0.3311525583267212,0.2939657866954803,-0.2291897386312484
2024-12-07 20:32:26.587265500,8.969265625,-0.3370567858219147,0.3041191101074219,-0.2257137894630432
2024-12-07 20:32:26.597279500,8.979279541015625,-0.3345639109611511,0.3014640510082245,-0.2084119468927383
2024-12-07 20:32:26.607293700,8.989293701171874,-0.3235639929771423,0.2989236414432525,-0.1822583824396133
2024-12-07 20:32:26.617307400,8.999307373046875,-0.311978280544281,0.2957038283348083,-0.1755482703447342
2024-12-07 20:32:26.627321600,9.009321533203124,-0.2996001541614532,0.2996833920478821,-0.1919826418161392
2024-12-07 20:32:26.637334500,9.01933447265625,-0.2968990504741668,0.3078914284706116,-0.2160006910562515
2024-12-07 20:32:26.647348500,9.029348388671876,-0.297967255115509,0.3101218342781067,-0.2274970263242721
2024-12-07 20:32:26.657362400,9.039362548828125,-0.3082485496997833,0.3190685510635376,-0.2208808809518814
2024-12-07 20:32:26.667376600,9.049376708984376,-0.3242112696170807,0.3502879738807678,-0.1996922343969345
2024-12-07 20:32:26.677389300,9.059389404296876,-0.3368920385837555,0.3881193101406097,-0.1823260188102722
2024-12-07 20:32:26.687403500,9.069403564453124,-0.3503865301609039,0.4313679933547973,-0.1789347529411316
2024-12-07 20:32:26.697417500,9.07941748046875,-0.3661655187606811,0.4723413288593292,-0.1879589259624481
2024-12-07 20:32:26.707431700,9.089431640625,-0.3903800249099731,0.515278697013855,-0.188978910446167
2024-12-07 20:32:26.717444400,9.0994443359375,-0.4091005027294159,0.5486271977424622,-0.1891191750764846
2024-12-07 20:32:26.727458600,9.10945849609375,-0.4123631417751312,0.5793275833129883,-0.1776374876499176
2024-12-07 20:32:26.737472500,9.119472412109374,-0.4074517786502838,0.6093977689743042,-0.1687361150979995
2024-12-07 20:32:26.747486500,9.129486572265623,-0.3958254754543304,0.6258938908576965,-0.1516095995903015
2024-12-07 20:32:26.757499400,9.13949951171875,-0.3806987702846527,0.6209461688995361,-0.1314078271389007
2024-12-07 20:32:26.767513600,9.149513671875,-0.36045902967453,0.5920780301094055,-0.1169972047209739
2024-12-07 20:32:26.777527600,9.159527587890626,-0.3376471698284149,0.5347650647163391,-0.1124899238348007
2024-12-07 20:32:26.787541500,9.16954150390625,-0.3112044036388397,0.458728939294815,-0.1138489320874214
2024-12-07 20:32:26.797554400,9.179554443359375,-0.2848475575447082,0.3739974498748779,-0.1275135576725006
2024-12-07 20:32:26.807568600,9.189568603515625,-0.2508381903171539,0.2834206819534302,-0.1516929268836975
2024-12-07 20:32:26.817582600,9.19958251953125,-0.2045072019100189,0.1855399161577224,-0.181340292096138
2024-12-07 20:32:26.827596500,9.209596435546874,-0.1631640195846557,0.0877574384212493,-0.1926278471946716
2024-12-07 20:32:26.837610500,9.219610595703124,-0.1326302140951156,0.0068245879374444,-0.1775183081626892
2024-12-07 20:32:26.847623700,9.229623779296874,-0.1104684546589851,-0.0601632371544837,-0.1565323323011398
2024-12-07 20:32:26.857637400,9.239637451171877,-0.0837795808911323,-0.125872790813446,-0.1579600274562835
2024-12-07 20:32:26.867651600,9.249651611328124,-0.0525745190680027,-0.1659381985664367,-0.1858547776937484
2024-12-07 20:32:26.877665500,9.25966552734375,-0.0245899874716997,-0.1693379878997802,-0.2337838560342788
2024-12-07 20:32:26.887678500,9.269678466796876,-0.00458645215258,-0.1382985711097717,-0.2707469165325165
2024-12-07 20:32:26.897692400,9.2796923828125,0.001163542503491,-0.0799955874681472,-0.2833970487117767
2024-12-07 20:32:26.907706600,9.28970654296875,-0.0144132869318127,-0.0027476698160171,-0.2563963234424591
2024-12-07 20:32:26.917720600,9.299720458984376,-0.0526681803166866,0.0974860340356826,-0.1768942177295684
2024-12-07 20:32:26.927733500,9.3097333984375,-0.0877103134989738,0.1763512939214706,-0.0364553406834602
2024-12-07 20:32:26.937747500,9.31974755859375,-0.1116779595613479,0.2056106775999069,0.1261323988437652
2024-12-07 20:32:26.947761400,9.329761474609375,-0.129846841096878,0.2529286444187164,0.2575881481170654
2024-12-07 20:32:26.957775600,9.339775634765624,-0.1275854259729385,0.2994126081466675,0.3257414698600769
2024-12-07 20:32:26.967788500,9.34978857421875,-0.1066476553678512,0.2909109890460968,0.3424530625343323
2024-12-07 20:32:26.977802500,9.359802490234374,-0.0716030821204185,0.2320897132158279,0.3193897008895874
2024-12-07 20:32:26.987816400,9.36981640625,-0.0223236791789531,0.1756189912557602,0.2754347622394562
2024-12-07 20:32:26.997830400,9.379830322265626,0.0298619009554386,0.1338391155004501,0.2393411993980407
2024-12-07 20:32:27.007843600,9.389843505859377,0.0782664567232132,0.1155083179473877,0.236501470208168
2024-12-07 20:32:27.017857500,9.399857421875,0.1188915520906448,0.10645592212677,0.2638765275478363
2024-12-07 20:32:27.027871500,9.40987158203125,0.1513040959835052,0.0892417803406715,0.312608927488327
2024-12-07 20:32:27.037885400,9.419885498046876,0.1778286695480346,0.0605885274708271,0.3554359674453735
2024-12-07 20:32:27.047898600,9.429898681640625,0.1966654807329177,0.0249397214502096,0.3965493142604828
2024-12-07 20:32:27.057912600,9.43991259765625,0.2148729711771011,-0.0029309075325727,0.4404624998569488
2024-12-07 20:32:27.067926500,9.449926513671874,0.235672265291214,-0.0272319857031106,0.4913147687911987
2024-12-07 20:32:27.077940500,9.4599404296875,0.2614404559135437,-0.0498187318444252,0.551934003829956
2024-12-07 20:32:27.087953700,9.46995361328125,0.2927765548229217,-0.0747456550598144,0.6110655069351196
2024-12-07 20:32:27.097967400,9.47996728515625,0.3354103565216064,-0.0924266651272773,0.6649131774902344
2024-12-07 20:32:27.107981600,9.489981689453124,0.3818180859088897,-0.1076263859868049,0.7190528512001038
2024-12-07 20:32:27.117995500,9.49999560546875,0.4281610250473022,-0.1225982457399368,0.7689173817634583
2024-12-07 20:32:27.128009500,9.510009521484376,0.4821131825447082,-0.1387532502412796,0.8104413747787476
2024-12-07 20:32:27.138022400,9.5200224609375,0.5467084050178528,-0.1452093124389648,0.8434792757034302
2024-12-07 20:32:27.148036400,9.530036376953126,0.6034920811653137,-0.1409298777580261,0.8819265365600586
2024-12-07 20:32:27.158050600,9.540050537109376,0.6446611881256104,-0.1147846579551696,0.935344398021698
2024-12-07 20:32:27.168064500,9.550064453125,0.6784476637840271,-0.0412739552557468,1.0179893970489502
2024-12-07 20:32:27.178077400,9.560077392578124,0.7156946659088135,0.0576798506081104,1.118561625480652
2024-12-07 20:32:27.188091400,9.57009130859375,0.7592322826385498,0.1695536524057388,1.2143770456314087
2024-12-07 20:32:27.198105300,9.580105224609374,0.8021600246429443,0.2945142686367035,1.2993483543395996
2024-12-07 20:32:27.208119300,9.590119384765623,0.8408749103546143,0.421009361743927,1.360176920890808
2024-12-07 20:32:27.218132500,9.600132568359374,0.8613749742507935,0.5677496790885925,1.3846347332000732
2024-12-07 20:32:27.228146400,9.610146484375,0.8720750212669373,0.7081664204597473,1.3673372268676758
2024-12-07 20:32:27.238160400,9.620160400390626,0.8828446269035339,0.8283471465110779,1.2997488975524902
2024-12-07 20:32:27.248174300,9.63017431640625,0.8977980017662048,0.9349047541618348,1.1887105703353882
2024-12-07 20:32:27.258187500,9.6401875,0.931916892528534,1.0549224615097046,1.0656992197036743
2024-12-07 20:32:27.268201500,9.650201416015625,0.974722683429718,1.162574052810669,0.9689612984657288
2024-12-07 20:32:27.278215400,9.66021533203125,0.9970610737800598,1.170573592185974,0.8643053770065308
2024-12-07 20:32:27.288229400,9.6702294921875,0.9904415011405944,1.0233662128448486,0.7440247535705566
2024-12-07 20:32:27.298242300,9.6802421875,0.967524230480194,0.7528101801872253,0.6135551333427429
2024-12-07 20:32:27.308256500,9.690256591796874,0.9677473902702332,0.4121087491512298,0.4790793359279632
2024-12-07 20:32:27.318270500,9.7002705078125,0.958078682422638,0.1001257970929145,0.3399200439453125
2024-12-07 20:32:27.328284400,9.710284423828124,0.9071649312973022,-0.1056840941309928,0.2367806136608123
2024-12-07 20:32:27.338298400,9.72029833984375,0.8596143126487732,-0.2055845707654953,0.1912465244531631
2024-12-07 20:32:27.348311600,9.7303115234375,0.8627570867538452,-0.2695603370666504,0.1963685899972915
2024-12-07 20:32:27.358325500,9.740325439453123,0.910880446434021,-0.3503910303115845,0.2254833281040191
2024-12-07 20:32:27.368339200,9.750339111328126,0.936067521572113,-0.4893012344837188,0.245518296957016
2024-12-07 20:32:27.378353400,9.760353515625,0.8985486030578613,-0.6562241911888123,0.2344154119491577
2024-12-07 20:32:27.388366300,9.770366455078126,0.8210455775260925,-0.7733513712882996,0.1762280017137527
2024-12-07 20:32:27.398380500,9.780380615234376,0.7512109875679016,-0.8525357246398926,0.0846117213368415
2024-12-07 20:32:27.408394200,9.790394287109375,0.7020195126533508,-0.9044740200042723,-0.0148376375436782
2024-12-07 20:32:27.418408400,9.800408447265625,0.6456908583641052,-0.91562819480896,-0.0991952046751976
2024-12-07 20:32:27.428421400,9.81042138671875,0.583387017250061,-0.8906821012496948,-0.1590289771556854
2024-12-07 20:32:27.438435300,9.820435302734374,0.5280649662017822,-0.8729151487350464,-0.1918842643499374
2024-12-07 20:32:27.448449300,9.83044921875,0.4851049482822418,-0.8839667439460754,-0.1943386346101761
2024-12-07 20:32:27.458463500,9.84046337890625,0.456651508808136,-0.923656404018402,-0.1690694540739059
2024-12-07 20:32:27.468476400,9.850476318359377,0.4302260279655456,-0.9755315780639648,-0.1222316473722457
2024-12-07 20:32:27.478490400,9.860490478515626,0.4053868353366852,-1.0273109674453735,-0.0575217679142952
2024-12-07 20:32:27.488504300,9.87050439453125,0.3666503727436065,-1.0456230640411377,0.0073046311736106
2024-12-07 20:32:27.498518500,9.8805185546875,0.3172684013843536,-1.0027309656143188,0.058291271328926
2024-12-07 20:32:27.508531500,9.890531494140625,0.2619332671165466,-0.8981155753135681,0.0962034985423088
2024-12-07 20:32:27.518545400,9.90054541015625,0.21488918364048,-0.724263608455658,0.1229738146066665
2024-12-07 20:32:27.528559400,9.910559326171876,0.1950017660856247,-0.5027933120727539,0.1498666852712631
2024-12-07 20:32:27.538573600,9.920573486328124,0.2095056027173996,-0.3011431097984314,0.1760182082653045
2024-12-07 20:32:27.548586500,9.93058642578125,0.2538642883300781,-0.2099418193101883,0.1950227916240692
2024-12-07 20:32:27.558600400,9.940600341796875,0.315471351146698,-0.2080425471067428,0.2013563364744186
2024-12-07 20:32:27.568614400,9.950614501953124,0.3718595504760742,-0.2630226910114288,0.1886709034442901
2024-12-07 20:32:27.578628400,9.96062841796875,0.4093948006629944,-0.3504510521888733,0.1631558090448379
2024-12-07 20:32:27.588642300,9.970642333984374,0.4055201709270477,-0.3836316466331482,0.1384259611368179
2024-12-07 20:32:27.598655500,9.980655517578125,0.3529338240623474,-0.3451171517372131,0.1213503628969192
2024-12-07 20:32:27.608669400,9.99066943359375,0.2633131444454193,-0.2900286018848419,0.0948266237974166
2024-12-07 20:32:27.618683400,10.000683349609377,0.1532399803400039,-0.2465026676654815,0.0521308332681655
2024-12-07 20:32:27.628696300,10.0106962890625,0.0446037836372852,-0.2257933914661407,-0.001689787954092
2024-12-07 20:32:27.638710500,10.02071044921875,-0.0578032359480857,-0.2471677660942077,-0.0878849476575851
2024-12-07 20:32:27.648724200,10.03072412109375,-0.1427330374717712,-0.2867545783519745,-0.210447609424591
2024-12-07 20:32:27.658738400,10.040738525390625,-0.2034125477075576,-0.3870062828063965,-0.2963982224464416
2024-12-07 20:32:27.668752400,10.05075244140625,-0.2514053583145141,-0.4962518215179443,-0.3520354032516479
2024-12-07 20:32:27.678765300,10.060765380859374,-0.3061758577823639,-0.5444810390472412,-0.3927577435970306
2024-12-07 20:32:27.688779300,10.070779296875,-0.3370024859905243,-0.5079193115234375,-0.4273910820484161
2024-12-07 20:32:27.698793500,10.08079345703125,-0.3214739859104156,-0.4163881838321686,-0.4298766553401947
2024-12-07 20:32:27.708807400,10.090807373046877,-0.2529854774475097,-0.335178017616272,-0.375790536403656
2024-12-07 20:32:27.718820400,10.1008203125,-0.1266485154628753,-0.2367185652256012,-0.3383025228977203
2024-12-07 20:32:27.728834300,10.110834228515625,0.0557484477758407,-0.0972882360219955,-0.3218694627285003
2024-12-07 20:32:27.738848500,10.1208486328125,0.2635744512081146,0.0651597827672958,-0.3279493153095245
2024-12-07 20:32:27.748862500,10.130862548828125,0.4328835904598236,0.1656544357538223,-0.3399910628795624
2024-12-07 20:32:27.758875400,10.14087548828125,0.4762189388275146,0.1336741000413894,-0.3248274326324463
2024-12-07 20:32:27.768889300,10.150889404296874,0.4387261569499969,-0.0158887580037117,-0.3206686377525329
2024-12-07 20:32:27.778903600,10.160903564453124,0.3848205506801605,-0.2234069108963012,-0.342878520488739
2024-12-07 20:32:27.788917200,10.170917236328124,0.3122267723083496,-0.434090107679367,-0.3655348420143127
2024-12-07 20:32:27.798930400,10.180930419921877,0.2100975960493087,-0.6460044980049133,-0.3686495423316955
2024-12-07 20:32:27.808944400,10.1909443359375,0.0764055699110031,-0.7968379259109497,-0.387300968170166
2024-12-07 20:32:27.818958600,10.20095849609375,-0.0731387883424758,-0.7952073216438293,-0.4514978229999542
2024-12-07 20:32:27.828972300,10.21097216796875,-0.213897243142128,-0.6994795203208923,-0.4924231469631195
2024-12-07 20:32:27.838985500,10.2209853515625,-0.3269683122634887,-0.627328634262085,-0.4978958964347839
2024-12-07 20:32:27.848999400,10.23099951171875,-0.3978661894798279,-0.5932585597038269,-0.4913266897201538
2024-12-07 20:32:27.859013400,10.241013427734377,-0.402302473783493,-0.566227912902832,-0.4502541422843933
2024-12-07 20:32:27.869027300,10.25102734375,-0.3467598557472229,-0.568260669708252,-0.3680620789527893
2024-12-07 20:32:27.879040500,10.26104052734375,-0.2486393749713897,-0.580406129360199,-0.25302454829216
2024-12-07 20:32:27.889054200,10.27105419921875,-0.111319862306118,-0.5597562193870544,-0.1366351097822189
2024-12-07 20:32:27.899068400,10.281068359375,0.0202536135911941,-0.4809834659099579,-0.084399789571762
2024-12-07 20:32:27.909082400,10.291082275390623,0.1076771989464759,-0.3849400281906128,-0.0875609591603279
2024-12-07 20:32:27.919096600,10.3010966796875,0.1439689844846725,-0.3503312170505523,-0.1159530580043792
2024-12-07 20:32:27.929109200,10.311109130859377,0.1498998403549194,-0.3693874478340149,-0.1658143550157547
2024-12-07 20:32:27.939123500,10.32112353515625,0.1105112060904502,-0.4548573195934295,-0.2233266681432724
2024-12-07 20:32:27.949137400,10.331137451171877,0.0199610628187656,-0.5228632688522339,-0.2602351605892181
2024-12-07 20:32:27.959151600,10.341151611328126,-0.0860321223735809,-0.4919784963130951,-0.2878468334674835
2024-12-07 20:32:27.969164300,10.351164306640625,-0.1703134477138519,-0.3882430493831634,-0.3315980434417724
2024-12-07 20:32:27.979178500,10.361178466796876,-0.2177638262510299,-0.2664656937122345,-0.3897448480129242
2024-12-07 20:32:27.989192400,10.3711923828125,-0.25718554854393,-0.1619504690170288,-0.4328507483005523
2024-12-07 20:32:27.999206400,10.381206298828126,-0.2610388398170471,-0.0433219783008098,-0.4318283498287201
2024-12-07 20:32:28.009219300,10.39121923828125,-0.2350365221500396,0.0789986103773117,-0.4019317030906677
2024-12-07 20:32:28.019233500,10.401233642578124,-0.210426464676857,0.0678917691111564,-0.3496326804161072
2024-12-07 20:32:28.029247500,10.41124755859375,-0.1850824803113937,-0.0167882367968559,-0.2967822551727295
2024-12-07 20:32:28.039261400,10.421261474609375,-0.1717943847179412,-0.0890256762504577,-0.2782953977584839
2024-12-07 20:32:28.049274400,10.4312744140625,-0.168601781129837,-0.1735767871141433,-0.2970086336135864
2024-12-07 20:32:28.059288600,10.44128857421875,-0.1717859059572219,-0.2946290075778961,-0.3158326148986816
2024-12-07 20:32:28.069302300,10.45130224609375,-0.171581894159317,-0.3882471024990082,-0.2932018637657165
2024-12-07 20:32:28.079316500,10.46131640625,-0.1626479476690292,-0.3921020925045013,-0.2357007563114166
2024-12-07 20:32:28.089329400,10.471329345703126,-0.1644812673330307,-0.3287886381149292,-0.2010224163532257
2024-12-07 20:32:28.099343400,10.48134326171875,-0.1877749860286712,-0.2400104999542236,-0.2120769172906875
2024-12-07 20:32:28.109357300,10.491357421875,-0.234024241566658,-0.1360244452953338,-0.2471283823251724
2024-12-07 20:32:28.119371500,10.50137158203125,-0.29167240858078,-0.0452323630452156,-0.2717547416687011
2024-12-07 20:32:28.129384400,10.511384521484375,-0.3411661982536316,0.0515937842428684,-0.2821088433265686
2024-12-07 20:32:28.139398400,10.5213984375,-0.3736928701400757,0.1697480976581573,-0.29920095205307
2024-12-07 20:32:28.149412400,10.531412353515623,-0.3993676304817199,0.3229245841503143,-0.3114437758922577
2024-12-07 20:32:28.159426600,10.541426513671874,-0.4246838390827179,0.47352996468544,-0.3060597479343414
2024-12-07 20:32:28.169439200,10.551439208984377,-0.4328967630863189,0.5422171354293823,-0.2658776938915252
2024-12-07 20:32:28.179453400,10.561453369140626,-0.4218302071094513,0.5379841327667236,-0.2074136286973953
2024-12-07 20:32:28.189467100,10.571467041015625,-0.3944371938705444,0.4996122419834137,-0.168411910533905
2024-12-07 20:32:28.199481000,10.581481201171876,-0.353740394115448,0.4900916814804077,-0.1576085090637207
2024-12-07 20:32:28.209494000,10.591493896484376,-0.3086152672767639,0.5093516707420349,-0.1559696048498153
2024-12-07 20:32:28.219508200,10.60150830078125,-0.2605925500392914,0.5011447668075562,-0.1566842198371887
2024-12-07 20:32:28.229522200,10.611522216796876,-0.2224214822053909,0.4820845127105713,-0.1615045368671417
2024-12-07 20:32:28.239536000,10.6215361328125,-0.2041265368461609,0.4907323718070984,-0.1792440265417099
2024-12-07 20:32:28.249549000,10.631549072265624,-0.1951269209384918,0.5280035734176636,-0.2079270631074905
2024-12-07 20:32:28.259563300,10.641563232421875,-0.1886153072118759,0.5815861821174622,-0.2208828330039978
2024-12-07 20:32:28.269577000,10.651576904296874,-0.1829598248004913,0.5938950777053833,-0.2161980718374252
2024-12-07 20:32:28.279591200,10.661591064453123,-0.1798568964004516,0.5366294980049133,-0.1982975751161575
2024-12-07 20:32:28.289605000,10.671605224609374,-0.178207591176033,0.4596311151981354,-0.1771872341632843
2024-12-07 20:32:28.299618000,10.6816181640625,-0.1876728683710098,0.4249151051044464,-0.166444644331932
2024-12-07 20:32:28.309632000,10.691632080078126,-0.2087949365377426,0.4574927687644958,-0.1377959549427032
2024-12-07 20:32:28.319646200,10.701646240234377,-0.2415599226951599,0.5198634266853333,-0.0746378377079963
2024-12-07 20:32:28.329660200,10.71166015625,-0.272411048412323,0.5419162511825562,0.0119002489373087
2024-12-07 20:32:28.339673000,10.721673095703125,-0.2990455031394958,0.4955626130104065,0.0745594501495361
2024-12-07 20:32:28.349687000,10.73168701171875,-0.3181462287902832,0.379416823387146,0.0908390879631042
2024-12-07 20:32:28.359701200,10.741701171875,-0.3265058100223541,0.2289676219224929,0.0550626181066036
2024-12-07 20:32:28.369715200,10.751715087890624,-0.3199086189270019,0.1022330969572067,-0.0276794005185365
2024-12-07 20:32:28.379728100,10.76172802734375,-0.296038806438446,0.0599750839173793,-0.1255040466785431
2024-12-07 20:32:28.389742000,10.7717421875,-0.2533709704875946,0.1083884239196777,-0.2028347849845886
2024-12-07 20:32:28.399756300,10.78175634765625,-0.1942374110221862,0.1861181706190109,-0.2302684336900711
2024-12-07 20:32:28.409770000,10.79177001953125,-0.1420554369688034,0.2076160013675689,-0.1896813362836837
2024-12-07 20:32:28.419783200,10.801783203125,-0.1015745550394058,0.1717495024204254,-0.1367321908473968
2024-12-07 20:32:28.429797000,10.811797119140625,-0.0797044113278389,0.1240373775362968,-0.1196453496813774
2024-12-07 20:32:28.439811300,10.821811279296876,-0.067251905798912,0.0903516113758087,-0.1290931701660156
2024-12-07 20:32:28.449825000,10.831824951171876,-0.0588538944721221,0.1013850942254066,-0.1185909882187843
2024-12-07 20:32:28.459838200,10.841838134765624,-0.0562080927193164,0.1535112112760543,-0.0783725306391716
2024-12-07 20:32:28.469852200,10.85185205078125,-0.0574192963540554,0.2183410823345184,-0.0200924463570117
2024-12-07 20:32:28.479866000,10.8618662109375,-0.0577057600021362,0.2880401313304901,0.0274800695478916
2024-12-07 20:32:28.489880000,10.871880126953124,-0.0663823410868644,0.3510001897811889,0.0547036975622177
2024-12-07 20:32:28.499893200,10.881893310546875,-0.0945143327116966,0.4227432608604431,0.0629423633217811
2024-12-07 20:32:28.509907000,10.891906982421874,-0.1164755597710609,0.5005102157592773,0.0470102727413177
2024-12-07 20:32:28.519921200,10.901921142578123,-0.1207698136568069,0.5679002404212952,0.0073092151433229
2024-12-07 20:32:28.529935000,10.91193505859375,-0.1219626441597938,0.5971755385398865,-0.0441321395337581
2024-12-07 20:32:28.539948300,10.9219482421875,-0.1289504319429397,0.5711849927902222,-0.0818131193518638
2024-12-07 20:32:28.549962000,10.9319619140625,-0.1314519345760345,0.4960556030273437,-0.0995124876499176
2024-12-07 20:32:28.559976200,10.94197607421875,-0.1314719021320343,0.4019724726676941,-0.1132114827632904
2024-12-07 20:32:28.569990100,10.951990234375,-0.1291930377483368,0.2988567352294922,-0.119335152208805
2024-12-07 20:32:28.580003000,10.962003173828125,-0.1262426972389221,0.2297524809837341,-0.1354160010814666
2024-12-07 20:32:28.590017000,10.97201708984375,-0.1242996677756309,0.2055848389863968,-0.1657944023609161
2024-12-07 20:32:28.600031200,10.98203125,-0.1195014417171478,0.1716097742319107,-0.1898962557315826
2024-12-07 20:32:28.610045200,10.992045166015624,-0.1181991547346115,0.0941914021968841,-0.1919285058975219
2024-12-07 20:32:28.620059100,11.00205908203125,-0.1185791417956352,-0.0014886439312249,-0.1846726089715957
2024-12-07 20:32:28.630072000,11.012072021484377,-0.1146019771695137,-0.0797269940376281,-0.1819684356451034
2024-12-07 20:32:28.640086300,11.022086181640624,-0.1089735627174377,-0.1152619197964668,-0.1879549473524093
2024-12-07 20:32:28.650100200,11.032100341796877,-0.1082510501146316,-0.0982637628912925,-0.2022587954998016
2024-12-07 20:32:28.660114200,11.0421142578125,-0.1108708456158638,-0.0455999113619327,-0.218672290444374
2024-12-07 20:32:28.670127000,11.052127197265625,-0.1224513426423072,0.0288458280265331,-0.2313606590032577
2024-12-07 20:32:28.680141300,11.062141357421876,-0.1382719725370407,0.1100297570228576,-0.234415590763092
2024-12-07 20:32:28.690155000,11.072155029296876,-0.1626121997833252,0.179009348154068,-0.2240891903638839
2024-12-07 20:32:28.700169000,11.0821689453125,-0.1877524852752685,0.2078573107719421,-0.2166241556406021
2024-12-07 20:32:28.710182100,11.09218212890625,-0.2180944085121154,0.1586847156286239,-0.2040830701589584
2024-12-07 20:32:28.720196000,11.102196044921875,-0.2567774951457977,0.0766856372356414,-0.201536625623703
2024-12-07 20:32:28.730210000,11.1122099609375,-0.2925235033035278,0.01642282679677,-0.215639129281044
2024-12-07 20:32:28.740224000,11.12222412109375,-0.3110462427139282,-0.0232329871505498,-0.2540393769741058
2024-12-07 20:32:28.750237200,11.1322373046875,-0.3212546706199646,-0.0318943858146667,-0.2974454462528229
2024-12-07 20:32:28.760251100,11.142251220703123,-0.334959328174591,-0.0073624523356556,-0.3355941772460937
2024-12-07 20:32:28.770265000,11.15226513671875,-0.3453121185302734,0.0367200560867786,-0.3741977512836456
2024-12-07 20:32:28.780279000,11.162279052734377,-0.3558407425880432,0.1008931919932365,-0.4030143320560455
2024-12-07 20:32:28.790292000,11.1722919921875,-0.3705973029136657,0.1899929642677307,-0.4228607416152954
2024-12-07 20:32:28.800306200,11.18230615234375,-0.393488734960556,0.2978906631469726,-0.4332838058471679
2024-12-07 20:32:28.810320100,11.192320068359376,-0.4146853685379028,0.3819277882575989,-0.4259784817695617
2024-12-07 20:32:28.820334000,11.202333984375,-0.4323230981826782,0.415167897939682,-0.3936239778995514
2024-12-07 20:32:28.830347000,11.212346923828123,-0.4366302192211151,0.4047970175743103,-0.3429450690746307
2024-12-07 20:32:28.840361200,11.222361328125,-0.4200363755226135,0.3530753552913666,-0.2865496277809143
2024-12-07 20:32:28.850375200,11.232375244140623,-0.3906790316104889,0.2935926020145416,-0.2339833527803421
2024-12-07 20:32:28.860389000,11.24238916015625,-0.3652048408985138,0.2692005932331085,-0.1878943592309951
2024-12-07 20:32:28.870402000,11.252402099609377,-0.3532760143280029,0.286955326795578,-0.1623093783855438
2024-12-07 20:32:28.880416300,11.262416259765626,-0.3552829325199127,0.3134972155094147,-0.1488640457391739
2024-12-07 20:32:28.890430200,11.27243017578125,-0.365568071603775,0.3349441885948181,-0.1479830741882324
2024-12-07 20:32:28.900444000,11.28244384765625,-0.3711870312690735,0.372020274400711,-0.1697874963283538
2024-12-07 20:32:28.910457000,11.29245703125,-0.3707076907157898,0.4131053686141968,-0.2063649445772171
2024-12-07 20:32:28.920471300,11.30247119140625,-0.3579716086387634,0.4238466918468475,-0.2466170042753219
2024-12-07 20:32:28.930485000,11.312485107421876,-0.3482233583927154,0.413647323846817,-0.2659550309181213
2024-12-07 20:32:28.940499000,11.3224990234375,-0.3429262340068817,0.402285635471344,-0.2559152245521545
2024-12-07 20:32:28.950512000,11.33251220703125,-0.3322826623916626,0.3931398093700409,-0.2243732661008834
2024-12-07 20:32:28.960526300,11.3425263671875,-0.3220725655555725,0.3940059244632721,-0.2024934887886047
2024-12-07 20:32:28.970540000,11.3525400390625,-0.3163837790489197,0.4047949016094208,-0.198415920138359
2024-12-07 20:32:28.980554000,11.362553955078123,-0.3140660524368286,0.4276832938194275,-0.2135191112756729
2024-12-07 20:32:28.990567200,11.372567138671876,-0.308323472738266,0.426671028137207,-0.2194587588310241
2024-12-07 20:32:29.000581000,11.3825810546875,-0.3010095357894897,0.3978834450244903,-0.2365081161260604
2024-12-07 20:32:29.010595000,11.392594970703126,-0.2902418375015259,0.3300865590572357,-0.2784731388092041
