time,seconds_elapsed,z,y,x
2024-12-07 18:18:20.179643100,0.01664306640625,-0.1707436591386795,0.0406276173889637,-0.1173183098435401
2024-12-07 18:18:20.189617200,0.0266171875,-0.2221709936857223,0.0089127831161022,-0.1320846229791641
2024-12-07 18:18:20.199591200,0.036591064453125,-0.2199669629335403,-0.0253786109387874,-0.1132129356265068
2024-12-07 18:18:20.209565200,0.046565185546875,-0.2073965072631836,-0.0619595348834991,-0.1078383848071098
2024-12-07 18:18:20.219539200,0.056539306640625,-0.1762947738170623,-0.0774404928088188,-0.1151224002242088
2024-12-07 18:18:20.229512200,0.06651220703125,-0.151346355676651,-0.0870395526289939,-0.1020628809928894
2024-12-07 18:18:20.239486200,0.076486328125,-0.0989435911178588,-0.0884627476334571,-0.0829160809516906
2024-12-07 18:18:20.249460200,0.086460205078125,-0.1167352497577667,-0.0656342729926109,-0.0724213272333145
2024-12-07 18:18:20.259434200,0.096434326171875,-0.2176893055438995,-0.0449220724403858,-0.0845874473452568
2024-12-07 18:18:20.269408300,0.106408203125,-0.2513907253742218,-0.0534388422966003,-0.0659123361110687
2024-12-07 18:18:20.279382300,0.11638232421875,-0.255717009305954,-0.0511421337723732,-0.0371166430413723
2024-12-07 18:18:20.289356300,0.126356201171875,-0.2267181426286697,-0.015746422111988,-0.010723196901381
2024-12-07 18:18:20.299330300,0.136330322265625,-0.1771428734064102,0.0066741984337568,-0.0045499894767999
2024-12-07 18:18:20.309304300,0.14630419921875,-0.1254557967185974,0.0028626921121031,-0.0015781901311129
2024-12-07 18:18:20.319278300,0.1562783203125,-0.1150164604187011,0.0154695641249418,-0.021004619076848
2024-12-07 18:18:20.329251300,0.166251220703125,-0.1930199861526489,-0.0021298963110893,-0.0664856359362602
2024-12-07 18:18:20.339225300,0.176225341796875,-0.2798385322093963,-0.0569808967411518,-0.1136821806430816
2024-12-07 18:18:20.349199400,0.186199462890625,-0.2980910837650299,-0.1060231626033783,-0.1340808719396591
2024-12-07 18:18:20.359173400,0.19617333984375,-0.297932893037796,-0.0997788459062576,-0.1342563778162002
2024-12-07 18:18:20.369147400,0.2061474609375,-0.2999380230903625,-0.0386520065367221,-0.1666603237390518
2024-12-07 18:18:20.379121400,0.216121337890625,-0.2867316603660583,-0.0569694936275482,-0.1184432655572891
2024-12-07 18:18:20.389095400,0.226095458984375,-0.2412169724702835,-0.063442438840866,-0.0477621853351593
2024-12-07 18:18:20.399069200,0.236069091796875,-0.1901359409093856,-0.054917387664318,-0.0260060243308544
2024-12-07 18:18:20.409043200,0.246043212890625,-0.1928905993700027,0.0019691521301865,-0.0405020415782928
2024-12-07 18:18:20.419017200,0.256017333984375,-0.2272592186927795,0.044549636542797,-0.0502180531620979
2024-12-07 18:18:20.428991000,0.265990966796875,-0.2722946405410766,0.0742102265357971,-0.0692626610398292
2024-12-07 18:18:20.438964200,0.275964111328125,-0.3573426902294159,0.108713611960411,-0.1410401910543441
2024-12-07 18:18:20.448938200,0.285938232421875,-0.5335690975189209,0.2696844935417175,-0.238455668091774
2024-12-07 18:18:20.458912300,0.295912353515625,-0.8928012847900391,0.4135247766971588,-0.296934425830841
2024-12-07 18:18:20.468886000,0.305885986328125,-1.3753376007080078,0.5270619988441467,-0.4070806205272674
2024-12-07 18:18:20.478860000,0.315860107421875,-1.680240511894226,0.5884667634963989,-0.4412018358707428
2024-12-07 18:18:20.488834000,0.325833984375,-1.9547795057296755,0.6428162455558777,-0.3826844990253448
2024-12-07 18:18:20.498808000,0.33580810546875,-2.174813747406006,0.6132352352142334,-0.3013129532337188
2024-12-07 18:18:20.508782000,0.345781982421875,-2.315843105316162,0.5064448118209839,-0.2342756539583206
2024-12-07 18:18:20.518756000,0.355756103515625,-2.365516662597656,0.2005532830953598,-0.3019609451293945
2024-12-07 18:18:20.528730000,0.365730224609375,-2.203844785690308,-0.0272430721670389,-0.3756070435047149
2024-12-07 18:18:20.538703000,0.375703125,-2.183341264724731,-0.1687133908271789,-0.4578449130058288
2024-12-07 18:18:20.548677000,0.385677001953125,-2.220994472503662,-0.1787579506635666,-0.4920483231544494
2024-12-07 18:18:20.558651100,0.395651123046875,-2.222446918487549,-0.0113159669563174,-0.4532711207866668
2024-12-07 18:18:20.568626200,0.405626220703125,-2.2196240425109863,0.1954755336046219,-0.371650755405426
2024-12-07 18:18:20.578600200,0.41560009765625,-2.2239797115325928,0.319282978773117,-0.2928853631019592
2024-12-07 18:18:20.588574200,0.42557421875,-2.200309991836548,0.2529838383197784,-0.2705822288990021
2024-12-07 18:18:20.598548200,0.43554833984375,-2.09631085395813,0.1342127174139022,-0.3123957216739654
2024-12-07 18:18:20.608522200,0.445522216796875,-1.9121372699737549,0.0900815427303314,-0.3831592202186584
2024-12-07 18:18:20.618496300,0.455496337890625,-1.7291003465652466,0.1151189878582954,-0.4163616597652435
2024-12-07 18:18:20.628470300,0.46547021484375,-1.5582352876663208,0.1619664579629898,-0.4075512290000915
2024-12-07 18:18:20.638444300,0.4754443359375,-1.397281050682068,0.1873770058155059,-0.3532187938690185
2024-12-07 18:18:20.648417000,0.4854169921875,-1.2408835887908936,0.182642325758934,-0.275471568107605
2024-12-07 18:18:20.658391000,0.49539111328125,-1.076833963394165,0.1750805377960205,-0.1932557672262191
2024-12-07 18:18:20.668365000,0.505364990234375,-0.8852355480194092,0.1864547729492187,-0.1304003894329071
2024-12-07 18:18:20.678339000,0.515339111328125,-0.6949593424797058,0.209503099322319,-0.0968877002596855
2024-12-07 18:18:20.688313000,0.52531298828125,-0.5391465425491333,0.2382640391588211,-0.0983263254165649
2024-12-07 18:18:20.698287000,0.535287109375,-0.4014616310596466,0.2688951790332794,-0.1333026885986328
2024-12-07 18:18:20.708261000,0.54526123046875,-0.286883682012558,0.2978077530860901,-0.1709490716457367
2024-12-07 18:18:20.718235100,0.555235107421875,-0.184992179274559,0.2814974784851074,-0.2181016653776168
2024-12-07 18:18:20.728209000,0.565208984375,-0.0970674455165863,0.2403669506311416,-0.2680340409278869
2024-12-07 18:18:20.738183000,0.575182861328125,-0.0160972271114587,0.2136162966489792,-0.3173397779464721
2024-12-07 18:18:20.748157000,0.585156982421875,0.0371315069496631,0.1982214599847793,-0.3469783365726471
2024-12-07 18:18:20.758130200,0.595130126953125,0.0704290121793747,0.1828954964876175,-0.3512402176856994
2024-12-07 18:18:20.768104200,0.605104248046875,0.081091471016407,0.1522682607173919,-0.323575884103775
2024-12-07 18:18:20.778078000,0.615077880859375,0.0789084807038307,0.1129357740283012,-0.2680447101593017
2024-12-07 18:18:20.788052000,0.625052001953125,0.0937206447124481,0.0418065078556537,-0.1999962329864502
2024-12-07 18:18:20.798026000,0.63502587890625,0.1248141080141067,-0.0381849966943264,-0.136888638138771
2024-12-07 18:18:20.808000000,0.645,0.1703106164932251,-0.1010349467396736,-0.0733314752578735
2024-12-07 18:18:20.817974000,0.65497412109375,0.2086934149265289,-0.1235503703355789,-0.0128268497064709
2024-12-07 18:18:20.827948000,0.664947998046875,0.1734576821327209,-0.1058451160788536,0.0338686816394329
2024-12-07 18:18:20.837922000,0.674922119140625,0.0851251631975174,-0.0458126738667488,0.0558637306094169
2024-12-07 18:18:20.847896000,0.68489599609375,0.020819567143917,-0.0061460025608539,0.0575845092535018
2024-12-07 18:18:20.857870000,0.6948701171875,0.0021558674052357,0.0069943005219101,0.0523679107427597
2024-12-07 18:18:20.867843000,0.704843017578125,0.0321546532213687,0.0077886031940579,0.037552710622549
2024-12-07 18:18:20.877817000,0.714817138671875,0.0701417103409767,0.0477373525500297,0.0080683231353759
2024-12-07 18:18:20.887791000,0.724791015625,0.069848746061325,0.0783372670412063,-0.021415676921606
2024-12-07 18:18:20.897765000,0.73476513671875,0.0428887717425823,0.0561765730381011,-0.0276088584214448
2024-12-07 18:18:20.907739100,0.7447392578125,0.0107207326218485,-0.0007825144566595,-0.0052815708331763
2024-12-07 18:18:20.917713200,0.754713134765625,-0.0224510692059993,-0.0405842550098896,0.0307161100208759
2024-12-07 18:18:20.927687200,0.764687255859375,-0.0333420112729072,-0.0520199760794639,0.0339166410267353
2024-12-07 18:18:20.937661200,0.7746611328125,-0.0139970760792493,-0.0610358454287052,0.0070360261015594
2024-12-07 18:18:20.947635200,0.78463525390625,-0.0059819063171744,-0.0766101479530334,-0.022183334454894
2024-12-07 18:18:20.957609200,0.794609130859375,-0.0118014458566904,-0.1018742248415947,-0.030159767717123
2024-12-07 18:18:20.967582000,0.80458203125,-0.0268899593502283,-0.1066144853830337,-0.0244945362210273
2024-12-07 18:18:20.977556000,0.814555908203125,-0.0387554056942462,-0.0897508189082145,-0.0090218363329768
2024-12-07 18:18:20.987530000,0.824530029296875,-0.0379833951592445,-0.0681204423308372,0.0069157849065959
2024-12-07 18:18:20.997504000,0.83450390625,-0.0364984162151813,-0.0506546348333358,0.0190193187445402
2024-12-07 18:18:21.007478000,0.84447802734375,-0.0364995226263999,-0.0532566681504249,0.0135355917736887
2024-12-07 18:18:21.017452000,0.8544521484375,-0.0482398010790348,-0.065121054649353,0.0027854763902723
2024-12-07 18:18:21.027426000,0.864426025390625,-0.0505144745111465,-0.0822975635528564,-0.0100439134985208
2024-12-07 18:18:21.037400000,0.874400146484375,-0.0431175455451011,-0.0948226749897003,-0.0307997912168502
2024-12-07 18:18:21.047374000,0.8843740234375,-0.0359156504273414,-0.1326534450054168,-0.0332285612821579
2024-12-07 18:18:21.057348000,0.89434814453125,-0.027058508247137,-0.1618965566158294,-0.0301398281008005
2024-12-07 18:18:21.067322000,0.904322021484375,-0.0134290661662817,-0.1512359082698822,-0.0200142450630664
2024-12-07 18:18:21.077295000,0.914295166015625,0.008088476024568,-0.1358273923397064,-0.0072611649520695
2024-12-07 18:18:21.087269000,0.92426904296875,0.0325863808393478,-0.0941235497593879,0.0019961269572377
2024-12-07 18:18:21.097243100,0.9342431640625,0.0529148206114769,-0.0379694662988185,-0.0045371395535767
2024-12-07 18:18:21.107217200,0.944217041015625,0.0650682300329208,0.0034732366912066,-0.0163888614624738
2024-12-07 18:18:21.117191200,0.954191162109375,0.0691713616251945,0.0118768410757184,-0.0167755521833896
2024-12-07 18:18:21.127165200,0.964165283203125,0.0749130100011825,0.0154174352064728,-0.01225998532027
2024-12-07 18:18:21.137139200,0.97413916015625,0.0796039029955864,0.0016632734332233,0.0039860969409346
2024-12-07 18:18:21.147113000,0.984113037109375,0.0707806199789047,-0.0165603831410408,0.0247393772006034
2024-12-07 18:18:21.157087000,0.9940869140625,0.0390503890812397,-0.0377927012741565,0.0399990230798721
2024-12-07 18:18:21.167061000,1.00406103515625,-0.0227937884628772,-0.0606295019388198,0.0498243682086467
2024-12-07 18:18:21.177035000,1.014034912109375,-0.059661790728569,-0.066760629415512,0.0510899052023887
2024-12-07 18:18:21.187008300,1.02400830078125,-0.0623231157660484,-0.0784783810377121,0.0551250465214252
2024-12-07 18:18:21.196982300,1.033982177734375,-0.0597435794770717,-0.1001458466053009,0.0704030692577362
2024-12-07 18:18:21.206956000,1.0439560546875,-0.0608837231993675,-0.121734894812107,0.0954543501138687
2024-12-07 18:18:21.216930000,1.053929931640625,-0.0591449439525604,-0.1445288956165313,0.1055735647678375
2024-12-07 18:18:21.226904000,1.063904052734375,-0.0542270541191101,-0.159452423453331,0.0962151736021041
2024-12-07 18:18:21.236878000,1.073878173828125,-0.0440061055123806,-0.1468460857868194,0.0655776336789131
2024-12-07 18:18:21.246852000,1.08385205078125,-0.0358085371553897,-0.1157419458031654,0.0348596237599849
2024-12-07 18:18:21.256826000,1.093826171875,-0.0344063825905323,-0.071308434009552,0.0181770510971546
2024-12-07 18:18:21.266800000,1.103800048828125,-0.0389010608196258,-0.0386955104768276,0.0168980006128549
2024-12-07 18:18:21.276774100,1.113774169921875,-0.0343606360256671,-0.0572497546672821,0.0231926478445529
2024-12-07 18:18:21.286747000,1.123746826171875,-0.0199037678539752,-0.0892005562782287,0.0215847305953502
2024-12-07 18:18:21.296721000,1.133720947265625,-0.0139465425163507,-0.1341131776571273,0.0072625167667865
2024-12-07 18:18:21.306695000,1.14369482421875,-0.0454543754458427,-0.2052562683820724,0.0059899254702031
2024-12-07 18:18:21.316669000,1.1536689453125,-0.0577030517160892,-0.2445946186780929,-0.0020557504612952
2024-12-07 18:18:21.326643000,1.163642822265625,-0.0370745845139026,-0.2591096758842468,-0.0159418936818838
2024-12-07 18:18:21.336617000,1.173616943359375,-0.0087249670177698,-0.2672136723995209,-0.0290025677531957
2024-12-07 18:18:21.346591000,1.183591064453125,-0.0068400120362639,-0.2880325317382812,-0.0427043437957763
2024-12-07 18:18:21.356565000,1.19356494140625,-0.0178098399192094,-0.3191113471984863,-0.0551543571054935
2024-12-07 18:18:21.366539000,1.2035390625,-0.0309502091258764,-0.3446395099163055,-0.0701859146356582
2024-12-07 18:18:21.376513000,1.213512939453125,-0.0298873409628868,-0.3724218904972076,-0.0725446715950965
2024-12-07 18:18:21.386487000,1.223487060546875,-0.105774201452732,-0.3682106137275696,-0.1531479358673095
2024-12-07 18:18:21.396460000,1.2334599609375,-0.2026256471872329,-0.3955205380916595,-0.3575953245162964
2024-12-07 18:18:21.406434000,1.24343408203125,-0.1333711892366409,-0.495741069316864,-0.465067595243454
2024-12-07 18:18:21.416408000,1.253407958984375,-0.1275284886360168,-0.5232613682746887,-0.4649003446102142
2024-12-07 18:18:21.426382000,1.263382080078125,-0.110853686928749,-0.4939726591110229,-0.3737905919551849
2024-12-07 18:18:21.436356000,1.273356201171875,-0.0874820500612258,-0.4083578884601593,-0.2401145249605178
2024-12-07 18:18:21.446330000,1.283330078125,-0.050155371427536,-0.2828495502471924,-0.0846905708312988
2024-12-07 18:18:21.456304000,1.29330419921875,0.0232139192521572,-0.1556058228015899,0.082021452486515
2024-12-07 18:18:21.466278100,1.303278076171875,0.099702350795269,-0.0814169049263,0.2617150247097015
2024-12-07 18:18:21.476252200,1.313252197265625,0.1731555312871933,-0.0071096532046794,0.4084272384643554
2024-12-07 18:18:21.486226200,1.32322607421875,0.1879788637161255,0.1136524081230163,0.4463682174682617
2024-12-07 18:18:21.496199200,1.33319921875,0.1977156400680542,0.2131619602441787,0.4482220411300659
2024-12-07 18:18:21.506173200,1.343173095703125,0.226402923464775,0.2815148532390594,0.4803257882595062
2024-12-07 18:18:21.516147200,1.353147216796875,0.2400132715702057,0.3076151609420776,0.5516010522842407
2024-12-07 18:18:21.526121200,1.363121337890625,0.2624268531799316,0.2801757752895355,0.6321074366569519
2024-12-07 18:18:21.536095200,1.37309521484375,0.2891833782196045,0.2207236289978027,0.7260920405387878
2024-12-07 18:18:21.546069200,1.3830693359375,0.3117535412311554,0.1351302713155746,0.7985105514526367
2024-12-07 18:18:21.556043300,1.393043212890625,0.3372290730476379,0.0388226583600044,0.84428471326828
2024-12-07 18:18:21.566016800,1.403016845703125,0.3158133625984192,-0.000410214299336,0.8319843411445618
2024-12-07 18:18:21.575990800,1.41299072265625,0.3430473804473877,-0.0600120276212692,0.8206148147583008
2024-12-07 18:18:21.585964800,1.42296484375,0.4073662161827087,-0.0210024155676364,0.8351715803146362
2024-12-07 18:18:21.595938600,1.4329384765625,0.4675169289112091,0.0659242272377014,0.8684917092323303
2024-12-07 18:18:21.605911800,1.442911865234375,0.5244405269622803,0.2008615881204605,0.9040722250938416
2024-12-07 18:18:21.615885800,1.4528857421875,0.5496827363967896,0.3219107687473297,0.9402046799659728
2024-12-07 18:18:21.625859800,1.46285986328125,0.5212025046348572,0.402906209230423,0.9896346926689148
2024-12-07 18:18:21.635833900,1.472833740234375,0.4555196166038513,0.367341548204422,1.0875449180603027
2024-12-07 18:18:21.645807600,1.4828076171875,0.3996315002441406,0.1754834204912185,1.1616445779800415
2024-12-07 18:18:21.655781600,1.49278173828125,0.3396464586257934,-0.1060417294502258,1.1397137641906738
2024-12-07 18:18:21.665755600,1.502755615234375,0.2605917453765869,-0.2903327643871307,1.0086041688919067
2024-12-07 18:18:21.675729700,1.512729736328125,0.2017311006784439,-0.3983052968978882,0.8040961027145386
2024-12-07 18:18:21.685703700,1.52270361328125,0.1646701544523239,-0.4394678175449371,0.5726894736289978
2024-12-07 18:18:21.695677700,1.532677734375,0.1503644436597824,-0.4273810386657715,0.362412691116333
2024-12-07 18:18:21.705650700,1.542650634765625,0.1815451085567474,-0.3907918035984039,0.206087440252304
2024-12-07 18:18:21.715624700,1.552624755859375,0.2357223331928253,-0.3456285893917084,0.1140744313597679
2024-12-07 18:18:21.725598700,1.5625986328125,0.2686439156532287,-0.2959344685077667,0.0646680817008018
2024-12-07 18:18:21.735572700,1.57257275390625,0.2637684643268585,-0.2588118612766266,0.0253401212394237
2024-12-07 18:18:21.745546500,1.58254638671875,0.2535919845104217,-0.2208391427993774,-0.0088493302464485
2024-12-07 18:18:21.755520500,1.5925205078125,0.2470065355300903,-0.1869554817676544,-0.0377430282533168
2024-12-07 18:18:21.765494500,1.60249462890625,0.24185810983181,-0.1587829738855362,-0.0683600604534149
2024-12-07 18:18:21.775468500,1.612468505859375,0.2429023385047912,-0.1454652994871139,-0.1119815781712532
2024-12-07 18:18:21.785442600,1.622442626953125,0.2551774382591247,-0.1312323361635208,-0.1487621366977691
2024-12-07 18:18:21.795416600,1.63241650390625,0.2846117615699768,-0.1047187075018882,-0.1625634431838989
2024-12-07 18:18:21.805390600,1.642390625,0.1509968042373657,-0.1572006046772003,-0.0295600350946187
2024-12-07 18:18:21.815363600,1.652363525390625,-0.1486780643463134,-0.3008685410022735,0.0798239782452583
2024-12-07 18:18:21.825337600,1.662337646484375,-0.2604107558727264,-0.4669428467750549,0.0650090053677558
2024-12-07 18:18:21.835311600,1.6723115234375,-0.3151980936527252,-0.6234182119369507,-0.0074265804141759
2024-12-07 18:18:21.845285600,1.68228564453125,-0.3826251029968261,-0.7262383699417114,-0.0734077990055084
2024-12-07 18:18:21.855259600,1.692259765625,-0.4372119307518005,-0.7953082919120789,-0.1273450553417205
2024-12-07 18:18:21.865233700,1.702233642578125,-0.4593279659748077,-0.8579418659210205,-0.1751781105995178
2024-12-07 18:18:21.875207700,1.712207763671875,-0.4795109927654266,-0.8981267809867859,-0.2387070208787918
2024-12-07 18:18:21.885181700,1.722181640625,-0.5371924638748169,-0.9349596500396729,-0.319828987121582
2024-12-07 18:18:21.895155700,1.73215576171875,-0.5656059980392456,-0.9528387784957886,-0.3948973715305328
2024-12-07 18:18:21.905129700,1.742129638671875,-0.5855682492256165,-0.9575276374816896,-0.4392892122268677
2024-12-07 18:18:21.915103700,1.752103759765625,-0.6072604656219482,-0.9427465796470642,-0.473341703414917
2024-12-07 18:18:21.925076700,1.76207666015625,-0.6499248743057251,-0.901484191417694,-0.5066803097724915
2024-12-07 18:18:21.935050800,1.77205078125,-0.6783030033111572,-0.8573883771896362,-0.5409647822380066
2024-12-07 18:18:21.945024800,1.782024658203125,-0.6545676589012146,-0.8375080823898315,-0.5667378902435303
2024-12-07 18:18:21.954998800,1.791998779296875,-0.5999840497970581,-0.8337700366973877,-0.6163592338562012
2024-12-07 18:18:21.964972800,1.801972900390625,-0.5348168015480042,-0.8440625071525574,-0.6862834692001343
2024-12-07 18:18:21.974946800,1.81194677734375,-0.4704569578170776,-0.8391777276992798,-0.7222710251808167
2024-12-07 18:18:21.984920800,1.8219208984375,-0.4128822982311249,-0.8310746550559998,-0.6963366866111755
2024-12-07 18:18:21.994894800,1.831894775390625,-0.3686700761318207,-0.7973710298538208,-0.6335718035697937
2024-12-07 18:18:22.004868900,1.841868896484375,-0.3468100726604461,-0.7358953356742859,-0.5738431215286255
2024-12-07 18:18:22.014842600,1.851842529296875,-0.3523806035518646,-0.6825602054595947,-0.5406702756881714
2024-12-07 18:18:22.024815900,1.86181591796875,-0.3569369614124298,-0.6385173797607422,-0.5299017429351807
2024-12-07 18:18:22.034790000,1.871789794921875,-0.3763335645198822,-0.5905821323394775,-0.544288158416748
2024-12-07 18:18:22.044764000,1.881763916015625,-0.4099881052970886,-0.5322479605674744,-0.5836595296859741
2024-12-07 18:18:22.054738000,1.891738037109375,-0.4904912114143371,-0.4619242548942566,-0.6221991777420044
2024-12-07 18:18:22.064712000,1.9017119140625,-0.5370216965675354,-0.4348381757736206,-0.6328721046447754
2024-12-07 18:18:22.074685700,1.911685791015625,-0.5824152231216431,-0.4443203508853912,-0.6332274079322815
2024-12-07 18:18:22.084659700,1.92165966796875,-0.6432415246963501,-0.4706364572048187,-0.6308125257492065
2024-12-07 18:18:22.094633500,1.931633544921875,-0.6554291844367981,-0.548069953918457,-0.6464255452156067
2024-12-07 18:18:22.104607500,1.941607421875,-0.465005099773407,-0.6660227179527283,-0.671117901802063
2024-12-07 18:18:22.114581500,1.95158154296875,-0.2738263309001922,-0.8223814368247986,-0.6553645133972168
2024-12-07 18:18:22.124555500,1.961555419921875,-0.3795037269592285,-0.9304361343383788,-0.5363771319389343
2024-12-07 18:18:22.134528500,1.971528564453125,-0.9039664268493652,-0.8577126860618591,-0.3699652552604675
2024-12-07 18:18:22.144502500,1.98150244140625,-1.3802934885025024,-0.8104991316795349,-0.2392566353082656
2024-12-07 18:18:22.154476500,1.9914765625,-1.4457627534866333,-0.8276440501213074,-0.1429426074028015
2024-12-07 18:18:22.164450600,2.001450439453125,-1.260454773902893,-0.810776948928833,-0.1263364404439926
2024-12-07 18:18:22.174424600,2.011424560546875,-0.9491808414459229,-0.6907256245613098,-0.1450230330228805
2024-12-07 18:18:22.184398600,2.021398681640625,-0.5242509841918945,-0.4890750050544739,-0.1627237796783447
2024-12-07 18:18:22.194372600,2.03137255859375,-0.2714645564556122,-0.2023726999759674,-0.1264411360025406
2024-12-07 18:18:22.204346600,2.0413466796875,-0.3065525591373443,-0.0142557118088006,-0.143396571278572
2024-12-07 18:18:22.214320600,2.051320556640625,-0.3351434767246246,-0.1472374647855758,-0.1204025670886039
2024-12-07 18:18:22.224294700,2.061294677734375,-0.1551581025123596,-0.3240397572517395,-0.0931324213743209
2024-12-07 18:18:22.234268700,2.0712685546875,-0.0140385311096906,-0.2670944333076477,-0.1582075506448745
2024-12-07 18:18:22.244241700,2.08124169921875,0.0516705848276615,-0.0637552961707115,-0.2442751079797744
2024-12-07 18:18:22.254215700,2.091215576171875,0.1176357567310333,0.180258423089981,-0.2711802423000335
2024-12-07 18:18:22.264189700,2.101189697265625,0.227639228105545,0.4260724782943725,-0.2393714934587478
2024-12-07 18:18:22.274163700,2.111163818359375,0.3671126961708069,0.6414774656295776,-0.207456961274147
2024-12-07 18:18:22.284137700,2.1211376953125,0.6130780577659607,0.8419616222381592,-0.2546650171279907
2024-12-07 18:18:22.294111700,2.13111181640625,0.8751142024993896,1.001956820487976,-0.4205541312694549
2024-12-07 18:18:22.304085800,2.141085693359375,1.008695363998413,1.0656147003173828,-0.6510564088821411
2024-12-07 18:18:22.314059800,2.151059814453125,1.0046463012695312,0.9764800071716307,-0.8751752376556396
2024-12-07 18:18:22.324033800,2.16103369140625,0.855413019657135,0.6470942497253418,-0.8894089460372925
2024-12-07 18:18:22.334007800,2.1710078125,0.5802943706512451,0.1968943178653717,-0.7142176628112793
2024-12-07 18:18:22.343980800,2.180980712890625,0.23748879134655,-0.220962107181549,-0.4650069177150726
2024-12-07 18:18:22.353954800,2.190954833984375,-0.106867529451847,-0.4774546027183532,-0.2663646638393402
2024-12-07 18:18:22.363928800,2.2009287109375,-0.2516135275363922,-0.5407829880714417,-0.2219374775886535
2024-12-07 18:18:22.373902800,2.21090283203125,-0.1448418200016021,-0.5274368524551392,-0.3137574195861816
2024-12-07 18:18:22.383876900,2.220876953125,-0.0068084052763879,-0.4490711987018585,-0.4306252002716064
2024-12-07 18:18:22.393851000,2.230850830078125,0.0286776833236217,-0.3557260632514953,-0.4751361906528473
2024-12-07 18:18:22.403825000,2.240824951171875,0.0054341037757694,-0.3108444511890411,-0.4104312658309936
2024-12-07 18:18:22.413799000,2.250798828125,-0.005590584129095,-0.333414763212204,-0.2895447909832001
2024-12-07 18:18:22.423773000,2.26077294921875,0.0027002054266631,-0.3557937741279602,-0.1769949048757553
2024-12-07 18:18:22.433746700,2.27074658203125,-0.010491763241589,-0.3455550074577331,-0.1297070086002349
2024-12-07 18:18:22.443720700,2.280720703125,0.0020387305412441,-0.3330638110637665,-0.1558438688516616
2024-12-07 18:18:22.453693700,2.290693603515625,0.032930064946413,-0.2899807691574096,-0.2269952744245529
2024-12-07 18:18:22.463667700,2.300667724609375,0.0687347501516342,-0.274103045463562,-0.2858609557151794
2024-12-07 18:18:22.473641700,2.310641845703125,0.1047036722302436,-0.3284733295440674,-0.3032546043395996
2024-12-07 18:18:22.483615700,2.32061572265625,0.1474874764680862,-0.4322084784507751,-0.2755160331726074
2024-12-07 18:18:22.493589800,2.33058984375,0.177540436387062,-0.5160053372383118,-0.2421839088201522
2024-12-07 18:18:22.503563500,2.3405634765625,0.1784505844116211,-0.5290666818618774,-0.215239942073822
2024-12-07 18:18:22.513537500,2.35053759765625,0.1684053987264633,-0.5597084760665894,-0.2103003114461898
2024-12-07 18:18:22.523511600,2.360511474609375,0.1324371844530105,-0.5978859663009644,-0.2343392223119735
2024-12-07 18:18:22.533485600,2.370485595703125,0.0824504345655441,-0.5621756911277771,-0.2880271971225738
2024-12-07 18:18:22.543459600,2.38045947265625,0.0621892474591732,-0.6006678342819214,-0.3393173217773437
2024-12-07 18:18:22.553433600,2.39043359375,0.0532820411026477,-0.7369945049285889,-0.3596300482749939
2024-12-07 18:18:22.563406600,2.400406494140625,0.0432729311287403,-0.8192325234413147,-0.3754691183567047
2024-12-07 18:18:22.573380600,2.410380615234375,0.0566151030361652,-0.7738471627235413,-0.4379178285598755
2024-12-07 18:18:22.583354600,2.420354736328125,0.0472360365092754,-0.7562392950057983,-0.4864462912082672
2024-12-07 18:18:22.593328600,2.43032861328125,0.0238883681595325,-0.7204083204269409,-0.5314489006996155
2024-12-07 18:18:22.603302700,2.440302734375,0.0176664385944604,-0.6706758737564087,-0.5765685439109802
2024-12-07 18:18:22.613276700,2.450276611328125,0.0449811480939388,-0.5770351886749268,-0.6045793890953064
2024-12-07 18:18:22.623250700,2.460250732421875,0.014720382168889,-0.424734503030777,-0.5747507810592651
2024-12-07 18:18:22.633224700,2.470224609375,-0.0141253797337412,-0.2517717778682709,-0.5049179196357727
2024-12-07 18:18:22.643198700,2.48019873046875,-0.0660997703671455,-0.0920624583959579,-0.4124267697334289
2024-12-07 18:18:22.653172700,2.4901728515625,-0.0976742133498191,0.035783652216196,-0.3323457837104797
2024-12-07 18:18:22.663146500,2.500146484375,-0.108463168144226,0.1269834637641906,-0.2740553319454193
2024-12-07 18:18:22.673119500,2.510119384765625,-0.1189640164375305,0.1776003092527389,-0.2349734157323837
2024-12-07 18:18:22.683093500,2.520093505859375,-0.1138201355934143,0.1957081705331802,-0.2095132619142532
2024-12-07 18:18:22.693067500,2.530067626953125,-0.0891962796449661,0.1881330758333206,-0.2108746767044067
2024-12-07 18:18:22.703041500,2.54004150390625,-0.0589399635791778,0.1807797104120254,-0.2442584931850433
2024-12-07 18:18:22.713015600,2.550015625,-0.037361167371273,0.2060480415821075,-0.2948258221149444
2024-12-07 18:18:22.722989600,2.559989501953125,-0.0262920912355184,0.2654045820236206,-0.342086523771286
2024-12-07 18:18:22.732963600,2.569963623046875,-0.0764551237225532,0.333852618932724,-0.3237211108207702
2024-12-07 18:18:22.742937600,2.5799375,-0.1414576768875122,0.3937451839447021,-0.237258031964302
2024-12-07 18:18:22.752911600,2.58991162109375,-0.21592977643013,0.4630177319049835,-0.0837363898754119
2024-12-07 18:18:22.762885600,2.5998857421875,-0.2564959526062011,0.574947714805603,0.0744850486516952
2024-12-07 18:18:22.772859600,2.609859619140625,-0.2560517191886902,0.7041602730751038,0.1943925470113754
2024-12-07 18:18:22.782832600,2.61983251953125,-0.2391175925731659,0.8130462169647217,0.2484132200479507
2024-12-07 18:18:22.792806700,2.629806640625,-0.2208927720785141,0.883329451084137,0.2350803762674331
2024-12-07 18:18:22.802780700,2.63978076171875,-0.2020720690488815,0.90192973613739,0.1878206133842468
2024-12-07 18:18:22.812754700,2.649754638671875,-0.1798375993967056,0.8286150097846985,0.1144172474741935
2024-12-07 18:18:22.822728700,2.659728759765625,-0.1519046872854232,0.6749258637428284,0.0461241640150547
2024-12-07 18:18:22.832702700,2.66970263671875,-0.0857387110590934,0.5268152356147766,-0.0173394978046417
2024-12-07 18:18:22.842676700,2.6796767578125,-0.0137142054736614,0.3552206158638,-0.0089852735400199
2024-12-07 18:18:22.852650800,2.689650634765625,0.0202323086559772,0.2544761598110199,0.0755336061120033
2024-12-07 18:18:22.862624800,2.699624755859375,0.0516782850027084,0.265238493680954,0.1871504634618759
2024-12-07 18:18:22.872598500,2.7095986328125,0.108289897441864,0.4022994339466095,0.3064190745353699
2024-12-07 18:18:22.882572500,2.719572509765625,0.2218557596206665,0.5852944254875183,0.4492296874523163
2024-12-07 18:18:22.892545800,2.7295458984375,0.3554303348064422,0.7053627967834473,0.6205892562866211
2024-12-07 18:18:22.902519800,2.739519775390625,0.4582219421863556,0.7208024859428406,0.8029143214225769
2024-12-07 18:18:22.912493800,2.749493896484375,0.5261600017547607,0.6268796920776367,0.9631689190864564
2024-12-07 18:18:22.922467600,2.759467529296875,0.5862461924552917,0.4558994770050049,1.0754791498184204
2024-12-07 18:18:22.932441600,2.769441650390625,0.6546337604522705,0.2718633413314819,1.148212432861328
2024-12-07 18:18:22.942415600,2.77941552734375,0.7285414338111877,0.1202517002820968,1.162806272506714
2024-12-07 18:18:22.952389600,2.7893896484375,0.8032199144363403,0.026994451880455,1.1150041818618774
2024-12-07 18:18:22.962363600,2.79936376953125,0.8449008464813232,0.0376280508935451,1.039599895477295
2024-12-07 18:18:22.972337700,2.809337646484375,0.8419809937477112,0.162156656384468,1.002749800682068
2024-12-07 18:18:22.982311700,2.819311767578125,0.8263648152351379,0.3624096810817718,1.0493539571762085
2024-12-07 18:18:22.992285700,2.82928564453125,0.7622057795524597,0.652113676071167,1.1688413619995115
2024-12-07 18:18:23.002258400,2.839258544921875,0.6509454250335693,1.0334560871124268,1.36405348777771
2024-12-07 18:18:23.012232400,2.849232421875,0.5612019896507263,1.4524682760238647,1.619779348373413
2024-12-07 18:18:23.022206500,2.85920654296875,0.5305528044700623,1.832080364227295,1.8664755821228027
2024-12-07 18:18:23.032180500,2.869180419921875,0.5704451203346252,2.1031651496887207,2.04885482788086
2024-12-07 18:18:23.042154500,2.879154541015625,0.6429577469825745,2.2571489810943604,2.143406629562378
2024-12-07 18:18:23.052128500,2.88912841796875,0.6976990103721619,2.2914650440216064,2.146746873855591
2024-12-07 18:18:23.062102500,2.8991025390625,0.6644808650016785,2.215895891189575,2.1020500659942627
2024-12-07 18:18:23.072076500,2.90907666015625,0.5624088048934937,1.9361835718154907,2.011267900466919
2024-12-07 18:18:23.082050600,2.919050537109375,0.4265544712543487,1.4349932670593262,1.875853180885315
2024-12-07 18:18:23.092024600,2.929024658203125,0.2859499752521515,0.858489990234375,1.6679356098175049
2024-12-07 18:18:23.101998600,2.93899853515625,0.1564599275588989,0.4519594013690948,1.427350997924805
2024-12-07 18:18:23.111971600,2.9489716796875,0.0311491377651691,0.2985059320926666,1.2162212133407593
2024-12-07 18:18:23.121945600,2.958945556640625,-0.0422145277261734,0.3974371552467346,1.0715452432632446
2024-12-07 18:18:23.131919600,2.968919677734375,-0.0448220260441303,0.6982398629188538,1.0033035278320312
2024-12-07 18:18:23.141893600,2.9788935546875,0.0132613582536578,1.0621992349624634,0.957066774368286
2024-12-07 18:18:23.151867600,2.98886767578125,0.1285546571016311,1.3322103023529053,0.9053550958633424
2024-12-07 18:18:23.161841700,2.998841552734375,0.2459450662136078,1.5328229665756226,0.7996791005134583
2024-12-07 18:18:23.171815700,3.008815673828125,0.3336804807186126,1.6023290157318115,0.6349940299987793
2024-12-07 18:18:23.181789700,3.018789794921875,0.3650441169738769,1.471357345581055,0.4543146193027496
2024-12-07 18:18:23.191763700,3.028763671875,0.3674540221691131,1.152379870414734,0.2665527164936065
2024-12-07 18:18:23.201737700,3.03873779296875,0.3415058851242065,0.772611677646637,0.083614096045494
2024-12-07 18:18:23.211711700,3.048711669921875,0.3119511902332306,0.4067423045635223,-0.0669509097933769
2024-12-07 18:18:23.221684700,3.058684814453125,0.2650509774684906,0.1291497945785522,-0.1580285131931305
2024-12-07 18:18:23.231658800,3.06865869140625,0.2091493606567382,-0.032773595303297,-0.2050487548112869
2024-12-07 18:18:23.241632800,3.0786328125,0.1533868163824081,-0.1364542990922927,-0.2409580647945404
2024-12-07 18:18:23.251606800,3.088606689453125,0.0961008891463279,-0.1985221952199936,-0.2766881287097931
2024-12-07 18:18:23.261580800,3.098580810546875,0.0556232817471027,-0.2529203295707702,-0.3330413699150085
2024-12-07 18:18:23.271554800,3.108554931640625,0.022760672494769,-0.3091646730899811,-0.4153857827186584
2024-12-07 18:18:23.281528800,3.11852880859375,0.0189678221940994,-0.3311282694339752,-0.5270482897758484
2024-12-07 18:18:23.291502600,3.128502685546875,0.0477464757859706,-0.3135330080986023,-0.6605070233345032
2024-12-07 18:18:23.301476600,3.1384765625,0.0511570572853088,-0.2814436554908752,-0.7774216532707214
2024-12-07 18:18:23.311450600,3.14845068359375,-0.0108645018190145,-0.3313821852207184,-0.8245012760162354
2024-12-07 18:18:23.321424600,3.158424560546875,-0.1236811131238937,-0.4718224704265594,-0.7817676663398743
2024-12-07 18:18:23.331397600,3.168397705078125,-0.270311564207077,-0.5594556331634521,-0.7156110405921936
2024-12-07 18:18:23.341371600,3.17837158203125,-0.3968783318996429,-0.6020473837852478,-0.6344952583312988
2024-12-07 18:18:23.351345700,3.188345703125,-0.4770439863204956,-0.586791455745697,-0.5505406856536865
2024-12-07 18:18:23.361319400,3.1983193359375,-0.504315197467804,-0.530574381351471,-0.4604719579219818
2024-12-07 18:18:23.371293400,3.20829345703125,-0.4895602464675903,-0.5007339119911194,-0.3806610107421875
2024-12-07 18:18:23.381267500,3.218267333984375,-0.4425579607486725,-0.531785786151886,-0.3308678865432739
2024-12-07 18:18:23.391241500,3.228241455078125,-0.3916862607002258,-0.5999851226806641,-0.3245458006858825
2024-12-07 18:18:23.401215500,3.238215576171875,-0.3537404835224151,-0.6288437247276306,-0.3615705370903015
2024-12-07 18:18:23.411189500,3.248189453125,-0.3093802034854889,-0.5683172345161438,-0.4249183535575866
2024-12-07 18:18:23.421163500,3.25816357421875,-0.23350590467453,-0.4306584000587463,-0.4841488599777221
2024-12-07 18:18:23.431137500,3.268137451171875,-0.1286564618349075,-0.2538868188858032,-0.5305458903312683
2024-12-07 18:18:23.441110500,3.278110595703125,-0.0178812239319086,-0.1299028247594833,-0.5219728350639343
2024-12-07 18:18:23.451084500,3.28808447265625,0.0499007515609264,-0.113613873720169,-0.4567744135856628
2024-12-07 18:18:23.461058600,3.29805859375,0.0527724511921405,-0.1339026093482971,-0.3805077075958252
2024-12-07 18:18:23.471032600,3.308032470703125,0.01172461733222,-0.1350243240594864,-0.3395722508430481
2024-12-07 18:18:23.481006600,3.318006591796875,-0.0254016760736703,-0.1412283331155777,-0.3551303446292877
2024-12-07 18:18:23.490980600,3.327980712890625,-0.0326156467199325,-0.1532226800918579,-0.4030509889125824
2024-12-07 18:18:23.500954600,3.33795458984375,-0.0207828227430582,-0.1379730105400085,-0.4426461160182953
2024-12-07 18:18:23.510928600,3.3479287109375,0.0048431786708533,-0.0808292850852012,-0.4670779407024383
2024-12-07 18:18:23.520902700,3.357902587890625,0.0177812147885561,0.0118283219635486,-0.482278436422348
2024-12-07 18:18:23.530876700,3.367876708984375,0.0145814269781112,0.1143435090780258,-0.4850590527057647
2024-12-07 18:18:23.540850700,3.3778505859375,0.0083425119519233,0.1053617000579834,-0.4714565873146057
2024-12-07 18:18:23.550824700,3.38782470703125,0.0151657965034246,-0.1317075788974762,-0.4523572027683258
2024-12-07 18:18:23.560797700,3.397797607421875,0.0412558056414127,-0.5899941921234131,-0.4582470655441284
2024-12-07 18:18:23.570771200,3.407771240234375,0.0933267325162887,-1.1443144083023071,-0.4978330731391907
2024-12-07 18:18:23.580745200,3.4177451171875,0.1361529678106308,-1.6043905019760132,-0.5270231366157532
2024-12-07 18:18:23.590719200,3.42771923828125,0.1129504442214965,-1.7933982610702517,-0.5336072444915771
2024-12-07 18:18:23.600693200,3.437693359375,-0.0322496555745601,-1.5356565713882446,-0.4596025943756103
2024-12-07 18:18:23.610667300,3.447667236328125,-0.1312899589538574,-0.8953573107719421,-0.251352995634079
2024-12-07 18:18:23.620641300,3.457641357421875,-0.103809081017971,-0.2110075205564499,-0.0156854875385761
2024-12-07 18:18:23.630615300,3.467615234375,-0.0041501349769532,0.2249780446290969,0.1615303009748459
2024-12-07 18:18:23.640589300,3.47758935546875,0.101308487355709,0.2721551954746246,0.2306133955717086
2024-12-07 18:18:23.650563300,3.487563232421875,0.1618168354034423,0.0425318554043769,0.1717274338006973
2024-12-07 18:18:23.660536300,3.497536376953125,0.1271935105323791,-0.2836295068264007,0.0185416601598262
2024-12-07 18:18:23.670510300,3.50751025390625,0.0206329878419637,-0.6033824682235718,-0.1563241630792617
2024-12-07 18:18:23.680484400,3.517484375,-0.1115499138832092,-0.8532559275627136,-0.2876712381839752
2024-12-07 18:18:23.690458400,3.527458251953125,-0.2488957792520523,-0.9992961883544922,-0.3463268280029297
2024-12-07 18:18:23.700432400,3.537432373046875,-0.3546385765075683,-1.0276210308074951,-0.3270806670188904
2024-12-07 18:18:23.710406400,3.547406494140625,-0.3928243219852447,-1.0034438371658323,-0.2634926438331604
2024-12-07 18:18:23.720380400,3.55738037109375,-0.409485250711441,-0.8873760104179382,-0.227440595626831
2024-12-07 18:18:23.730354400,3.5673544921875,-0.4117412269115448,-0.6603226065635681,-0.2957064509391784
2024-12-07 18:18:23.740328200,3.577328125,-0.3627600967884063,-0.3679078817367553,-0.4869894981384277
2024-12-07 18:18:23.750302200,3.58730224609375,-0.2398717254400253,-0.127272367477417,-0.7285072803497314
2024-12-07 18:18:23.760276200,3.597276123046875,-0.1021623089909553,-0.0594215728342533,-0.8770740032196045
2024-12-07 18:18:23.770250200,3.607250244140625,-0.0067955795675516,-0.1561084389686584,-0.88808274269104
2024-12-07 18:18:23.780223500,3.617223388671875,0.0494772493839263,-0.3168723881244659,-0.7977103590965271
2024-12-07 18:18:23.790197200,3.627197265625,0.0686307027935981,-0.4216895997524261,-0.6775168180465698
2024-12-07 18:18:23.800171300,3.637171142578125,0.0506858937442302,-0.4445285499095917,-0.5747822523117065
2024-12-07 18:18:23.810145300,3.647145263671875,0.0058680898509919,-0.3926067650318146,-0.5011104941368103
2024-12-07 18:18:23.820119300,3.657119384765625,-0.0546007677912712,-0.2775638699531555,-0.4468055665493011
2024-12-07 18:18:23.830093300,3.66709326171875,-0.1232269704341888,-0.1367396116256714,-0.4013928174972534
2024-12-07 18:18:23.840067300,3.6770673828125,-0.188152864575386,0.0254921838641166,-0.3573356866836548
2024-12-07 18:18:23.850041300,3.687041259765625,-0.2480737268924713,0.2021335214376449,-0.2744024395942688
2024-12-07 18:18:23.860015400,3.697015380859375,-0.2737780809402466,0.3349329531192779,-0.1544074714183807
2024-12-07 18:18:23.869989400,3.7069892578125,-0.2956290543079376,0.3878446221351623,-0.0406066067516803
2024-12-07 18:18:23.879963400,3.71696337890625,-0.3101099133491516,0.4213363528251648,0.0118905249983072
2024-12-07 18:18:23.889936100,3.72693603515625,-0.2369989156723022,0.4466209411621094,-0.0200045574456453
2024-12-07 18:18:23.899910100,3.73691015625,-0.1221322864294052,0.3520157635211944,-0.1048492193222045
2024-12-07 18:18:23.909884200,3.74688427734375,-0.001207468798384,0.1309678107500076,-0.2259857654571533
2024-12-07 18:18:23.919858200,3.756858154296875,0.0956283062696456,-0.1752833276987075,-0.3765569031238556
2024-12-07 18:18:23.929832200,3.766832275390625,0.1570389419794082,-0.4732804298400879,-0.5416286587715149
2024-12-07 18:18:23.939806200,3.77680615234375,0.1806343793869018,-0.7242116332054138,-0.6749463677406311
2024-12-07 18:18:23.949780200,3.7867802734375,0.1630806922912597,-0.8846756219863892,-0.7305709719657898
2024-12-07 18:18:23.959754200,3.796754150390625,0.1204648539423942,-0.9451627135276794,-0.704361617565155
2024-12-07 18:18:23.969728300,3.806728271484375,0.0693444162607193,-0.9349436163902284,-0.6410582661628723
2024-12-07 18:18:23.979702300,3.816702392578125,0.0105969030410051,-0.8186377286911011,-0.5652095675468445
2024-12-07 18:18:23.989676300,3.82667626953125,-0.0282924398779869,-0.6372484564781189,-0.5147978067398071
2024-12-07 18:18:23.999649300,3.836649169921875,-0.0491724275052547,-0.4110512733459472,-0.4852593541145324
2024-12-07 18:18:24.009623300,3.846623291015625,-0.0209791399538517,-0.1663669496774673,-0.4804539680480957
2024-12-07 18:18:24.019597300,3.856597412109375,-0.021445695310831,0.0212339367717504,-0.4761459529399872
2024-12-07 18:18:24.029571300,3.8665712890625,-0.0495348535478115,0.1392295509576797,-0.4618927240371704
2024-12-07 18:18:24.039545300,3.87654541015625,-0.0974546000361442,0.2056507021188736,-0.4295625984668731
2024-12-07 18:18:24.049519400,3.886519287109375,-0.1827271431684494,0.2343222945928573,-0.3798642754554748
2024-12-07 18:18:24.059493400,3.896493408203125,-0.264729768037796,0.2578497529029846,-0.3256442546844482
2024-12-07 18:18:24.069467400,3.90646728515625,-0.2731125950813293,0.2536022961139679,-0.2862188220024109
2024-12-07 18:18:24.079441400,3.91644140625,-0.2498167604207992,0.2288461327552795,-0.2616827189922333
2024-12-07 18:18:24.090038300,3.927038330078125,-0.232314720749855,0.1900542676448822,-0.2650185823440552
2024-12-07 18:18:24.100012300,3.93701220703125,-0.2349640876054763,0.1703808307647705,-0.2757663130760193
2024-12-07 18:18:24.109986300,3.946986328125,-0.2619794607162475,0.1558804512023925,-0.256988376379013
2024-12-07 18:18:24.119959300,3.956959228515625,-0.2964684963226318,0.1513668596744537,-0.201025903224945
2024-12-07 18:18:24.129933300,3.966933349609375,-0.2934066355228424,0.1760301291942596,-0.1359049677848816
2024-12-07 18:18:24.139907300,3.9769072265625,-0.3147216141223907,0.1787297129631042,-0.0504557378590106
2024-12-07 18:18:24.149881300,3.98688134765625,-0.3171736001968384,0.2215536087751388,-0.009390328079462
2024-12-07 18:18:24.159855400,3.99685546875,-0.2850282192230224,0.262975811958313,-0.0215285494923591
2024-12-07 18:18:24.169829400,4.006829345703125,-0.247783362865448,0.2751730978488922,-0.0723672285676002
2024-12-07 18:18:24.179803400,4.016803466796875,-0.2252677232027053,0.2443817555904388,-0.1324721127748489
2024-12-07 18:18:24.189777400,4.02677734375,-0.2036146223545074,0.1911145448684692,-0.1889817267656326
2024-12-07 18:18:24.199751400,4.03675146484375,-0.17804616689682,0.1465494036674499,-0.222811222076416
2024-12-07 18:18:24.209725400,4.046725341796875,-0.1485457867383957,0.1175981760025024,-0.2288565933704376
2024-12-07 18:18:24.219699500,4.056699462890625,-0.1209977343678474,0.0952533856034278,-0.2077085524797439
2024-12-07 18:18:24.229673500,4.066673583984375,-0.1019473448395729,0.0836020559072494,-0.1763362437486648
2024-12-07 18:18:24.239646500,4.076646484375,-0.1032595485448837,0.0841009020805358,-0.1359297931194305
2024-12-07 18:18:24.249620500,4.086620361328125,-0.1070729345083236,0.1097303628921508,-0.1019989773631095
2024-12-07 18:18:24.259594500,4.096594482421875,-0.0447896681725978,0.1971592903137207,-0.0968100950121879
2024-12-07 18:18:24.269568300,4.106568359375,-0.0369463935494422,0.2253350019454956,-0.0419335328042507
2024-12-07 18:18:24.279542300,4.116542236328125,-0.102307803928852,0.2462930828332901,0.0390187166631221
2024-12-07 18:18:24.289516300,4.126516357421875,-0.1355935931205749,0.2869877815246582,0.1108127459883689
2024-12-07 18:18:24.299490300,4.136490234375,-0.1031053811311721,0.2909142076969147,0.1670065075159073
2024-12-07 18:18:24.309464300,4.14646435546875,-0.0693647265434265,0.2829242050647735,0.2223150432109832
2024-12-07 18:18:24.319438300,4.156438232421875,-0.0396538078784942,0.2453290969133377,0.281743586063385
2024-12-07 18:18:24.329412000,4.166412109375,0.0036225619260221,0.1666555851697921,0.3230548202991485
2024-12-07 18:18:24.339386000,4.17638623046875,0.0681781396269798,0.0862316489219665,0.3371851444244385
2024-12-07 18:18:24.349359400,4.186359375,0.1430489122867584,0.0402119569480419,0.3543660044670105
2024-12-07 18:18:24.359333400,4.19633349609375,0.3004072308540344,0.0870275199413299,0.3556110560894012
2024-12-07 18:18:24.369307400,4.206307373046875,0.4569542407989502,0.1084044501185417,0.3594822287559509
2024-12-07 18:18:24.379281400,4.216281494140625,0.5536888241767883,0.1410225331783294,0.3641859889030456
2024-12-07 18:18:24.389255200,4.226255126953125,0.5786991119384766,0.1216059550642967,0.3961479365825653
2024-12-07 18:18:24.399852300,4.236852294921875,0.5048156976699829,0.0292947236448526,0.4851810038089752
2024-12-07 18:18:24.409826300,4.246826416015625,0.3917543888092041,-0.0586029104888439,0.6193321347236633
2024-12-07 18:18:24.419800300,4.25680029296875,0.3760974705219269,-0.1001634076237678,0.767129123210907
2024-12-07 18:18:24.429774300,4.2667744140625,0.4232615232467651,-0.0733690783381462,0.923800766468048
2024-12-07 18:18:24.439748400,4.276748291015625,0.4600078463554382,0.0145762804895639,1.1018893718719482
2024-12-07 18:18:24.449722400,4.286722412109375,0.4591942429542541,0.1331221014261245,1.2855889797210691
2024-12-07 18:18:24.459696400,4.2966962890625,0.446317195892334,0.301307737827301,1.4543702602386477
2024-12-07 18:18:24.469670400,4.30667041015625,0.455393522977829,0.5521385669708252,1.595776915550232
2024-12-07 18:18:24.479644400,4.31664453125,0.5098174214363098,0.8735516667366028,1.7015761137008667
2024-12-07 18:18:24.489617400,4.326617431640625,0.6135613918304443,1.2004117965698242,1.780639410018921
2024-12-07 18:18:24.499591400,4.33659130859375,0.7328436374664307,1.4391822814941406,1.8809744119644165
2024-12-07 18:18:24.509565400,4.3465654296875,0.8322644829750061,1.4686293601989746,2.021587610244751
2024-12-07 18:18:24.519539500,4.35653955078125,0.8518306016921997,1.2621421813964844,2.124206066131592
2024-12-07 18:18:24.529513500,4.366513427734375,0.7792258858680725,0.949573576450348,2.1125054359436035
2024-12-07 18:18:24.539487500,4.376487548828125,0.656816840171814,0.7252985239028931,1.975751996040344
2024-12-07 18:18:24.549461200,4.386461181640625,0.5424644351005554,0.689728856086731,1.7319878339767456
2024-12-07 18:18:24.559435300,4.396435302734375,0.4406113028526306,0.8825842142105103,1.4609109163284302
2024-12-07 18:18:24.569409300,4.4064091796875,0.3810643553733825,1.209802269935608,1.2432814836502075
2024-12-07 18:18:24.579383300,4.41638330078125,0.3816298246383667,1.546149492263794,1.11225163936615
2024-12-07 18:18:24.589357300,4.426357421875,0.4297046661376953,1.8419262170791624,1.063753366470337
2024-12-07 18:18:24.599331300,4.436331298828125,0.5291225910186768,1.9904862642288208,1.0652687549591064
2024-12-07 18:18:24.609304300,4.44630419921875,0.597395658493042,2.0058560371398926,1.0570964813232422
2024-12-07 18:18:24.619278300,4.4562783203125,0.6024703979492188,1.919006109237671,1.001907229423523
2024-12-07 18:18:24.629252400,4.46625244140625,0.563971996307373,1.706790328025818,0.8909679651260376
2024-12-07 18:18:24.639226400,4.476226318359375,0.5218677520751953,1.369190692901611,0.7832028269767761
2024-12-07 18:18:24.649200400,4.486200439453125,0.4747023582458496,0.9338624477386476,0.6368061900138855
2024-12-07 18:18:24.659174100,4.496174072265625,0.4323584735393524,0.5020224452018738,0.4238213002681732
2024-12-07 18:18:24.669148200,4.506148193359375,0.3912262320518493,0.2187656760215759,0.1753864586353302
2024-12-07 18:18:24.679122200,4.5161220703125,0.3407566249370575,0.0659046396613121,-0.0519886538386344
2024-12-07 18:18:24.689096200,4.52609619140625,0.3100700974464416,-0.0996963083744049,-0.1896783411502838
2024-12-07 18:18:24.699070200,4.5360703125,0.3221060335636139,-0.3379651010036468,-0.2219999730587005
2024-12-07 18:18:24.709044200,4.546044189453125,0.3400695919990539,-0.4918300211429596,-0.2381491214036941
2024-12-07 18:18:24.719018200,4.556018310546875,0.3312181234359741,-0.5891544222831726,-0.2447641342878341
2024-12-07 18:18:24.728991200,4.5659912109375,0.2859182953834533,-0.6034348607063293,-0.2595835626125335
2024-12-07 18:18:24.738965200,4.57596533203125,0.213627278804779,-0.5830128192901611,-0.2888189256191253
2024-12-07 18:18:24.748939300,4.585939208984375,0.1425432562828064,-0.537595808506012,-0.3468124568462372
2024-12-07 18:18:24.758913300,4.595913330078125,0.0871767029166221,-0.5087810754776001,-0.4316663742065429
2024-12-07 18:18:24.768887300,4.60588720703125,0.0363473482429981,-0.4662160277366638,-0.5289825201034546
2024-12-07 18:18:24.778861300,4.615861328125,-0.020132228732109,-0.3662248849868774,-0.6033544540405273
2024-12-07 18:18:24.788835300,4.62583544921875,-0.0637659952044487,-0.2128752768039703,-0.6379899382591248
2024-12-07 18:18:24.798809300,4.635809326171875,-0.0998631417751312,-0.0468752719461917,-0.6278621554374695
2024-12-07 18:18:24.808783400,4.645783447265625,-0.1703884303569793,0.0522121638059616,-0.5679950714111328
2024-12-07 18:18:24.818757400,4.65575732421875,-0.3015647828578949,0.0962152630090713,-0.4914637506008148
2024-12-07 18:18:24.828731400,4.6657314453125,-0.4375279247760772,0.089736059308052,-0.419757068157196
2024-12-07 18:18:24.838705400,4.675705322265625,-0.5315364599227905,0.065248966217041,-0.3675567507743835
2024-12-07 18:18:24.848679400,4.685679443359375,-0.5832214951515198,0.0007330905646085,-0.3313095271587372
2024-12-07 18:18:24.858652400,4.69565234375,-0.6269845962524414,-0.1767546981573104,-0.2924290597438812
2024-12-07 18:18:24.868626400,4.70562646484375,-0.6759401559829712,-0.3976846635341644,-0.2875357568264007
2024-12-07 18:18:24.878600400,4.715600341796875,-0.705332338809967,-0.5642048716545105,-0.3268822133541107
2024-12-07 18:18:24.888574500,4.725574462890625,-0.688673198223114,-0.612888753414154,-0.401907205581665
2024-12-07 18:18:24.898548500,4.735548583984375,-0.6066078543663025,-0.5409225821495056,-0.4934355318546295
2024-12-07 18:18:24.908522200,4.745522216796875,-0.4391408264636993,-0.4087664186954498,-0.5749740600585938
2024-12-07 18:18:24.918496300,4.755496337890625,-0.2092670500278473,-0.2744271755218506,-0.6075760722160339
2024-12-07 18:18:24.928470300,4.76547021484375,0.0243821982294321,-0.2555861175060272,-0.5753374695777893
2024-12-07 18:18:24.938444300,4.7754443359375,0.2022966295480728,-0.3926326334476471,-0.4871751666069031
2024-12-07 18:18:24.948418300,4.785418212890625,0.2999403774738312,-0.5750120282173157,-0.40891233086586
2024-12-07 18:18:24.958392300,4.795392333984375,0.3311198949813843,-0.6922139525413513,-0.3986259698867798
2024-12-07 18:18:24.968366300,4.805366455078125,0.3265246152877807,-0.6561097502708435,-0.4592243432998657
2024-12-07 18:18:24.978339300,4.81533935546875,0.3158785402774811,-0.4361832439899444,-0.5534530878067017
2024-12-07 18:18:24.988313300,4.825313232421875,0.3108528852462768,-0.0980704352259635,-0.6234662532806396
2024-12-07 18:18:24.998287400,4.835287353515625,0.3079073131084442,0.2482884526252746,-0.6206703186035156
2024-12-07 18:18:25.008261000,4.84526123046875,0.282372385263443,0.4691870212554931,-0.5435240864753723
2024-12-07 18:18:25.018235100,4.855235107421875,0.2217428833246231,0.436470478773117,-0.4577686786651611
2024-12-07 18:18:25.028209200,4.865209228515625,0.1271212995052337,0.1114761605858802,-0.3909465074539184
2024-12-07 18:18:25.038183200,4.87518310546875,0.0150188701227307,-0.4208494424819946,-0.3408902883529663
2024-12-07 18:18:25.048157200,4.8851572265625,-0.0949438512325286,-1.008866548538208,-0.3042784631252289
2024-12-07 18:18:25.058131200,4.895131103515625,-0.1900422722101211,-1.4635348320007324,-0.3201014101505279
2024-12-07 18:18:25.068105200,4.905105224609375,-0.245044007897377,-1.6631922721862793,-0.360849380493164
2024-12-07 18:18:25.078079200,4.915079345703125,-0.2868750989437103,-1.568677306175232,-0.3886362612247467
2024-12-07 18:18:25.088053200,4.92505322265625,-0.3337967991828918,-1.2246824502944946,-0.400904893875122
2024-12-07 18:18:25.098027300,4.93502734375,-0.3076542317867279,-0.7195236682891846,-0.3875678181648254
2024-12-07 18:18:25.108000300,4.945000244140625,-0.2062663584947586,-0.186515986919403,-0.3132222294807434
2024-12-07 18:18:25.117974300,4.954974365234375,-0.0848115682601928,0.173640102148056,-0.1912281960248947
2024-12-07 18:18:25.127948300,4.9649482421875,-0.0245548877865076,0.2646757364273071,-0.0865260139107704
2024-12-07 18:18:25.137922300,4.97492236328125,-0.046838205307722,0.1542548686265945,-0.0437277853488922
2024-12-07 18:18:25.147896300,4.984896240234375,-0.1293197721242904,-0.0573700331151485,-0.0915110185742378
2024-12-07 18:18:25.157870300,4.994870361328125,-0.2421411871910095,-0.3276914954185486,-0.222214788198471
2024-12-07 18:18:25.167844400,5.00484423828125,-0.3704576194286346,-0.603517472743988,-0.3593436181545257
2024-12-07 18:18:25.177818400,5.014818359375,-0.5239852070808411,-0.7876400351524353,-0.4277831315994262
2024-12-07 18:18:25.187792400,5.02479248046875,-0.6543160080909729,-0.7998000383377075,-0.409984141588211
2024-12-07 18:18:25.197766400,5.034766357421875,-0.7414853572845459,-0.6182466745376587,-0.3288695216178894
2024-12-07 18:18:25.207740400,5.044740478515625,-0.7633104920387268,-0.3274417221546173,-0.214621216058731
2024-12-07 18:18:25.217714400,5.05471435546875,-0.6869304180145264,-0.0646866783499717,-0.1360872387886047
2024-12-07 18:18:25.227687400,5.0646875,-0.5313584208488464,0.0319343991577625,-0.1451563686132431
2024-12-07 18:18:25.237661400,5.074661376953125,-0.3520350158214569,-0.0068710930645465,-0.2471175640821457
2024-12-07 18:18:25.247635500,5.084635498046875,-0.1931886374950409,-0.1454276442527771,-0.3970791101455688
2024-12-07 18:18:25.257609500,5.094609375,-0.1050967797636985,-0.3344785273075104,-0.5157620906829834
2024-12-07 18:18:25.267583500,5.10458349609375,-0.0632654428482055,-0.5263214707374573,-0.544272780418396
2024-12-07 18:18:25.277557200,5.11455712890625,-0.0045981686562299,-0.6651058197021484,-0.5063238739967346
2024-12-07 18:18:25.287531300,5.12453125,0.0837998688220977,-0.690175473690033,-0.4652182757854461
2024-12-07 18:18:25.297505300,5.13450537109375,0.1574961394071579,-0.5791177749633789,-0.4783457219600677
2024-12-07 18:18:25.307479300,5.144479248046875,0.1845943331718444,-0.394278734922409,-0.5078303813934326
2024-12-07 18:18:25.317453300,5.154453369140625,0.1501782536506652,-0.2009608298540115,-0.503563404083252
2024-12-07 18:18:25.327427300,5.16442724609375,0.095948040485382,-0.0531796291470527,-0.4379002451896667
2024-12-07 18:18:25.337401300,5.1744013671875,0.0677356272935867,0.0578673928976058,-0.331485390663147
2024-12-07 18:18:25.347375400,5.184375244140625,0.0879082679748535,0.1858013868331909,-0.2393322885036468
2024-12-07 18:18:25.357348000,5.19434814453125,0.0768239125609397,0.316374808549881,-0.1220572590827941
2024-12-07 18:18:25.367322000,5.204322021484375,0.0553053058683872,0.4407721161842346,-0.0251312404870986
2024-12-07 18:18:25.377296100,5.214296142578125,-0.0238074101507663,0.4706257581710815,0.0721213296055793
2024-12-07 18:18:25.387270100,5.224270263671875,-0.0862374976277351,0.5149247646331787,0.124017558991909
2024-12-07 18:18:25.397244200,5.234244140625,-0.0990556478500366,0.4937872290611267,0.1297351270914077
2024-12-07 18:18:25.407218200,5.24421826171875,-0.1200959533452987,0.4246667325496673,0.088997021317482
2024-12-07 18:18:25.417192200,5.254192138671875,-0.115947239100933,0.3326136469841003,-0.0099487248808145
2024-12-07 18:18:25.427166200,5.264166259765625,-0.0868173167109489,0.1971205323934555,-0.1474008560180664
2024-12-07 18:18:25.437140200,5.27414013671875,-0.0425999835133552,0.0252368859946727,-0.299098938703537
2024-12-07 18:18:25.447114200,5.2841142578125,-0.0062422403134405,-0.1107124239206314,-0.4422712922096252
2024-12-07 18:18:25.457088300,5.294088134765625,0.0254858322441577,-0.1555825322866439,-0.550382673740387
2024-12-07 18:18:25.467062300,5.304062255859375,0.0463785976171493,-0.166393369436264,-0.6047247052192688
2024-12-07 18:18:25.477036300,5.314036376953125,0.0477044507861137,-0.1319284439086914,-0.6079373359680176
2024-12-07 18:18:25.487009300,5.32400927734375,0.079610452055931,-0.0718017220497131,-0.5903900265693665
2024-12-07 18:18:25.496983300,5.3339833984375,0.0509842298924922,-0.0393699929118156,-0.5304489731788635
2024-12-07 18:18:25.506957300,5.343957275390625,-0.0151630975306034,-0.0094291381537914,-0.47101491689682
2024-12-07 18:18:25.516931300,5.353931396484375,-0.1285616159439087,0.0196827426552772,-0.3988508582115173
2024-12-07 18:18:25.526905300,5.3639052734375,-0.1539130508899688,0.092629387974739,-0.353071391582489
2024-12-07 18:18:25.536879400,5.37387939453125,-0.2156355679035186,0.1186238825321197,-0.2774302661418915
2024-12-07 18:18:25.546853400,5.383853271484375,-0.2912091612815857,0.1568463593721389,-0.1981910765171051
2024-12-07 18:18:25.556827400,5.393827392578125,-0.3301387429237366,0.1984919756650924,-0.1343253701925277
2024-12-07 18:18:25.566801400,5.403801513671875,-0.3000056147575378,0.267543226480484,-0.1179799437522888
2024-12-07 18:18:25.576775400,5.413775390625,-0.3041864931583404,0.2597053050994873,-0.1112669706344604
2024-12-07 18:18:25.586749400,5.42374951171875,-0.3342839479446411,0.2601577639579773,-0.1246102079749107
2024-12-07 18:18:25.596723200,5.43372314453125,-0.3278200626373291,0.2431530654430389,-0.1644761115312576
2024-12-07 18:18:25.606696200,5.4436962890625,-0.291925698518753,0.1872389465570449,-0.2162373065948486
2024-12-07 18:18:25.616670200,5.453670166015625,-0.2672174870967865,0.1093658506870269,-0.2669194042682647
2024-12-07 18:18:25.626644200,5.463644287109375,-0.2597233355045318,0.0890424698591232,-0.3210146129131317
2024-12-07 18:18:25.636618200,5.4736181640625,-0.2239466905593872,0.181095466017723,-0.3963038325309753
2024-12-07 18:18:25.646592300,5.48359228515625,-0.2577072978019714,0.2499368488788604,-0.4166780710220337
2024-12-07 18:18:25.656566000,5.49356591796875,-0.3423936367034912,0.2765563726425171,-0.3656205236911773
2024-12-07 18:18:25.666540000,5.5035400390625,-0.3955546021461487,0.2854396104812622,-0.2933042645454407
2024-12-07 18:18:25.676514000,5.51351416015625,-0.3889411389827728,0.2570027410984039,-0.2261222153902053
2024-12-07 18:18:25.686488000,5.523488037109375,-0.3691213428974151,0.19032783806324,-0.1758134961128235
2024-12-07 18:18:25.696462000,5.533462158203125,-0.3442799150943756,0.132375955581665,-0.1573273539543151
2024-12-07 18:18:25.706436000,5.54343603515625,-0.3106417953968048,0.0974070504307746,-0.1797596961259842
2024-12-07 18:18:25.716410000,5.55341015625,-0.27078777551651,0.064130313694477,-0.207608625292778
2024-12-07 18:18:25.726384000,5.563384033203125,-0.2272762358188629,0.0579086318612098,-0.2293908894062042
2024-12-07 18:18:25.736357000,5.573357177734375,-0.1894955784082412,0.0755728185176849,-0.2363150268793106
2024-12-07 18:18:25.746331100,5.5833310546875,-0.1599006652832031,0.0609083883464336,-0.2249089777469635
2024-12-07 18:18:25.756305200,5.59330517578125,-0.1094528436660766,0.0801223143935203,-0.2245367020368576
2024-12-07 18:18:25.766279200,5.603279052734375,-0.0436216369271278,0.0686606019735336,-0.2197512686252594
2024-12-07 18:18:25.776253200,5.613253173828125,-0.0669554397463798,0.0262202322483062,-0.1925737857818603
2024-12-07 18:18:25.786227200,5.623227294921875,-0.146910473704338,0.0330347269773483,-0.1708176285028457
2024-12-07 18:18:25.796201200,5.633201171875,-0.1919552832841873,0.1154988929629325,-0.1541292816400528
2024-12-07 18:18:25.806175200,5.64317529296875,-0.2043317854404449,0.1923372149467468,-0.127809002995491
2024-12-07 18:18:25.816149200,5.653149169921875,-0.2137591689825058,0.2466602176427841,-0.0912733078002929
2024-12-07 18:18:25.826123300,5.663123291015625,-0.2172548323869705,0.2733858227729797,-0.0540854595601558
2024-12-07 18:18:25.836097300,5.67309716796875,-0.1977220326662063,0.311595618724823,-0.0342389531433582
2024-12-07 18:18:25.846071300,5.6830712890625,-0.0864911153912544,0.3995928466320038,-0.0354182012379169
2024-12-07 18:18:25.856045300,5.69304541015625,0.0178331844508647,0.4056063592433929,-0.0018473227974027
2024-12-07 18:18:25.866019300,5.703019287109375,0.0878671333193779,0.3541532754898071,0.045830450952053
2024-12-07 18:18:25.875992300,5.712992431640625,0.1407976448535919,0.2382557392120361,0.116683505475521
2024-12-07 18:18:25.885966300,5.72296630859375,0.1635245382785797,0.0628485009074211,0.2175770998001098
2024-12-07 18:18:25.895940400,5.7329404296875,0.1888568997383117,-0.0969147607684135,0.3307163119316101
2024-12-07 18:18:25.905914400,5.742914306640625,0.2500366270542145,-0.2415502369403839,0.4198240637779236
2024-12-07 18:18:25.915888400,5.752888427734375,0.335418164730072,-0.3324458599090576,0.4849534630775451
2024-12-07 18:18:25.925862400,5.7628623046875,0.4260066449642181,-0.3705519735813141,0.5406116247177124
2024-12-07 18:18:25.935836400,5.77283642578125,0.505318820476532,-0.3845820724964142,0.5856425166130066
2024-12-07 18:18:25.945810200,5.78281005859375,0.5609503388404846,-0.4136044085025787,0.6321442723274231
2024-12-07 18:18:25.955784200,5.7927841796875,0.5787975192070007,-0.4681887328624725,0.7050852179527283
2024-12-07 18:18:25.965758200,5.80275830078125,0.5999683141708374,-0.5319072604179382,0.8252936601638794
2024-12-07 18:18:25.975732000,5.81273193359375,0.6282079815864563,-0.5643002986907959,0.9894026517868042
2024-12-07 18:18:25.985706000,5.8227060546875,0.6358166337013245,-0.5564868450164795,1.174734592437744
2024-12-07 18:18:25.995679200,5.83267919921875,0.6263696551322937,-0.5080618262290955,1.3584742546081543
2024-12-07 18:18:26.005653200,5.8426533203125,0.6111406087875366,-0.3971550464630127,1.524973750114441
2024-12-07 18:18:26.015627300,5.852627197265625,0.5928114056587219,-0.2543482482433319,1.6564128398895264
2024-12-07 18:18:26.025601000,5.86260107421875,0.5806838870048523,-0.0705557838082313,1.7522977590560913
2024-12-07 18:18:26.035575000,5.872574951171875,0.5946688055992126,0.188186377286911,1.8602498769760127
2024-12-07 18:18:26.045549000,5.882549072265625,0.6588265299797058,0.4864414930343628,2.01939344406128
2024-12-07 18:18:26.055523000,5.892523193359375,0.7243115305900574,0.7586957216262817,2.169276475906372
2024-12-07 18:18:26.065497000,5.9024970703125,0.7310509085655212,0.9745784997940063,2.2282636165618896
2024-12-07 18:18:26.075471000,5.91247119140625,0.6623638272285461,1.08216392993927,2.159891366958618
2024-12-07 18:18:26.085445000,5.922445068359375,0.5530725121498108,1.206781983375549,2.0092477798461914
2024-12-07 18:18:26.095419100,5.932419189453125,0.4438914954662323,1.3213543891906738,1.8033242225646973
2024-12-07 18:18:26.105393200,5.94239306640625,0.3829317390918731,1.364318609237671,1.6128907203674316
2024-12-07 18:18:26.115367200,5.9523671875,0.3854154348373413,1.3614542484283447,1.4821816682815552
2024-12-07 18:18:26.125340200,5.962340087890625,0.4189542233943939,1.3304667472839355,1.3755444288253784
2024-12-07 18:18:26.135314200,5.972314208984375,0.4527409970760345,1.311107873916626,1.2593841552734375
2024-12-07 18:18:26.145288200,5.9822880859375,0.4702488780021667,1.2631230354309082,1.0948423147201538
2024-12-07 18:18:26.155262200,5.99226220703125,0.4337769746780395,1.208579659461975,0.893450140953064
2024-12-07 18:18:26.165236200,6.002236328125,0.3841787874698639,1.1546533107757568,0.6772773861885071
2024-12-07 18:18:26.175210200,6.012210205078125,0.3597106039524078,1.0543209314346311,0.4558702409267425
2024-12-07 18:18:26.185184300,6.022184326171875,0.3618720173835754,0.8882904052734375,0.2529578506946563
2024-12-07 18:18:26.195158300,6.032158203125,0.380791038274765,0.6492424011230469,0.0774813666939735
2024-12-07 18:18:26.205132300,6.04213232421875,0.4137617647647857,0.3460103571414947,-0.0703203454613685
2024-12-07 18:18:26.215106300,6.052106201171875,0.4437825977802276,0.0500489771366119,-0.1883366405963897
2024-12-07 18:18:26.225080300,6.062080322265625,0.4469946622848511,-0.2587581276893616,-0.279322475194931
2024-12-07 18:18:26.235054300,6.072054443359375,0.4159073233604431,-0.527646541595459,-0.3554083704948425
2024-12-07 18:18:26.245028400,6.0820283203125,0.3579955697059631,-0.7077150940895081,-0.3992834389209747
2024-12-07 18:18:26.255001300,6.09200146484375,0.2943008244037628,-0.7594805359840393,-0.422657161951065
2024-12-07 18:18:26.264975400,6.101975341796875,0.2341839522123336,-0.7294120788574219,-0.4449813663959503
2024-12-07 18:18:26.274949400,6.111949462890625,0.1821096390485763,-0.6655682325363159,-0.4896853268146515
2024-12-07 18:18:26.284923400,6.12192333984375,0.148380696773529,-0.600557267665863,-0.565600574016571
2024-12-07 18:18:26.294897200,6.131897216796875,0.1308894008398056,-0.5536142587661743,-0.6749430298805237
2024-12-07 18:18:26.304871200,6.14187109375,0.1296840459108352,-0.5480099320411682,-0.7973805665969849
2024-12-07 18:18:26.314845200,6.15184521484375,0.1351712942123413,-0.5473527908325195,-0.910394251346588
2024-12-07 18:18:26.324819200,6.161819091796875,0.1073319390416145,-0.5168294906616211,-0.9815006256103516
2024-12-07 18:18:26.334793200,6.171793212890625,0.0384222157299518,-0.4012831151485443,-0.9810168147087096
2024-12-07 18:18:26.344767000,6.18176708984375,-0.0756156742572784,-0.2362526208162307,-0.8903979659080505
2024-12-07 18:18:26.354741000,6.191740966796875,-0.2154979556798935,-0.1315038502216339,-0.7235471606254578
2024-12-07 18:18:26.364715000,6.201715087890625,-0.3577674925327301,-0.0956209525465965,-0.5584178566932678
2024-12-07 18:18:26.374689000,6.21168896484375,-0.4617359936237335,-0.0189508162438869,-0.4578792750835418
2024-12-07 18:18:26.384662300,6.221662353515625,-0.5087804794311523,0.0781658813357353,-0.4059441685676574
2024-12-07 18:18:26.394636000,6.231635986328125,-0.5248331427574158,0.1204001754522323,-0.3488766849040985
2024-12-07 18:18:26.404610000,6.241610107421875,-0.5695667862892151,0.1091914623975753,-0.2863200902938843
2024-12-07 18:18:26.414584000,6.251583984375,-0.6288294196128845,0.0706453174352645,-0.2357909679412841
2024-12-07 18:18:26.424558000,6.26155810546875,-0.6395726203918457,-0.0028752367943525,-0.2131583541631698
2024-12-07 18:18:26.434532000,6.271531982421875,-0.5519944429397583,-0.1210249289870262,-0.2296169102191925
2024-12-07 18:18:26.444506000,6.281506103515625,-0.3973534405231476,-0.2795559763908386,-0.2745353877544403
2024-12-07 18:18:26.454480100,6.291480224609375,-0.2454968392848968,-0.3866378366947174,-0.313935786485672
2024-12-07 18:18:26.464454100,6.3014541015625,-0.1246583014726638,-0.3872186839580536,-0.3205039501190185
2024-12-07 18:18:26.474428200,6.31142822265625,-0.0235829222947359,-0.3701100349426269,-0.2834622263908386
2024-12-07 18:18:26.484402200,6.321402099609375,0.0517906621098518,-0.3613559603691101,-0.2350810915231704
2024-12-07 18:18:26.494376200,6.331376220703125,0.0938321650028228,-0.2992139160633087,-0.2292378395795822
2024-12-07 18:18:26.504350200,6.34135009765625,0.1116135567426681,-0.1099345162510871,-0.2962525486946106
2024-12-07 18:18:26.514323200,6.3513232421875,0.1131984815001487,0.1771344989538192,-0.423187792301178
2024-12-07 18:18:26.524297200,6.361297119140625,0.0997487157583236,0.4431017339229584,-0.546781599521637
2024-12-07 18:18:26.534271200,6.371271240234375,0.1006217673420906,0.662115216255188,-0.616736888885498
2024-12-07 18:18:26.544245200,6.381245361328125,0.1102831810712814,0.7835489511489868,-0.5878090858459473
2024-12-07 18:18:26.554219300,6.39121923828125,0.0889063328504562,0.7037755250930786,-0.4935861527919769
2024-12-07 18:18:26.564193000,6.401193115234375,0.0407678373157978,0.3418586552143097,-0.4245288074016571
2024-12-07 18:18:26.574167000,6.4111669921875,-0.0074513028375804,-0.3025391101837158,-0.4265235364437103
2024-12-07 18:18:26.584141000,6.42114111328125,-0.0403139106929302,-1.081241011619568,-0.4730287194252014
2024-12-07 18:18:26.594115000,6.431114990234375,-0.0502275787293911,-1.7250970602035522,-0.5131745338439941
2024-12-07 18:18:26.604089000,6.441089111328125,-0.076365441083908,-2.078774690628052,-0.5034641623497009
2024-12-07 18:18:26.614063000,6.45106298828125,-0.1979240626096725,-1.9549472332000728,-0.5078721642494202
2024-12-07 18:18:26.624037000,6.461037109375,-0.3850683569908142,-1.2934201955795288,-0.4872792363166809
2024-12-07 18:18:26.634011100,6.47101123046875,-0.462230235338211,-0.3341637849807739,-0.2872050106525421
2024-12-07 18:18:26.643984100,6.480984130859375,-0.4157293140888214,0.5046643614768982,0.0959072336554527
2024-12-07 18:18:26.653958100,6.490958251953125,-0.3328025043010711,0.8349123001098633,0.4506113231182098
2024-12-07 18:18:26.663932200,6.50093212890625,-0.2476218044757843,0.6940608620643616,0.6005473136901855
2024-12-07 18:18:26.673906200,6.51090625,-0.1933437436819076,0.2958115339279175,0.5056489706039429
2024-12-07 18:18:26.683880200,6.520880126953125,-0.1895740330219268,-0.2597278654575348,0.1984751373529434
2024-12-07 18:18:26.693854200,6.530854248046875,-0.2516745030879974,-0.899844229221344,-0.1382112354040146
2024-12-07 18:18:26.703828200,6.540828125,-0.401887983083725,-1.4291133880615234,-0.3348907232284546
2024-12-07 18:18:26.713802000,6.550802001953125,-0.5774785280227661,-1.660812258720398,-0.3679783344268799
2024-12-07 18:18:26.723776000,6.56077587890625,-0.7055094838142395,-1.6076878309249878,-0.3080018162727356
2024-12-07 18:18:26.733750000,6.57075,-0.7483336329460144,-1.3200424909591677,-0.2432286888360977
2024-12-07 18:18:26.743724000,6.58072412109375,-0.656919002532959,-0.928413987159729,-0.2426313310861587
2024-12-07 18:18:26.753698000,6.590697998046875,-0.4470367133617401,-0.5620137453079224,-0.3320629596710205
2024-12-07 18:18:26.763672000,6.600672119140625,-0.2135552763938903,-0.2888399660587311,-0.5051932334899902
2024-12-07 18:18:26.773646000,6.61064599609375,-0.0045621609315276,-0.1366535425186157,-0.7063915133476257
2024-12-07 18:18:26.783619000,6.620619140625,0.1376277357339859,-0.0786818414926529,-0.8701223731040955
2024-12-07 18:18:26.793593000,6.630593017578125,0.2182246148586273,-0.0315056778490543,-0.9585902094841005
2024-12-07 18:18:26.803567000,6.640567138671875,0.2924964427947998,0.0309515744447708,-0.969377875328064
2024-12-07 18:18:26.813541000,6.650541015625,0.3600478768348694,0.0651377215981483,-0.8971901535987854
2024-12-07 18:18:26.823515100,6.66051513671875,0.3822237551212311,0.0678831711411476,-0.7614648342132568
2024-12-07 18:18:26.833489200,6.6704892578125,0.3441394865512848,0.094251200556755,-0.6033780574798584
2024-12-07 18:18:26.843463200,6.680463134765625,0.2585899829864502,0.1646484136581421,-0.4344625771045685
2024-12-07 18:18:26.853437200,6.690437255859375,0.1324378848075866,0.2537488937377929,-0.2387621849775314
2024-12-07 18:18:26.863411200,6.7004111328125,0.0259894784539937,0.3965478837490082,-0.0270102452486753
2024-12-07 18:18:26.873385200,6.71038525390625,-0.076257087290287,0.4900743663311004,0.186234101653099
2024-12-07 18:18:26.883359000,6.72035888671875,-0.1689135283231735,0.5462428331375122,0.3346227705478668
2024-12-07 18:18:26.893333000,6.7303330078125,-0.2114364504814148,0.5478318333625793,0.3741257190704345
2024-12-07 18:18:26.903306000,6.740305908203125,-0.2111837118864059,0.508421003818512,0.3443385362625122
2024-12-07 18:18:26.913280000,6.750280029296875,-0.1738673150539398,0.4689577519893646,0.2579557597637176
2024-12-07 18:18:26.923254000,6.76025390625,-0.1460708379745483,0.4025068283081054,0.1284608691930771
2024-12-07 18:18:26.933228000,6.77022802734375,-0.1539230793714523,0.340408593416214,-0.0279745869338512
2024-12-07 18:18:26.943202000,6.7802021484375,-0.1463921964168548,0.2663016021251678,-0.1905150413513183
2024-12-07 18:18:26.953176000,6.790176025390625,-0.1062743589282035,0.2182069569826126,-0.3354373872280121
2024-12-07 18:18:26.963150000,6.800150146484375,-0.0602336376905441,0.1824265867471695,-0.4426610469818115
2024-12-07 18:18:26.973124000,6.8101240234375,-0.030941067263484,0.1715135127305984,-0.4961589872837066
2024-12-07 18:18:26.983098000,6.82009814453125,-0.0119346193969249,0.1670173108577728,-0.5132485032081604
2024-12-07 18:18:26.993072000,6.830072021484375,0.0209785625338554,0.1543075740337371,-0.5117058753967285
2024-12-07 18:18:27.003046100,6.840046142578125,-0.0231665279716253,0.0688725709915161,-0.4672686159610748
2024-12-07 18:18:27.013020200,6.850020263671875,-0.084058478474617,0.0041843298822641,-0.4453626871109009
2024-12-07 18:18:27.022994000,6.859993896484375,-0.1577042043209076,-0.0109719866886734,-0.439975380897522
2024-12-07 18:18:27.032967200,6.86996728515625,-0.191625714302063,0.0179589092731475,-0.4454474449157715
2024-12-07 18:18:27.042941200,6.879941162109375,-0.214987501502037,0.0435031503438949,-0.4266908168792724
2024-12-07 18:18:27.052915200,6.889915283203125,-0.2352862805128097,0.0645262077450752,-0.3736979961395263
2024-12-07 18:18:27.062889200,6.89988916015625,-0.260754644870758,0.0838010981678962,-0.3020123541355133
2024-12-07 18:18:27.072863000,6.909863037109375,-0.2784092724323272,0.1140729114413261,-0.2336355745792389
2024-12-07 18:18:27.082837000,6.9198369140625,-0.2821155786514282,0.1420635282993316,-0.2029959112405777
2024-12-07 18:18:27.092811000,6.92981103515625,-0.2778435051441192,0.1614418029785156,-0.2171251475811004
2024-12-07 18:18:27.102785000,6.939784912109375,-0.2808645963668823,0.1773576587438583,-0.2614191174507141
2024-12-07 18:18:27.112759000,6.949759033203125,-0.2904179692268371,0.2006027996540069,-0.3222449123859405
2024-12-07 18:18:27.122733000,6.959733154296875,-0.3029614388942718,0.2126493453979492,-0.3781862258911133
2024-12-07 18:18:27.132707000,6.96970703125,-0.2655295431613922,0.2905149459838867,-0.4367045760154724
2024-12-07 18:18:27.142681000,6.97968115234375,-0.2945659756660461,0.2547100484371185,-0.4208438396453857
2024-12-07 18:18:27.152655000,6.989655029296875,-0.3918753266334533,0.1662949621677398,-0.3507198393344879
2024-12-07 18:18:27.162629000,6.999629150390625,-0.4336512684822082,0.0944487378001213,-0.2803886830806732
2024-12-07 18:18:27.172602000,7.00960205078125,-0.4153202772140503,0.0186213962733745,-0.2343978434801101
2024-12-07 18:18:27.182576000,7.019576171875,-0.390951544046402,-0.0679124370217323,-0.2019528150558471
2024-12-07 18:18:27.192550100,7.029550048828125,-0.3728235960006714,-0.134323701262474,-0.1980874836444854
2024-12-07 18:18:27.202524200,7.039524169921875,-0.3478702902793884,-0.1108045130968093,-0.2368617802858352
2024-12-07 18:18:27.212498200,7.049498291015625,-0.3229183554649353,-0.0052139456383883,-0.3071281611919403
2024-12-07 18:18:27.222472200,7.05947216796875,-0.3116909861564636,0.1196688711643219,-0.3752228021621704
2024-12-07 18:18:27.232446000,7.069446044921875,-0.2890235483646393,0.200717493891716,-0.4074046611785888
2024-12-07 18:18:27.242420000,7.079419921875,-0.2451400011777877,0.1329685300588607,-0.3557001650333404
2024-12-07 18:18:27.252394000,7.08939404296875,-0.261160671710968,-0.0591260530054569,-0.224178671836853
2024-12-07 18:18:27.262368000,7.099367919921875,-0.2587372064590454,-0.1727008074522018,-0.127133622765541
2024-12-07 18:18:27.272342000,7.109342041015625,-0.2321075499057769,-0.2173518985509872,-0.1111266985535621
2024-12-07 18:18:27.282316000,7.11931591796875,-0.1869147717952728,-0.2397775799036026,-0.1592060774564743
2024-12-07 18:18:27.292289000,7.1292890625,-0.1396232545375824,-0.2308123707771301,-0.235742837190628
2024-12-07 18:18:27.302263000,7.139262939453125,-0.092155598104,-0.185690701007843,-0.2964668869972229
2024-12-07 18:18:27.312237000,7.149237060546875,-0.0533725470304489,-0.0958016067743301,-0.3235705494880676
2024-12-07 18:18:27.322211000,7.159211181640625,0.0458483099937438,0.055171400308609,-0.328477680683136
2024-12-07 18:18:27.332185000,7.16918505859375,0.0861068367958068,0.0843789726495742,-0.259074717760086
2024-12-07 18:18:27.342159000,7.1791591796875,0.0877998098731041,0.078322947025299,-0.1739949733018875
2024-12-07 18:18:27.352133000,7.189133056640625,0.0902155041694641,0.0602872893214225,-0.1173653975129127
2024-12-07 18:18:27.362107100,7.199107177734375,0.1137658432126045,-0.0087309256196022,-0.0826697349548339
2024-12-07 18:18:27.372081200,7.2090810546875,0.1315704584121704,-0.1799608469009399,-0.0297277458012104
2024-12-07 18:18:27.382055200,7.21905517578125,0.1338916718959808,-0.4036738276481628,0.0541940554976463
2024-12-07 18:18:27.392029000,7.22902880859375,0.1675173640251159,-0.6253840923309326,0.1448045969009399
2024-12-07 18:18:27.402003000,7.2390029296875,0.2473940998315811,-0.7667838335037231,0.2423660457134246
2024-12-07 18:18:27.411977000,7.24897705078125,0.3423253893852234,-0.802365779876709,0.3535583615303039
2024-12-07 18:18:27.421951000,7.258950927734375,0.475761741399765,-0.7087846994400024,0.4382263720035553
2024-12-07 18:18:27.431924200,7.26892431640625,0.532936155796051,-0.6315963864326477,0.5014237761497498
2024-12-07 18:18:27.441898000,7.27889794921875,0.5247030258178711,-0.5793488621711731,0.5877917408943176
2024-12-07 18:18:27.451872000,7.2888720703125,0.5608263611793518,-0.5424978137016296,0.714019775390625
2024-12-07 18:18:27.461846000,7.298845947265625,0.618408739566803,-0.5191991329193115,0.886247992515564
2024-12-07 18:18:27.471820000,7.308820068359375,0.6638666391372681,-0.4942662417888641,1.0897457599639893
2024-12-07 18:18:27.481794000,7.3187939453125,0.6863911151885986,-0.4300749897956848,1.2991883754730225
2024-12-07 18:18:27.491768000,7.32876806640625,0.6976235508918762,-0.292715460062027,1.4730300903320312
2024-12-07 18:18:27.501742000,7.3387421875,0.7124717235565186,-0.0717897340655326,1.5946601629257202
2024-12-07 18:18:27.511716000,7.348716064453125,0.7289422154426575,0.2276718318462371,1.646106839179993
2024-12-07 18:18:27.521690000,7.358690185546875,0.7420763969421387,0.5655611753463745,1.63796865940094
2024-12-07 18:18:27.531664100,7.3686640625,0.7516930103302002,0.8470392823219299,1.6233175992965698
2024-12-07 18:18:27.541638100,7.37863818359375,0.759791910648346,0.9843950271606444,1.6904077529907229
2024-12-07 18:18:27.551612200,7.388612060546875,0.7570370435714722,0.9406760334968568,1.8666259050369265
2024-12-07 18:18:27.561585200,7.398585205078125,0.7202100157737732,0.6880912184715271,2.0197534561157227
2024-12-07 18:18:27.571559000,7.408558837890625,0.6488834023475647,0.3066736459732055,2.0305604934692383
2024-12-07 18:18:27.581533000,7.418532958984375,0.5827624797821045,-0.0220118425786495,1.9243390560150144
2024-12-07 18:18:27.591507000,7.4285068359375,0.533886730670929,-0.1047499403357505,1.7586714029312134
2024-12-07 18:18:27.601481000,7.43848095703125,0.4809476435184479,0.114872433245182,1.5716391801834106
2024-12-07 18:18:27.611455000,7.448455078125,0.4358552992343902,0.4855570793151855,1.3729052543640137
2024-12-07 18:18:27.621429000,7.458428955078125,0.4200536906719208,0.8327379822731018,1.225082516670227
2024-12-07 18:18:27.631403000,7.468403076171875,0.4572795033454895,1.0859410762786863,1.1470777988433838
2024-12-07 18:18:27.641377000,7.478376953125,0.5098969340324402,1.2522786855697632,1.0892281532287598
2024-12-07 18:18:27.651351000,7.48835107421875,0.5500388145446777,1.3164801597595217,1.0388256311416626
2024-12-07 18:18:27.661325000,7.498324951171875,0.5789362192153931,1.240148425102234,1.0013808012008667
2024-12-07 18:18:27.671299000,7.508299072265625,0.5680842995643616,1.1013178825378418,0.9641334414482116
2024-12-07 18:18:27.681273000,7.518273193359375,0.5224206447601318,0.9434680342674256,0.8923146724700928
2024-12-07 18:18:27.691246000,7.52824609375,0.4754173457622528,0.74874347448349,0.7701255679130554
2024-12-07 18:18:27.701220000,7.53822021484375,0.4135529100894928,0.5523781776428223,0.6359802484512329
2024-12-07 18:18:27.711194000,7.548194091796875,0.3426454663276672,0.4040625691413879,0.4751627445220947
2024-12-07 18:18:27.721168100,7.558168212890625,0.2850098609924316,0.3625593483448028,0.3206919431686401
2024-12-07 18:18:27.731142100,7.56814208984375,0.2615933120250702,0.4015096426010132,0.1901582479476928
2024-12-07 18:18:27.741116200,7.5781162109375,0.281936377286911,0.4521118104457855,0.1029197424650192
2024-12-07 18:18:27.751090200,7.588090087890625,0.3251926898956299,0.472931832075119,0.0642504915595054
2024-12-07 18:18:27.761064000,7.59806396484375,0.3612809181213379,0.4678590297698974,0.0643045529723167
2024-12-07 18:18:27.771038000,7.608037841796875,0.3801325857639313,0.3840274214744568,0.0544444546103477
2024-12-07 18:18:27.781012000,7.618011962890625,0.3839425146579742,0.2531021535396576,-0.0200758501887321
2024-12-07 18:18:27.790986000,7.627986083984375,0.3435515761375427,0.2261178940534591,-0.1145498529076576
2024-12-07 18:18:27.800960000,7.6379599609375,0.281070351600647,0.1914848238229751,-0.2323116511106491
2024-12-07 18:18:27.810934000,7.64793408203125,0.1975667029619217,0.1546763479709625,-0.331080824136734
2024-12-07 18:18:27.820906800,7.65790673828125,0.1239644065499305,0.1686568856239318,-0.3927811980247497
2024-12-07 18:18:27.830880800,7.667880859375,0.0617607906460762,0.1980816572904586,-0.4080625176429748
2024-12-07 18:18:27.840854800,7.677854736328125,-0.0240486562252044,0.1962531358003616,-0.3825294375419616
2024-12-07 18:18:27.850828800,7.687828857421875,-0.1350712925195694,0.1175807639956474,-0.3358142971992492
2024-12-07 18:18:27.860802800,7.697802734375,-0.2807992100715637,-0.0112094413489103,-0.2771512567996979
2024-12-07 18:18:27.870776800,7.70777685546875,-0.4367473423480987,-0.135562777519226,-0.2242513597011566
2024-12-07 18:18:27.880750800,7.717750732421875,-0.5462279915809631,-0.2050614207983017,-0.211535558104515
2024-12-07 18:18:27.890724900,7.727724853515625,-0.5873289108276367,-0.1928284168243408,-0.2321461141109466
2024-12-07 18:18:27.900699000,7.737698974609375,-0.5540159940719604,-0.2216246426105499,-0.2357528358697891
2024-12-07 18:18:27.910673000,7.7476728515625,-0.4816547036170959,-0.2423741966485977,-0.2591389715671539
2024-12-07 18:18:27.920647000,7.75764697265625,-0.4014914333820343,-0.2240668386220932,-0.3306491076946258
2024-12-07 18:18:27.930621000,7.767620849609375,-0.3229115009307861,-0.2122479826211929,-0.4338509142398834
2024-12-07 18:18:27.940595000,7.777594970703125,-0.2493738830089569,-0.2025881558656692,-0.5363641977310181
2024-12-07 18:18:27.950568000,7.78756787109375,-0.188042476773262,-0.2258019596338272,-0.6170053482055664
2024-12-07 18:18:27.960542000,7.7975419921875,-0.1165134236216545,-0.2923125326633453,-0.6624546051025391
2024-12-07 18:18:27.970516000,7.807515869140625,-0.0370833538472652,-0.3675762414932251,-0.6669729948043823
2024-12-07 18:18:27.980490000,7.817489990234375,0.0219269711524248,-0.4377547800540924,-0.6284687519073486
2024-12-07 18:18:27.990464000,7.827464111328125,0.0578506849706172,-0.4263035356998443,-0.6029523611068726
2024-12-07 18:18:28.000438000,7.83743798828125,0.0784307867288589,-0.2607387900352478,-0.6184878945350647
2024-12-07 18:18:28.010412000,7.847412109375,0.0822828784584999,-0.006800016388297,-0.6511514782905579
2024-12-07 18:18:28.020386000,7.857385986328125,0.0753072574734687,0.1935005933046341,-0.6767442226409912
2024-12-07 18:18:28.030360000,7.867360107421875,0.0567662715911865,0.2361956983804702,-0.6810861825942993
2024-12-07 18:18:28.040334000,7.877333984375,0.0148617010563611,0.0780547931790351,-0.6545062065124512
2024-12-07 18:18:28.050308000,7.88730810546875,-0.0606633052229881,-0.2902217209339142,-0.625182032585144
2024-12-07 18:18:28.060282000,7.8972822265625,-0.1502144932746887,-0.7911519408226013,-0.5879188179969788
2024-12-07 18:18:28.070255900,7.907255859375,-0.2166366875171661,-1.2349117994308472,-0.5511507987976074
2024-12-07 18:18:28.083346000,7.920345947265625,-0.23440982401371,-1.549919843673706,-0.5488506555557251
2024-12-07 18:18:28.093320000,7.93031982421875,-0.2136709839105606,-1.63202702999115,-0.551257312297821
2024-12-07 18:18:28.103294000,7.9402939453125,-0.2166196405887603,-1.5672175884246826,-0.5209828019142151
2024-12-07 18:18:28.113268000,7.95026806640625,-0.2642256021499634,-1.2375566959381104,-0.4324752688407898
2024-12-07 18:18:28.123242000,7.960241943359375,-0.2931185066699981,-0.6658316254615784,-0.2779671847820282
2024-12-07 18:18:28.133216000,7.970216064453125,-0.2958056032657623,-0.0841077119112014,-0.1337392777204513
2024-12-07 18:18:28.143190000,7.98018994140625,-0.2914095222949981,0.252133160829544,-0.0686281993985176
2024-12-07 18:18:28.153164000,7.9901640625,-0.2748463451862335,0.2716533541679382,-0.0807009264826774
2024-12-07 18:18:28.163137800,8.0001376953125,-0.2778365314006805,0.0612750872969627,-0.1148386597633361
2024-12-07 18:18:28.173111800,8.01011181640625,-0.3277016282081604,-0.1911509186029434,-0.1006996110081672
2024-12-07 18:18:28.183085800,8.0200859375,-0.4168714582920074,-0.431857019662857,-0.0344489514827728
2024-12-07 18:18:28.193059800,8.030059814453125,-0.5428800582885742,-0.5809618234634399,0.0605945847928524
2024-12-07 18:18:28.203033900,8.040033935546875,-0.6729661822319031,-0.5630369186401367,0.1358027905225753
2024-12-07 18:18:28.213008000,8.0500078125,-0.7515846490859985,-0.4125616550445556,0.1322765350341797
2024-12-07 18:18:28.222980900,8.05998095703125,-0.7533537745475769,-0.2431225925683975,0.0279418751597404
2024-12-07 18:18:28.232955000,8.069954833984376,-0.6871011853218079,-0.1156085804104805,-0.1613968759775161
2024-12-07 18:18:28.242929000,8.079928955078126,-0.5924425721168518,-0.0522780753672122,-0.4023013412952423
2024-12-07 18:18:28.252903000,8.08990283203125,-0.4863214492797851,-0.0935836434364318,-0.6501988768577576
2024-12-07 18:18:28.262877000,8.099876953125,-0.3595909476280212,-0.270870566368103,-0.8514254689216614
2024-12-07 18:18:28.272851000,8.109850830078125,-0.2208757549524307,-0.5270717144012451,-0.9691388607025146
2024-12-07 18:18:28.282825000,8.119824951171875,-0.0855437666177749,-0.7214145660400391,-1.009996771812439
2024-12-07 18:18:28.292799000,8.129799072265625,0.0354700647294521,-0.7380940318107605,-1.0029548406600952
2024-12-07 18:18:28.302773000,8.13977294921875,0.126452162861824,-0.5769069790840149,-0.9556846022605896
2024-12-07 18:18:28.312747000,8.1497470703125,0.1700378656387329,-0.2821942865848541,-0.8710432052612305
2024-12-07 18:18:28.322721000,8.159720947265624,0.1577305942773819,0.0444799698889255,-0.758041501045227
2024-12-07 18:18:28.332695000,8.169695068359376,0.0998793840408325,0.30038583278656,-0.6012320518493652
2024-12-07 18:18:28.342669000,8.1796689453125,0.0387545116245746,0.4736737310886383,-0.3998339474201202
2024-12-07 18:18:28.352642000,8.18964208984375,-0.0116795431822538,0.5159141421318054,-0.1625748425722122
2024-12-07 18:18:28.362616000,8.199615966796875,-0.0755381509661674,0.5057606101036072,0.0605695620179176
2024-12-07 18:18:28.372590000,8.209590087890625,-0.1338050216436386,0.4866955280303955,0.2115838825702667
2024-12-07 18:18:28.382564000,8.219564208984375,-0.1670010536909103,0.459380030632019,0.2849606275558471
2024-12-07 18:18:28.392538000,8.2295380859375,-0.1785308420658111,0.4280972182750702,0.2783958911895752
2024-12-07 18:18:28.403136000,8.240135986328125,-0.1898013353347778,0.4062105715274811,0.2094546407461166
2024-12-07 18:18:28.413109000,8.25010888671875,-0.1979113668203354,0.3677260875701904,0.1119066700339317
2024-12-07 18:18:28.423083000,8.2600830078125,-0.1678480058908462,0.2674244940280914,0.0039823367260396
2024-12-07 18:18:28.433057000,8.27005712890625,-0.1027889624238014,0.1150513514876365,-0.1097706258296966
2024-12-07 18:18:28.443031000,8.280031005859374,-0.0276444125920534,-0.0438224524259567,-0.2312110364437103
2024-12-07 18:18:28.453005000,8.290005126953124,0.0254979003220796,-0.1837079226970672,-0.3413460552692413
2024-12-07 18:18:28.462979000,8.29997900390625,0.0481123998761177,-0.273167222738266,-0.4320927560329437
2024-12-07 18:18:28.472953000,8.309953125,0.0579931326210498,-0.3068499267101288,-0.5115953087806702
2024-12-07 18:18:28.482927000,8.319927001953126,0.0797676742076873,-0.2830279469490051,-0.5911455154418945
2024-12-07 18:18:28.492901000,8.329901123046875,0.0587012581527233,-0.2358679473400116,-0.6360341310501099
2024-12-07 18:18:28.502875100,8.339875244140625,0.0052622645162045,-0.2048154771327972,-0.6356312036514282
2024-12-07 18:18:28.512849200,8.34984912109375,-0.0464767441153526,-0.1853685677051544,-0.610914945602417
2024-12-07 18:18:28.522823200,8.3598232421875,-0.1126203462481498,-0.2031342387199401,-0.5545358061790466
2024-12-07 18:18:28.532797200,8.369797119140625,-0.173206016421318,-0.193000853061676,-0.4868161976337433
2024-12-07 18:18:28.542771200,8.379771240234374,-0.2086026221513748,-0.1388382762670517,-0.4231091439723968
2024-12-07 18:18:28.552744000,8.389743896484376,-0.219259038567543,-0.050753366202116,-0.3613633513450622
2024-12-07 18:18:28.562718000,8.399718017578126,-0.2139822542667389,0.0894146561622619,-0.3183144330978393
2024-12-07 18:18:28.572692700,8.409692626953126,-0.2618577480316162,0.1771514266729354,-0.2448771744966507
2024-12-07 18:18:28.582666800,8.419666748046875,-0.2931815981864929,0.2691841125488281,-0.1848495304584503
2024-12-07 18:18:28.592640500,8.429640625,-0.297405868768692,0.3543710112571716,-0.1662525385618209
2024-12-07 18:18:28.602614500,8.439614501953125,-0.292370080947876,0.3959802389144897,-0.1651166975498199
2024-12-07 18:18:28.612588500,8.449588623046875,-0.2592675685882568,0.4286454021930694,-0.1857946217060089
2024-12-07 18:18:28.622562600,8.4595625,-0.2660735249519348,0.3263832032680511,-0.165832906961441
2024-12-07 18:18:28.632536600,8.46953662109375,-0.2845798432826996,0.2269551306962967,-0.146086573600769
2024-12-07 18:18:28.642510600,8.479510498046874,-0.284771591424942,0.1640413999557495,-0.1395325362682342
2024-12-07 18:18:28.652484600,8.489484619140624,-0.2792227268218994,0.1452602595090866,-0.1479683667421341
2024-12-07 18:18:28.662458600,8.499458740234376,-0.2897200882434845,0.1631662845611572,-0.1541362553834915
2024-12-07 18:18:28.672432600,8.5094326171875,-0.3053969740867615,0.1959309130907058,-0.1618770360946655
2024-12-07 18:18:28.682406700,8.51940673828125,-0.3172309994697571,0.190614715218544,-0.1616589277982711
2024-12-07 18:18:28.692379400,8.52937939453125,-0.3555277585983276,0.1597527414560318,-0.1515885889530182
2024-12-07 18:18:28.702353400,8.539353515625,-0.3628309369087219,0.152632251381874,-0.1660673916339874
2024-12-07 18:18:28.712327400,8.549327392578125,-0.3439244031906128,0.1420127302408218,-0.1920430064201355
2024-12-07 18:18:28.722301400,8.559301513671874,-0.3273161351680755,0.1123054400086402,-0.2132830470800399
2024-12-07 18:18:28.732275500,8.569275390625,-0.3108322024345398,0.0850894302129745,-0.2305462509393692
2024-12-07 18:18:28.742249500,8.57924951171875,-0.2670063972473144,0.0607851557433605,-0.2447672635316848
2024-12-07 18:18:28.752223500,8.589223388671876,-0.2389619052410125,-0.0031438118312507,-0.2328580468893051
2024-12-07 18:18:28.762197500,8.599197509765625,-0.1954290866851806,-0.0194253139197826,-0.2460753172636032
2024-12-07 18:18:28.772171500,8.609171630859375,-0.1404005587100982,-0.0100608896464109,-0.2764908969402313
2024-12-07 18:18:28.782145500,8.6191455078125,-0.0704124271869659,0.0555189214646816,-0.3023110330104828
2024-12-07 18:18:28.792119600,8.62911962890625,-0.0815190747380256,0.0703233629465103,-0.2404494136571884
2024-12-07 18:18:28.802093600,8.639093505859375,-0.1004999577999115,0.0875292420387268,-0.1266908794641494
2024-12-07 18:18:28.812067600,8.649067626953125,-0.0997280403971672,0.0873405411839485,0.0015352922491729
2024-12-07 18:18:28.822041600,8.65904150390625,-0.1023650988936424,0.1054542958736419,0.1180555075407028
2024-12-07 18:18:28.832014600,8.6690146484375,-0.1106090173125267,0.1329609900712967,0.2314185947179794
2024-12-07 18:18:28.841988600,8.678988525390626,-0.1010136529803276,0.1806835085153579,0.3256050050258636
2024-12-07 18:18:28.851962600,8.688962646484375,-0.0618912056088447,0.2594131827354431,0.3854865431785583
2024-12-07 18:18:28.861936600,8.6989365234375,-0.00245291297324,0.333533227443695,0.4114891290664673
2024-12-07 18:18:28.871910700,8.70891064453125,0.0569297298789024,0.3359410166740417,0.4360250234603882
2024-12-07 18:18:28.881884700,8.718884765625,0.1245332732796669,0.2487794607877731,0.4785525202751159
2024-12-07 18:18:28.891858700,8.728858642578125,0.1818578094244003,0.1298384219408035,0.5268009901046753
2024-12-07 18:18:28.901832700,8.738832763671875,0.2421967834234237,-0.0010048002004623,0.5571093559265137
2024-12-07 18:18:28.911806500,8.748806396484374,0.3090890049934387,-0.1082982644438743,0.5486992001533508
2024-12-07 18:18:28.921780500,8.758780517578124,0.3852647244930267,-0.1703741550445556,0.511260449886322
2024-12-07 18:18:28.931754500,8.76875439453125,0.450241357088089,-0.1664541065692901,0.4663017690181732
2024-12-07 18:18:28.941728500,8.778728515625,0.484388142824173,-0.1372080743312835,0.4420486390590668
2024-12-07 18:18:28.951702500,8.78870263671875,0.4765423536300659,-0.0696728304028511,0.4688621163368225
2024-12-07 18:18:28.961676500,8.798676513671875,0.453187495470047,0.0444766469299793,0.5562572479248047
2024-12-07 18:18:28.971649500,8.8086494140625,0.4367756843566894,0.1619070768356323,0.7101515531539917
2024-12-07 18:18:28.981623600,8.81862353515625,0.4124767184257507,0.2662318646907806,0.9147667288780212
2024-12-07 18:18:28.991597600,8.82859765625,0.3797906935214996,0.3390172123908996,1.141610622406006
2024-12-07 18:18:29.001571600,8.838571533203124,0.3587450683116913,0.4132759869098663,1.3535386323928833
2024-12-07 18:18:29.011545600,8.848545654296874,0.3683085739612579,0.5185816884040833,1.5266437530517578
2024-12-07 18:18:29.021519600,8.85851953125,0.4169743955135345,0.660273551940918,1.6620934009552002
2024-12-07 18:18:29.031493600,8.86849365234375,0.5012355446815491,0.856866717338562,1.7688229084014893
2024-12-07 18:18:29.041467600,8.878467529296875,0.6149194836616516,1.049554705619812,1.8699759244918823
2024-12-07 18:18:29.051441700,8.888441650390625,0.7262458801269531,1.128675103187561,1.978942632675171
2024-12-07 18:18:29.061415700,8.898415771484375,0.794106662273407,1.0390530824661257,2.104542732238769
2024-12-07 18:18:29.071389700,8.9083896484375,0.7908836603164673,0.8396785259246826,2.168430089950561
2024-12-07 18:18:29.081363700,8.91836376953125,0.7159076929092407,0.6443758606910706,2.104622602462769
2024-12-07 18:18:29.091337700,8.928337646484374,0.5775996446609497,0.6078426241874695,1.9042139053344729
2024-12-07 18:18:29.101311700,8.938311767578124,0.4668886065483093,0.7357869744300842,1.6173105239868164
2024-12-07 18:18:29.111285800,8.94828564453125,0.4291443526744842,0.8597891926765442,1.334898591041565
2024-12-07 18:18:29.121258500,8.958258544921875,0.4203668534755707,0.9391535520553588,1.10497784614563
2024-12-07 18:18:29.131232500,8.968232421875,0.4065630733966827,1.023120641708374,0.950382113456726
2024-12-07 18:18:29.141206500,8.97820654296875,0.419842392206192,1.1140638589859009,0.8829348683357239
2024-12-07 18:18:29.151180500,8.9881806640625,0.4711982905864715,1.1507694721221924,0.8486525416374207
2024-12-07 18:18:29.161154600,8.998154541015625,0.5027657747268677,1.1373698711395264,0.7739543318748474
2024-12-07 18:18:29.171128600,9.008128662109376,0.4665369987487793,1.0878514051437378,0.6557102799415588
2024-12-07 18:18:29.181102600,9.0181025390625,0.3970255851745605,0.994828760623932,0.5512182116508484
2024-12-07 18:18:29.191076600,9.02807666015625,0.3234041631221771,0.8570672273635864,0.4213168323040008
2024-12-07 18:18:29.201050600,9.038050537109376,0.2913042902946472,0.6952100992202759,0.2697928249835968
2024-12-07 18:18:29.211024600,9.048024658203126,0.2800975441932678,0.571252167224884,0.1120687797665596
2024-12-07 18:18:29.220998400,9.057998291015624,0.2644426822662353,0.4790596663951874,-0.0304271131753921
2024-12-07 18:18:29.230972400,9.067972412109375,0.2452796846628189,0.3653950989246368,-0.1495693325996399
2024-12-07 18:18:29.240946400,9.077946533203123,0.2380763590335846,0.14070925116539,-0.2334381341934204
2024-12-07 18:18:29.250920400,9.08792041015625,0.2333694398403167,-0.0845466703176498,-0.3238601386547088
2024-12-07 18:18:29.260893700,9.097893798828125,0.2227735221385955,-0.2387165278196334,-0.4116528332233429
2024-12-07 18:18:29.270867700,9.10786767578125,0.1951551437377929,-0.3541381359100342,-0.4691438674926758
2024-12-07 18:18:29.280841500,9.117841552734374,0.1635543406009674,-0.3775228261947632,-0.5041844248771667
2024-12-07 18:18:29.290815500,9.1278154296875,0.1271841526031494,-0.3313247859477997,-0.5291282534599304
2024-12-07 18:18:29.300789500,9.13778955078125,0.0908668786287307,-0.2671367228031158,-0.5716810822486877
2024-12-07 18:18:29.310763500,9.147763427734375,0.0712647065520286,-0.237605944275856,-0.6457647085189819
2024-12-07 18:18:29.320737500,9.157737548828123,0.0623335316777229,-0.2639805674552917,-0.7437938451766968
2024-12-07 18:18:29.330711600,9.167711669921877,0.0395246557891368,-0.3248712420463562,-0.8366912007331848
2024-12-07 18:18:29.340685600,9.177685546875,-0.0157074406743049,-0.3279256224632263,-0.872013509273529
2024-12-07 18:18:29.350659600,9.18765966796875,-0.0872272402048111,-0.2469007819890976,-0.8346430659294128
2024-12-07 18:18:29.360633600,9.197633544921874,-0.1620143800973892,-0.1021734252572059,-0.7487422823905945
2024-12-07 18:18:29.370607600,9.207607666015624,-0.240744948387146,0.0186489429324865,-0.6487686634063721
2024-12-07 18:18:29.380581600,9.21758154296875,-0.3197018206119537,0.0249182898551225,-0.5505145788192749
2024-12-07 18:18:29.390555600,9.2275556640625,-0.396528035402298,0.0260776150971651,-0.4915767610073089
2024-12-07 18:18:29.400529700,9.23752978515625,-0.459733635187149,0.0408155471086502,-0.4647864103317261
2024-12-07 18:18:29.410502700,9.247502685546875,-0.509229838848114,0.0400288216769695,-0.4413060545921325
2024-12-07 18:18:29.420476700,9.2574765625,-0.5466158390045166,-0.0349072068929672,-0.3829447627067566
2024-12-07 18:18:29.430450700,9.26745068359375,-0.5668475031852722,-0.1796742677688598,-0.3147752583026886
2024-12-07 18:18:29.440424700,9.2774248046875,-0.57904452085495,-0.2925137281417846,-0.2842714190483093
2024-12-07 18:18:29.450398700,9.287398681640624,-0.5694261193275452,-0.3305408954620361,-0.2969913780689239
2024-12-07 18:18:29.460372700,9.297372802734374,-0.5147165656089783,-0.3309409022331238,-0.3495363593101501
2024-12-07 18:18:29.470346800,9.3073466796875,-0.4194127917289734,-0.3151500523090362,-0.4172435700893402
2024-12-07 18:18:29.480320500,9.317320556640626,-0.2917245924472809,-0.3002826869487762,-0.4596703946590423
2024-12-07 18:18:29.490294500,9.32729443359375,-0.1451756954193115,-0.2744011580944061,-0.4506300389766693
2024-12-07 18:18:29.500268500,9.3372685546875,0.0182446669787168,-0.2717063128948211,-0.4096636772155761
2024-12-07 18:18:29.510242600,9.34724267578125,0.1692966967821121,-0.3182697892189026,-0.3690977096557617
2024-12-07 18:18:29.520216600,9.357216552734377,0.2719660699367523,-0.3488386273384094,-0.3750629127025604
2024-12-07 18:18:29.530190600,9.367190673828125,0.3206228911876678,-0.2984170317649841,-0.4428218603134155
2024-12-07 18:18:29.540164400,9.377164306640625,0.3310089409351349,-0.1905084252357483,-0.5443524718284607
2024-12-07 18:18:29.550137600,9.3871376953125,0.3382827043533325,-0.048497699201107,-0.6124682426452637
2024-12-07 18:18:29.560111600,9.397111572265626,0.3640817999839782,0.1185376271605491,-0.5901472568511963
2024-12-07 18:18:29.570084600,9.407084716796875,0.4031708240509033,0.2531437277793884,-0.4792342483997345
2024-12-07 18:18:29.580058600,9.41705859375,0.4120279550552368,0.2816382348537445,-0.3244547843933105
2024-12-07 18:18:29.590032600,9.42703271484375,0.3343243896961212,0.1913472563028335,-0.2022367864847183
2024-12-07 18:18:29.600006700,9.437006591796877,0.1896782517433166,0.0236096549779176,-0.153296411037445
2024-12-07 18:18:29.609980700,9.446980712890625,0.0321920216083526,-0.2456652969121933,-0.1949052214622497
2024-12-07 18:18:29.619954700,9.45695458984375,-0.1217887550592422,-0.6363475322723389,-0.2983980476856231
2024-12-07 18:18:29.629928700,9.4669287109375,-0.2599875330924988,-1.0967036485671997,-0.389809250831604
2024-12-07 18:18:29.639902500,9.47690234375,-0.3642063438892364,-1.498887300491333,-0.4389991760253906
2024-12-07 18:18:29.649876500,9.48687646484375,-0.4159534573554992,-1.736288070678711,-0.4554341435432434
2024-12-07 18:18:29.659850500,9.4968505859375,-0.4290554225444793,-1.784496784210205,-0.4969850480556488
2024-12-07 18:18:29.669824500,9.506824462890624,-0.4327069818973541,-1.6595134735107422,-0.6048957705497742
2024-12-07 18:18:29.679798500,9.516798583984375,-0.4494015574455261,-1.3020660877227783,-0.8223775029182434
2024-12-07 18:18:29.689772500,9.5267724609375,-0.4666540324687958,-0.7410902976989746,-1.0712498426437378
2024-12-07 18:18:29.699745500,9.53674560546875,-0.4197246134281158,-0.1210837811231613,-1.1446926593780518
2024-12-07 18:18:29.709719600,9.546719482421874,-0.3341685235500335,0.3823721408843994,-0.9294326901435852
2024-12-07 18:18:29.719693600,9.556693603515624,-0.244131863117218,0.5787174105644226,-0.5174049735069275
2024-12-07 18:18:29.729667600,9.56666748046875,-0.1618327349424362,0.425359159708023,-0.0687790289521217
2024-12-07 18:18:29.739641600,9.5766416015625,-0.1003933548927307,0.0045003583654761,0.2418563365936279
2024-12-07 18:18:29.749615600,9.58661572265625,-0.0989525839686393,-0.5289244055747986,0.3249080777168274
2024-12-07 18:18:29.759589600,9.596589599609375,-0.1783166378736496,-1.0448918342590332,0.2155083566904068
2024-12-07 18:18:29.769563600,9.606563720703123,-0.2891272008419037,-1.4346736669540403,-0.0086229145526885
2024-12-07 18:18:29.779537700,9.61653759765625,-0.4076977670192718,-1.587734341621399,-0.2467891424894333
2024-12-07 18:18:29.789511700,9.62651171875,-0.5301458835601807,-1.4045624732971191,-0.410777598619461
2024-12-07 18:18:29.799485700,9.636485595703125,-0.6210587620735168,-0.9753961563110352,-0.4529713988304138
2024-12-07 18:18:29.809459700,9.646459716796874,-0.6298296451568604,-0.4895048141479492,-0.3763230443000793
2024-12-07 18:18:29.819433700,9.656433837890624,-0.5460159778594971,-0.1882208734750747,-0.2261335402727127
2024-12-07 18:18:29.829407500,9.666407470703126,-0.3767982125282287,-0.178613543510437,-0.0957530960440635
2024-12-07 18:18:29.839381500,9.676381591796876,-0.171434685587883,-0.3788134753704071,-0.0541073866188526
2024-12-07 18:18:29.849354500,9.6863544921875,-0.0235393065959215,-0.5193226337432861,-0.1246255859732627
2024-12-07 18:18:29.859328500,9.69632861328125,0.0306980982422828,-0.4638857245445251,-0.276959478855133
2024-12-07 18:18:29.869302500,9.706302490234377,0.0420998781919479,-0.3222958743572235,-0.4533624053001404
2024-12-07 18:18:29.879276500,9.716276611328125,0.0642648339271545,-0.2118167579174041,-0.5896413922309875
2024-12-07 18:18:29.889250600,9.72625048828125,0.0982431918382644,-0.1730929017066955,-0.6431995630264282
2024-12-07 18:18:29.899224600,9.736224609375,0.137145847082138,-0.1662198156118393,-0.6284781098365784
2024-12-07 18:18:29.909198600,9.746198486328124,0.1557551324367523,-0.1606215238571167,-0.559144914150238
2024-12-07 18:18:29.919172600,9.756172607421876,0.1532411128282547,-0.126168206334114,-0.4725940525531769
2024-12-07 18:18:29.929146600,9.766146728515626,0.1356130987405777,-0.0634284615516662,-0.390877217054367
2024-12-07 18:18:29.939120600,9.77612060546875,0.1109519675374031,0.0300277136266231,-0.3300801813602447
2024-12-07 18:18:29.949094700,9.7860947265625,0.076650895178318,0.1550892442464828,-0.2811203896999359
2024-12-07 18:18:29.959068400,9.796068359375,0.0235898122191429,0.2933823764324188,-0.2312319278717041
2024-12-07 18:18:29.969042400,9.80604248046875,-0.0483953990042209,0.3743947744369507,-0.1610109508037567
2024-12-07 18:18:29.979016400,9.816016357421876,-0.1082283779978752,0.4359492063522339,-0.0799456611275672
2024-12-07 18:18:29.988990500,9.825990478515624,-0.1241664513945579,0.4787892699241638,-0.0102409180253744
2024-12-07 18:18:29.998963700,9.835963623046876,-0.1513232439756393,0.4624323844909668,0.0551508739590644
2024-12-07 18:18:30.008937500,9.8459375,-0.1706578284502029,0.430143803358078,0.0870890840888023
2024-12-07 18:18:30.018911500,9.855911376953124,-0.171598732471466,0.3974287509918213,0.0683558806777
2024-12-07 18:18:30.028885500,9.865885498046875,-0.1507438421249389,0.3396414816379547,0.007356762420386
2024-12-07 18:18:30.038859500,9.875859619140623,-0.1172074452042579,0.2618300318717956,-0.0774606615304946
2024-12-07 18:18:30.048833500,9.88583349609375,-0.0819426029920578,0.1684488654136657,-0.1723931431770324
2024-12-07 18:18:30.058807600,9.8958076171875,-0.0480410940945148,0.0672274380922317,-0.2623840272426605
2024-12-07 18:18:30.068781600,9.905781494140625,-0.0110841635614633,-0.0088005438446998,-0.3292252421379089
2024-12-07 18:18:30.078755600,9.915755615234374,0.0146757951006293,-0.0567526221275329,-0.3816418349742889
2024-12-07 18:18:30.088729600,9.9257294921875,0.0135447327047586,-0.100723348557949,-0.4202834069728851
2024-12-07 18:18:30.098703600,9.93570361328125,-0.0121031068265438,-0.1462610065937042,-0.4505241215229034
2024-12-07 18:18:30.108677600,9.945677734375,-0.0396313965320587,-0.196422129869461,-0.4773057401180267
2024-12-07 18:18:30.118651600,9.955651611328124,-0.0229996908456087,-0.2207551598548889,-0.5200446844100952
2024-12-07 18:18:30.128625700,9.965625732421875,-0.0634221583604812,-0.2745599448680877,-0.5237380266189575
2024-12-07 18:18:30.138598700,9.9755986328125,-0.1075848266482353,-0.2587580680847168,-0.4905342161655426
2024-12-07 18:18:30.148572700,9.98557275390625,-0.1618489027023315,-0.2141813784837722,-0.4249704778194427
2024-12-07 18:18:30.158546700,9.995546630859376,-0.1905865371227264,-0.1489051580429077,-0.3747536540031433
2024-12-07 18:18:30.168520700,10.005520751953124,-0.207372710108757,-0.097875528037548,-0.3423722684383392
2024-12-07 18:18:30.178494500,10.015494384765624,-0.2270856946706771,-0.0479503124952316,-0.3151606321334839
2024-12-07 18:18:30.188468500,10.025468505859376,-0.2456780672073364,-0.00471644802019,-0.2819757163524627
2024-12-07 18:18:30.198442500,10.0354423828125,-0.2547658383846283,0.0457549840211868,-0.244054690003395
2024-12-07 18:18:30.208416500,10.04541650390625,-0.2491870820522308,0.0866568088531494,-0.2104052454233169
2024-12-07 18:18:30.218390500,10.055390625,-0.2207881957292556,0.1637031286954879,-0.2122396379709243
2024-12-07 18:18:30.228364500,10.065364501953123,-0.2682920396327972,0.1704452186822891,-0.1901003271341323
2024-12-07 18:18:30.238338600,10.075338623046877,-0.2939140498638153,0.2086762189865112,-0.1998608112335205
2024-12-07 18:18:30.248312600,10.0853125,-0.3335761427879333,0.2092863768339157,-0.2059581577777862
2024-12-07 18:18:30.258286600,10.09528662109375,-0.3571904003620147,0.2056317329406738,-0.2142781466245651
2024-12-07 18:18:30.268260400,10.10526025390625,-0.3711040914058685,0.1990478634834289,-0.2179208099842071
2024-12-07 18:18:30.278234400,10.115234375,-0.357731819152832,0.2182575017213821,-0.2185533195734024
2024-12-07 18:18:30.288207600,10.12520751953125,-0.325447529554367,0.2026416510343551,-0.2158395200967788
2024-12-07 18:18:30.298181600,10.135181640625,-0.3145922124385834,0.1908193528652191,-0.1931200921535492
2024-12-07 18:18:30.308155600,10.14515576171875,-0.2780882716178894,0.2235452681779861,-0.1760123521089553
2024-12-07 18:18:30.318129700,10.155129638671877,-0.2155910730361938,0.2826865911483764,-0.1831717193126678
2024-12-07 18:18:30.328103400,10.165103515625,-0.1673541069030761,0.278915137052536,-0.1757246106863021
2024-12-07 18:18:30.338077400,10.175077392578125,-0.1443622410297393,0.2802983820438385,-0.1591994315385818
2024-12-07 18:18:30.348051500,10.185051513671874,-0.1201902702450752,0.3049732446670532,-0.1476427018642425
2024-12-07 18:18:30.358025500,10.195025390625,-0.123108834028244,0.2554927766323089,-0.0968168005347251
2024-12-07 18:18:30.367999500,10.20499951171875,-0.1620276570320129,0.1779737323522567,-0.0111016072332859
2024-12-07 18:18:30.377973500,10.214973388671876,-0.1641808152198791,0.1382707953453064,0.065920740365982
2024-12-07 18:18:30.387947500,10.224947509765624,-0.1253103166818618,0.162145122885704,0.0926066264510154
2024-12-07 18:18:30.397921500,10.234921630859375,-0.0990297198295593,0.196982204914093,0.107912078499794
2024-12-07 18:18:30.407895600,10.2448955078125,-0.1465348899364471,0.2305032610893249,0.1457764357328415
2024-12-07 18:18:30.417869600,10.25486962890625,-0.1679360568523407,0.3144692480564117,0.1860093474388122
2024-12-07 18:18:30.427843600,10.264843505859377,-0.1422043740749359,0.3778225481510162,0.2272345572710037
2024-12-07 18:18:30.437816600,10.274816650390624,-0.0848199129104614,0.3921327888965606,0.272586315870285
2024-12-07 18:18:30.447790600,10.28479052734375,-0.0125482976436614,0.3733672797679901,0.302561342716217
2024-12-07 18:18:30.457764600,10.2947646484375,0.0417455695569515,0.3041117787361145,0.3310379981994629
2024-12-07 18:18:30.467738600,10.304738525390626,0.097010888159275,0.2402029037475586,0.3446689546108246
2024-12-07 18:18:30.477712600,10.314712646484375,0.1913957148790359,0.1484458297491073,0.3590111434459686
2024-12-07 18:18:30.487686700,10.324686767578124,0.2504356205463409,-0.0580124333500862,0.3953551352024078
2024-12-07 18:18:30.497660700,10.33466064453125,0.2856290340423584,-0.1986033618450164,0.4328644275665283
2024-12-07 18:18:30.507634700,10.344634765625,0.335682600736618,-0.218000903725624,0.4436611235141754
2024-12-07 18:18:30.517608700,10.354608642578125,0.395352303981781,-0.1553785353899002,0.4533677995204925
2024-12-07 18:18:30.527582700,10.364582763671876,0.4246715009212494,-0.0943790823221206,0.4811168611049652
2024-12-07 18:18:30.537556700,10.374556640625,0.4253468811511993,-0.0551200956106185,0.5645843148231506
2024-12-07 18:18:30.547530800,10.38453076171875,0.4233892261981964,-0.0296262931078672,0.7393278479576111
2024-12-07 18:18:30.557504800,10.3945048828125,0.4300005435943603,0.0020291027612984,1.0019035339355469
2024-12-07 18:18:30.567479300,10.404479248046876,0.4415515065193176,0.0267806500196456,1.298304796218872
2024-12-07 18:18:30.577452500,10.41445263671875,0.457854300737381,0.0713387951254844,1.5632648468017578
2024-12-07 18:18:30.587426300,10.42442626953125,0.4782119691371918,0.182548776268959,1.7587308883666992
2024-12-07 18:18:30.597400300,10.434400390625,0.5130639672279358,0.4164188206195831,1.872652053833008
2024-12-07 18:18:30.607374300,10.444374267578125,0.5738189220428467,0.7385735511779785,1.9082543849945068
2024-12-07 18:18:30.617348400,10.454348388671876,0.6689587235450745,1.071133375167847,1.880793571472168
2024-12-07 18:18:30.627322400,10.464322265625,0.7738246917724609,1.321764588356018,1.8398287296295168
2024-12-07 18:18:30.637296400,10.47429638671875,0.8425880670547485,1.3599870204925537,1.849201798439026
2024-12-07 18:18:30.647270400,10.4842705078125,0.8212277889251709,1.1714913845062256,1.9158252477645872
2024-12-07 18:18:30.657244400,10.494244384765626,0.7181456089019775,0.8622594475746155,1.95403254032135
2024-12-07 18:18:30.667218400,10.504218505859376,0.5840821862220764,0.6167885661125183,1.899019718170166
2024-12-07 18:18:30.677192400,10.5141923828125,0.4745016396045685,0.6447014212608337,1.7372918128967283
2024-12-07 18:18:30.687166500,10.52416650390625,0.4101972281932831,0.8406950831413269,1.5094547271728516
2024-12-07 18:18:30.697140500,10.534140380859377,0.4186010956764221,1.030082941055298,1.28781259059906
2024-12-07 18:18:30.707114500,10.544114501953125,0.4237249791622162,1.2309138774871826,1.1102715730667114
2024-12-07 18:18:30.717088500,10.554088623046876,0.4307163059711456,1.3386917114257812,0.9854507446289062
2024-12-07 18:18:30.727061500,10.5640615234375,0.4659865796566009,1.3050360679626465,0.907163143157959
2024-12-07 18:18:30.737035500,10.574035400390626,0.5012567043304443,1.1354044675827026,0.8247748017311096
2024-12-07 18:18:30.747009500,10.584009521484376,0.5063087344169617,0.991555631160736,0.7311674356460571
2024-12-07 18:18:30.756983600,10.593983642578126,0.4776871502399444,0.8907546997070312,0.6153132915496826
2024-12-07 18:18:30.766957600,10.60395751953125,0.4500935077667236,0.7413594722747803,0.4864279329776764
2024-12-07 18:18:30.776931600,10.613931640625,0.4180908203125,0.564964771270752,0.3582462668418884
2024-12-07 18:18:30.786905600,10.623905517578123,0.3984501361846924,0.3719848096370697,0.212450698018074
2024-12-07 18:18:30.796879600,10.633879638671877,0.3631552457809448,0.1957527995109558,0.0337435267865657
2024-12-07 18:18:30.806853600,10.643853515625,0.3196427822113037,0.0483729094266891,-0.1511839628219604
2024-12-07 18:18:30.816827600,10.65382763671875,0.2943792343139648,-0.1479779630899429,-0.2803339660167694
2024-12-07 18:18:30.826801700,10.6638017578125,0.303068459033966,-0.3865134716033935,-0.3296985030174255
2024-12-07 18:18:30.836775400,10.673775390625,0.3172577619552612,-0.5167473554611206,-0.3538373708724975
2024-12-07 18:18:30.846749400,10.68374951171875,0.3257088363170624,-0.5133236646652222,-0.3731254935264587
2024-12-07 18:18:30.856723500,10.693723388671875,0.3106097877025604,-0.3931892812252044,-0.386548638343811
2024-12-07 18:18:30.866696400,10.703696533203123,0.2712293565273285,-0.2441403716802597,-0.3854309618473053
2024-12-07 18:18:30.876670500,10.71367041015625,0.2366389036178589,-0.1460132747888565,-0.4016293883323669
2024-12-07 18:18:30.886644500,10.72364453125,0.1931123435497284,-0.1404694467782974,-0.4650446474552154
2024-12-07 18:18:30.896618200,10.7336181640625,0.1604651808738708,-0.1343436539173126,-0.5257572531700134
2024-12-07 18:18:30.906592300,10.74359228515625,0.1385268568992614,-0.1574205160140991,-0.5902866721153259
2024-12-07 18:18:30.916566300,10.753566162109376,0.1173960044980049,-0.1695381551980972,-0.6313403844833374
2024-12-07 18:18:30.926540300,10.763540283203126,0.0786529406905174,-0.1334385126829147,-0.6372370719909668
2024-12-07 18:18:30.936514300,10.773514404296876,-0.0008035326609387,-0.0469811223447322,-0.6094078421592712
2024-12-07 18:18:30.946488300,10.78348828125,-0.1129834651947021,0.0222960636019706,-0.5526577234268188
2024-12-07 18:18:30.956462300,10.79346240234375,-0.227295383810997,0.0153968790546059,-0.4644687175750732
2024-12-07 18:18:30.966436400,10.803436279296877,-0.3266328275203705,-0.0755700767040252,-0.3730047345161438
2024-12-07 18:18:30.976410400,10.813410400390625,-0.4137059450149536,-0.1955548077821731,-0.3103123307228088
2024-12-07 18:18:30.986384400,10.82338427734375,-0.4704126417636871,-0.2544405162334442,-0.3044591844081878
2024-12-07 18:18:30.996358400,10.8333583984375,-0.4849889278411865,-0.2454723417758941,-0.3406757712364197
2024-12-07 18:18:31.006332400,10.84333251953125,-0.4594788253307342,-0.2502923011779785,-0.3585228323936462
2024-12-07 18:18:31.016305400,10.853305419921876,-0.4107853174209595,-0.303155779838562,-0.3431997895240783
2024-12-07 18:18:31.026279400,10.863279541015626,-0.3544157743453979,-0.3821959197521209,-0.3214230835437774
2024-12-07 18:18:31.036253400,10.87325341796875,-0.3142670094966888,-0.5090824961662292,-0.3049325048923492
2024-12-07 18:18:31.046227500,10.8832275390625,-0.2736888527870178,-0.6826509833335876,-0.3058933615684509
2024-12-07 18:18:31.056201500,10.893201416015623,-0.2140758335590362,-0.8349579572677612,-0.3346850574016571
2024-12-07 18:18:31.066175500,10.903175537109377,-0.1197532340884208,-0.8978546261787415,-0.3744348883628845
2024-12-07 18:18:31.076149500,10.9131494140625,-0.014959443360567,-0.8164372444152832,-0.4037453830242157
2024-12-07 18:18:31.086123500,10.92312353515625,0.0687471777200698,-0.6230450868606567,-0.4231375157833099
2024-12-07 18:18:31.096097500,10.93309765625,0.1318007111549377,-0.389971911907196,-0.4326066374778747
2024-12-07 18:18:31.106071600,10.943071533203126,0.1814888417720794,-0.1937527954578399,-0.4440512061119079
2024-12-07 18:18:31.116045600,10.953045654296876,0.2138853967189788,-0.0714567154645919,-0.4651961624622345
2024-12-07 18:18:31.126019600,10.96301953125,0.2157797515392303,-0.0150596238672733,-0.4949114322662353
2024-12-07 18:18:31.135993600,10.97299365234375,0.2125061899423599,-0.0120614366605877,-0.5037869215011597
2024-12-07 18:18:31.145967400,10.98296728515625,0.2281097173690796,-0.0321459732949733,-0.4728135168552398
2024-12-07 18:18:31.155940600,10.992940673828125,0.2514781653881073,-0.053343404084444,-0.404667466878891
2024-12-07 18:18:31.165914600,11.00291455078125,0.2633781731128692,-0.0997981429100036,-0.3244487345218658
2024-12-07 18:18:31.175888600,11.012888671875,0.2441933006048202,-0.1656320244073867,-0.2706347703933716
2024-12-07 18:18:31.185862700,11.022862548828124,0.1888096928596496,-0.2900396883487701,-0.2678026556968689
2024-12-07 18:18:31.195836700,11.032836669921876,0.0928200483322143,-0.5002701282501221,-0.319006472826004
2024-12-07 18:18:31.205810400,11.042810546875,-0.0280374530702829,-0.7834942936897278,-0.3961744308471679
2024-12-07 18:18:31.215784400,11.052784423828124,-0.1453635394573211,-1.063214659690857,-0.4929286539554596
2024-12-07 18:18:31.225758500,11.062758544921875,-0.2289011180400848,-1.2676467895507812,-0.6208611726760864
2024-12-07 18:18:31.235732500,11.072732421875,-0.2550059854984283,-1.371568202972412,-0.7718163132667542
2024-12-07 18:18:31.245706500,11.08270654296875,-0.2602276504039764,-1.3918272256851196,-0.8915560245513916
2024-12-07 18:18:31.255680500,11.092680419921876,-0.3095922768115997,-1.2794495820999146,-0.98573499917984
2024-12-07 18:18:31.265654500,11.102654541015625,-0.4182069599628448,-0.9655365347862244,-1.0291773080825806
2024-12-07 18:18:31.275628500,11.112628662109374,-0.5041906237602234,-0.4286312460899353,-0.9526424407958984
2024-12-07 18:18:31.285602300,11.122602294921874,-0.4934107959270477,0.1830311715602874,-0.7316694855690002
2024-12-07 18:18:31.295576300,11.132576416015626,-0.3885528147220611,0.6525150537490845,-0.4311893284320831
2024-12-07 18:18:31.305549300,11.14254931640625,-0.2327705770730972,0.8244212865829468,-0.1386193037033081
2024-12-07 18:18:31.315523300,11.1525234375,-0.0895010381937027,0.6752851009368896,0.0650731101632118
2024-12-07 18:18:31.325497300,11.162497314453123,-0.0135590936988592,0.333390474319458,0.1283825784921646
2024-12-07 18:18:31.335471400,11.172471435546877,-0.0298453886061906,-0.0533575192093849,0.0610240474343299
2024-12-07 18:18:31.345445400,11.1824453125,-0.1045195534825325,-0.3788973093032837,-0.1150105446577072
2024-12-07 18:18:31.355419400,11.19241943359375,-0.2119922190904617,-0.609968364238739,-0.3413842916488647
2024-12-07 18:18:31.365393400,11.202393310546874,-0.3121703863143921,-0.7558147311210632,-0.5210474729537964
2024-12-07 18:18:31.375367400,11.212367431640626,-0.3906202018260956,-0.804100513458252,-0.5860118269920349
2024-12-07 18:18:31.385341400,11.222341552734376,-0.465859055519104,-0.7389829158782959,-0.5348224639892578
2024-12-07 18:18:31.395315500,11.2323154296875,-0.5308465957641602,-0.6052123308181763,-0.3844545185565948
2024-12-07 18:18:31.405289500,11.24228955078125,-0.5557746291160583,-0.4816405177116394,-0.1902420669794082
2024-12-07 18:18:31.415263500,11.252263427734375,-0.5096388459205627,-0.4547013342380523,-0.0522753968834877
2024-12-07 18:18:31.425237500,11.262237548828123,-0.4029612839221954,-0.5487193465232849,-0.0280652344226837
2024-12-07 18:18:31.435211500,11.27221142578125,-0.2850982844829559,-0.6900562644004822,-0.1223227605223655
2024-12-07 18:18:31.445184500,11.2821845703125,-0.1788585782051086,-0.8009867668151855,-0.2857759892940521
2024-12-07 18:18:31.455158500,11.292158447265624,-0.0951170697808265,-0.8418465256690979,-0.4596471190452575
2024-12-07 18:18:31.465132500,11.302132568359376,-0.0337260328233242,-0.8370362520217896,-0.5892646312713623
2024-12-07 18:18:31.475106600,11.3121064453125,0.025736229494214,-0.8036268949508667,-0.6577526330947876
2024-12-07 18:18:31.485080600,11.32208056640625,0.0992637351155281,-0.7574822306632996,-0.6759730577468872
2024-12-07 18:18:31.495054600,11.3320546875,0.1656100004911422,-0.6863097548484802,-0.6618138551712036
2024-12-07 18:18:31.505028600,11.342028564453123,0.2058666795492172,-0.5797610878944397,-0.6378114223480225
2024-12-07 18:18:31.515002400,11.35200244140625,0.2252957671880722,-0.4343924224376678,-0.613942563533783
