time,seconds_elapsed,z,y,x
2024-12-07 18:29:19.595055900,0.022055908203125,-0.1026638746261596,0.0683980584144592,-0.2259659469127655
2024-12-07 18:29:19.605030000,0.03202978515625,-0.122841440141201,0.1397051364183426,-0.2076884359121322
2024-12-07 18:29:19.615004000,0.04200390625,-0.125383973121643,0.1431139856576919,-0.2128174155950546
2024-12-07 18:29:19.624978000,0.05197802734375,-0.1153789535164833,0.1666058599948883,-0.2095137536525726
2024-12-07 18:29:19.634951700,0.06195166015625,-0.0986463129520416,0.1950052678585052,-0.1937169432640075
2024-12-07 18:29:19.644924700,0.071924560546875,-0.0834718346595764,0.205709233880043,-0.1941181272268295
2024-12-07 18:29:19.654898700,0.081898681640625,-0.0883145257830619,0.1958022862672805,-0.2023675441741943
2024-12-07 18:29:19.664872700,0.091872802734375,-0.1106170564889907,0.1701411455869674,-0.2107837200164795
2024-12-07 18:29:19.674846700,0.1018466796875,-0.1360920518636703,0.1468414217233657,-0.2300362437963485
2024-12-07 18:29:19.684820700,0.11182080078125,-0.1639628410339355,0.1180081740021705,-0.2588470876216888
2024-12-07 18:29:19.694794800,0.121794677734375,-0.1864633560180664,0.1110139191150665,-0.2850898802280426
2024-12-07 18:29:19.704768800,0.131768798828125,-0.204050600528717,0.0964150354266166,-0.3045842945575714
2024-12-07 18:29:19.714741800,0.14174169921875,-0.217747762799263,0.0612370707094669,-0.324002742767334
2024-12-07 18:29:19.724715800,0.1517158203125,-0.2285501211881637,0.0370378606021404,-0.3341515064239502
2024-12-07 18:29:19.734689800,0.161689697265625,-0.2524378895759582,0.0117484852671623,-0.3350021243095398
2024-12-07 18:29:19.744663800,0.171663818359375,-0.2749195694923401,-0.0259647294878959,-0.3407203555107116
2024-12-07 18:29:19.754637800,0.181637939453125,-0.2909011840820312,-0.075637474656105,-0.3395544290542602
2024-12-07 18:29:19.764611800,0.19161181640625,-0.3070059418678283,-0.0998706966638565,-0.3390320837497711
2024-12-07 18:29:19.774584800,0.201584716796875,-0.3462745249271393,-0.1063403189182281,-0.3499190807342529
2024-12-07 18:29:19.784558800,0.211558837890625,-0.3692024648189544,-0.0982674732804298,-0.3580377399921417
2024-12-07 18:29:19.794532900,0.221532958984375,-0.4008426964282989,-0.0985479056835174,-0.3721216022968292
2024-12-07 18:29:19.804507000,0.2315068359375,-0.402384877204895,-0.0830528810620307,-0.3814516365528106
2024-12-07 18:29:19.814481000,0.24148095703125,-0.4060624241828918,0.1656434834003448,-0.317538172006607
2024-12-07 18:29:19.824455000,0.251454833984375,-0.3495255410671234,0.2413369715213775,-0.3169784545898437
2024-12-07 18:29:19.834427600,0.261427734375,-0.4883238971233368,0.4785407483577728,-0.4301678538322449
2024-12-07 18:29:19.844401700,0.271401611328125,-0.8900662660598755,0.8767614364624023,-0.6696733236312866
2024-12-07 18:29:19.854375700,0.281375732421875,-1.2528692483901978,1.2760065793991089,-0.8779628872871399
2024-12-07 18:29:19.864349700,0.291349609375,-1.5798087120056152,1.598643183708191,-0.9859053492546082
2024-12-07 18:29:19.874323700,0.30132373046875,-1.987586975097656,1.8362339735031128,-1.0278663635253906
2024-12-07 18:29:19.884297700,0.311297607421875,-2.4198029041290283,1.9378210306167605,-1.0082812309265137
2024-12-07 18:29:19.894271500,0.321271484375,-2.739748001098633,1.6272732019424438,-0.99969482421875
2024-12-07 18:29:19.904244700,0.33124462890625,-2.972331523895264,1.064764142036438,-0.944973647594452
2024-12-07 18:29:19.914218800,0.34121875,-3.0968706607818604,0.5729005932807922,-0.7041829228401184
2024-12-07 18:29:19.924192800,0.35119287109375,-3.0350914001464844,-0.009757550433278,-0.5088043808937073
2024-12-07 18:29:19.934166800,0.361166748046875,-2.647416830062866,-0.507469117641449,-0.3854313194751739
2024-12-07 18:29:19.944140800,0.371140869140625,-2.2481484413146973,-0.9322193264961244,-0.3052917122840881
2024-12-07 18:29:19.954114600,0.381114501953125,-1.866510272026062,-1.0310406684875488,-0.2028257995843887
2024-12-07 18:29:19.964087800,0.391087890625,-1.507189393043518,-0.8182798027992249,-0.0610239692032337
2024-12-07 18:29:19.974061800,0.401061767578125,-1.168140530586243,-0.4377122223377228,0.0983451828360557
2024-12-07 18:29:19.984035800,0.411035888671875,-0.8208279609680176,0.1319720149040222,0.2778238952159881
2024-12-07 18:29:19.994009900,0.421009765625,-0.4595291316509247,0.126961275935173,0.2527768611907959
2024-12-07 18:29:20.003983600,0.430983642578125,-0.2063601016998291,0.0739568322896957,0.1671034097671508
2024-12-07 18:29:20.013957600,0.44095751953125,-0.0226089153438806,0.2563338279724121,0.1548475325107574
2024-12-07 18:29:20.023931000,0.450930908203125,0.1042335852980613,0.4390574693679809,0.1913469284772873
2024-12-07 18:29:20.033905000,0.46090478515625,0.2055804431438446,0.4839301407337188,0.2599201202392578
2024-12-07 18:29:20.043879000,0.47087890625,0.2786409258842468,0.424691379070282,0.3161696195602417
2024-12-07 18:29:20.053852700,0.480852783203125,0.2930001616477966,0.53827303647995,0.3665172159671783
2024-12-07 18:29:20.063826700,0.49082666015625,0.2992840409278869,0.745476245880127,0.4220395088195801
2024-12-07 18:29:20.073800700,0.50080078125,0.3590680062770843,1.0468899011611938,0.4945131838321686
2024-12-07 18:29:20.083773700,0.510773681640625,0.4451076090335846,1.2868623733520508,0.5380711555480957
2024-12-07 18:29:20.093747700,0.520747802734375,0.5050916075706482,1.4297364950180054,0.554874062538147
2024-12-07 18:29:20.103721700,0.5307216796875,0.5451484322547913,1.4043577909469604,0.5350213050842285
2024-12-07 18:29:20.113695700,0.54069580078125,0.5649991035461426,1.2400429248809814,0.4654987156391144
2024-12-07 18:29:20.123669500,0.55066943359375,0.5096979737281799,0.9915490746498108,0.3466205298900604
2024-12-07 18:29:20.133643500,0.5606435546875,0.4028533101081848,0.6974356770515442,0.2441130578517913
2024-12-07 18:29:20.143617500,0.570617431640625,0.2683549225330353,0.4351687431335449,0.1642547398805618
2024-12-07 18:29:20.153590800,0.5805908203125,0.1375984847545623,0.2993353009223938,0.1665993928909301
2024-12-07 18:29:20.163564800,0.590564697265625,0.0713865682482719,0.3207423686981201,0.2450421303510666
2024-12-07 18:29:20.173539300,0.600539306640625,0.0528099499642849,0.367748498916626,0.3329402804374695
2024-12-07 18:29:20.183513300,0.610513427734375,0.0316328927874565,0.3264853954315185,0.3977373540401459
2024-12-07 18:29:20.193487400,0.6204873046875,-0.0397914908826351,0.1782376021146774,0.4211878180503845
2024-12-07 18:29:20.203461400,0.63046142578125,-0.1891625225543975,-0.0211647544056177,0.3949996829032898
2024-12-07 18:29:20.213434400,0.640434326171875,-0.4521089196205139,-0.2583363056182861,0.3220426440238952
2024-12-07 18:29:20.223408400,0.650408447265625,-0.6957743167877197,-0.4778702855110168,0.2678103446960449
2024-12-07 18:29:20.233382400,0.66038232421875,-0.9066375494003296,-0.6744089126586914,0.237519308924675
2024-12-07 18:29:20.243356400,0.6703564453125,-1.0493223667144775,-0.7696093320846558,0.2355405539274215
2024-12-07 18:29:20.253330400,0.680330322265625,-1.1484848260879517,-0.7691528797149658,0.2424080371856689
2024-12-07 18:29:20.263304400,0.690304443359375,-1.2501453161239624,-0.9278055429458618,0.1828821301460266
2024-12-07 18:29:20.273277400,0.70027734375,-1.285875916481018,-1.0558656454086304,0.0758185237646102
2024-12-07 18:29:20.283251500,0.71025146484375,-1.2272454500198364,-1.1786507368087769,-0.0223914328962564
2024-12-07 18:29:20.293225500,0.7202255859375,-1.0757485628128052,-1.3307209014892578,-0.0941542983055114
2024-12-07 18:29:20.303199500,0.730199462890625,-0.8630145788192749,-1.427181363105774,-0.1478740870952606
2024-12-07 18:29:20.313173500,0.740173583984375,-0.6123114824295044,-1.347555160522461,-0.1131166443228721
2024-12-07 18:29:20.323147500,0.7501474609375,-0.3450613617897033,-1.109895944595337,0.0041969460435211
2024-12-07 18:29:20.333120300,0.760120361328125,-0.1382227092981338,-0.7835249304771423,0.140936940908432
2024-12-07 18:29:20.343094300,0.77009423828125,-0.0047395164147019,-0.4009414315223694,0.2527369260787964
2024-12-07 18:29:20.353068300,0.780068359375,0.0724777802824974,-0.1286534518003463,0.2918659448623657
2024-12-07 18:29:20.363042300,0.790042236328125,0.1230739429593086,0.0017368331318721,0.2665341198444366
2024-12-07 18:29:20.373016300,0.800016357421875,0.1839950829744339,0.0242661107331514,0.1999143362045288
2024-12-07 18:29:20.382990300,0.809990234375,0.2506860792636871,-0.0425764508545398,0.1101951375603675
2024-12-07 18:29:20.392963300,0.81996337890625,0.3171189129352569,-0.1131342425942421,0.0390772894024848
2024-12-07 18:29:20.402937300,0.829937255859375,0.3938343524932861,-0.1704141050577163,0.00877620652318
2024-12-07 18:29:20.412911400,0.839911376953125,0.4728844463825226,-0.2054653018712997,0.0242193453013896
2024-12-07 18:29:20.422885400,0.849885498046875,0.225261852145195,-0.1919542700052261,0.1349362879991531
2024-12-07 18:29:20.432859400,0.859859375,-0.1113214939832687,-0.0741791725158691,0.2311009019613266
2024-12-07 18:29:20.442833400,0.86983349609375,-0.0703196600079536,-0.0176110118627548,0.2441565841436386
2024-12-07 18:29:20.452807400,0.879807373046875,0.1063011810183525,-0.0998608767986297,0.2076933830976486
2024-12-07 18:29:20.462780400,0.889780517578125,0.2292210608720779,-0.1811413615942001,0.1541500240564346
2024-12-07 18:29:20.472754400,0.89975439453125,0.2973356544971466,-0.152813583612442,0.1168029233813285
2024-12-07 18:29:20.482728400,0.909728515625,0.2915043532848358,-0.0727445408701896,0.1142989248037338
2024-12-07 18:29:20.492702500,0.919702392578125,0.2572337388992309,0.0390246026217937,0.1203557550907135
2024-12-07 18:29:20.502676500,0.929676513671875,0.2525978088378906,0.2353087216615677,0.0618289001286029
2024-12-07 18:29:20.512650500,0.939650390625,0.307485818862915,0.487284779548645,0.0747867673635482
2024-12-07 18:29:20.522623500,0.94962353515625,0.3091422617435455,0.6691284775733948,0.133642092347145
2024-12-07 18:29:20.532597500,0.959597412109375,0.257630854845047,0.7627958655357361,0.1467783898115158
2024-12-07 18:29:20.542571500,0.969571533203125,0.1819059252738952,0.7489559054374695,0.0636172443628311
2024-12-07 18:29:20.552545500,0.979545654296875,0.1088301092386245,0.6756063103675842,-0.053246259689331
2024-12-07 18:29:20.562519600,0.98951953125,0.0888910517096519,0.6133449077606201,-0.168933629989624
2024-12-07 18:29:20.572493600,0.99949365234375,0.1219299659132957,0.590208113193512,-0.2554655969142914
2024-12-07 18:29:20.582466300,1.00946630859375,0.2532377541065216,0.475546270608902,-0.2921977639198303
2024-12-07 18:29:20.592440300,1.0194404296875,0.2827327847480774,0.3587842583656311,-0.2824503183364868
2024-12-07 18:29:20.602414300,1.029414306640625,0.2342375367879867,0.2300295382738113,-0.2438117563724517
2024-12-07 18:29:20.612388400,1.039388427734375,0.2043193280696869,0.0659476742148399,-0.2578335702419281
2024-12-07 18:29:20.622362400,1.0493623046875,0.1886276006698608,-0.0952606797218322,-0.2534859180450439
2024-12-07 18:29:20.632336400,1.05933642578125,0.1375955790281295,-0.1994278281927108,-0.2110391110181808
2024-12-07 18:29:20.642309400,1.069309326171875,0.0618582218885421,-0.208990678191185,-0.199199303984642
2024-12-07 18:29:20.652283400,1.079283447265625,0.0101809157058596,-0.1952759325504303,-0.2170941531658172
2024-12-07 18:29:20.662257400,1.08925732421875,-0.0172498803585767,-0.1765452921390533,-0.2638741135597229
2024-12-07 18:29:20.672231400,1.0992314453125,-0.035172950476408,-0.1730269938707351,-0.3086210787296295
2024-12-07 18:29:20.682205400,1.109205322265625,-0.0481795780360698,-0.1925434619188308,-0.3415517807006836
2024-12-07 18:29:20.692179500,1.119179443359375,-0.0534491725265979,-0.1966156959533691,-0.343536913394928
2024-12-07 18:29:20.702152400,1.12915234375,-0.0577668249607086,-0.1794840097427368,-0.334802508354187
2024-12-07 18:29:20.712126500,1.13912646484375,-0.0564514882862567,-0.165046215057373,-0.3251030147075653
2024-12-07 18:29:20.722100500,1.1491005859375,-0.0507554113864898,-0.1551271677017212,-0.3232229650020599
2024-12-07 18:29:20.732074500,1.159074462890625,-0.0344182513654232,-0.1874667406082153,-0.3269023895263672
2024-12-07 18:29:20.742048500,1.169048583984375,-0.0131422756239771,-0.2287572622299194,-0.3392492234706878
2024-12-07 18:29:20.752022500,1.1790224609375,0.0269289761781692,-0.2691328823566437,-0.3608280122280121
2024-12-07 18:29:20.761995500,1.18899560546875,0.065518669784069,-0.3021117746829986,-0.4116856157779693
2024-12-07 18:29:20.771969500,1.198969482421875,0.0548101030290126,-0.3151042759418487,-0.4735638797283172
2024-12-07 18:29:20.781943600,1.208943603515625,0.0278479363769292,-0.3239178657531738,-0.5231460332870483
2024-12-07 18:29:20.791917600,1.21891748046875,0.0349266193807125,-0.4425353407859802,-0.5915527939796448
2024-12-07 18:29:20.801891600,1.2288916015625,-0.0024908825289458,-0.542208731174469,-0.6591898798942566
2024-12-07 18:29:20.811865600,1.238865478515625,-0.0384789779782295,-0.6071531176567078,-0.7140991687774658
2024-12-07 18:29:20.821839600,1.248839599609375,-0.0555309131741523,-0.6180860996246338,-0.7466343641281128
2024-12-07 18:29:20.831812400,1.258812255859375,-0.0674264580011367,-0.5619189739227295,-0.7360717058181763
2024-12-07 18:29:20.841786400,1.268786376953125,-0.0735452696681022,-0.4217379689216614,-0.699739933013916
2024-12-07 18:29:20.851760400,1.278760498046875,-0.0819853544235229,-0.210348755121231,-0.659614622592926
2024-12-07 18:29:20.861734400,1.288734375,-0.0909636691212654,0.0251018963754177,-0.6125150322914124
2024-12-07 18:29:20.871708400,1.29870849609375,-0.0926409214735031,0.1935593634843826,-0.5307722687721252
2024-12-07 18:29:20.881682400,1.308682373046875,-0.0875219106674194,0.2395515143871307,-0.4218645393848419
2024-12-07 18:29:20.891655400,1.318655517578125,-0.0974608287215232,0.2065786570310592,-0.2825207412242889
2024-12-07 18:29:20.901629400,1.32862939453125,-0.1171047091484069,0.1822207123041153,-0.13319993019104
2024-12-07 18:29:20.911603500,1.338603515625,-0.1235000267624855,0.2414517998695373,0.0124816298484802
2024-12-07 18:29:20.921577500,1.348577392578125,-0.1525675058364868,0.3410261869430542,0.0622193962335586
2024-12-07 18:29:20.931551500,1.358551513671875,-0.1723814159631729,0.3693749904632568,0.004726804792881
2024-12-07 18:29:20.941525500,1.368525390625,-0.1694894433021545,0.2779634594917297,-0.0696755275130271
2024-12-07 18:29:20.951498500,1.37849853515625,-0.1520792990922927,0.0808232277631759,-0.1213791966438293
2024-12-07 18:29:20.961472500,1.388472412109375,-0.1424621194601059,-0.1493956595659256,-0.1484367698431015
2024-12-07 18:29:20.971446500,1.398446533203125,-0.1616376787424087,-0.3425171673297882,-0.1817236095666885
2024-12-07 18:29:20.981420500,1.408420654296875,-0.1969045102596283,-0.4560829102993011,-0.2323060780763626
2024-12-07 18:29:20.991394600,1.41839453125,-0.2049725651741027,-0.4798763990402221,-0.2669098675251007
2024-12-07 18:29:21.001368600,1.42836865234375,-0.17814601957798,-0.4001222550868988,-0.2856777906417846
2024-12-07 18:29:21.011341600,1.438341552734375,-0.1515359878540039,-0.2437342405319214,-0.3148117065429687
2024-12-07 18:29:21.021315600,1.448315673828125,-0.1673535257577896,-0.0586558803915977,-0.4001681208610534
2024-12-07 18:29:21.031289600,1.45828955078125,-0.1701895296573639,0.1407693326473236,-0.4646293818950653
2024-12-07 18:29:21.041263400,1.468263427734375,-0.1419661492109298,0.2724298536777496,-0.4965581893920898
2024-12-07 18:29:21.051237400,1.4782373046875,-0.0900382474064827,0.2902977764606476,-0.4838503897190094
2024-12-07 18:29:21.061211400,1.48821142578125,-0.0043819635175168,0.2229766994714737,-0.3940039277076721
2024-12-07 18:29:21.071184400,1.498184326171875,0.0232952032238245,0.0985857769846916,-0.2974278628826141
2024-12-07 18:29:21.081158400,1.508158447265625,-0.0028677745722234,-0.0324894115328788,-0.2425300031900406
2024-12-07 18:29:21.091132400,1.51813232421875,-0.039875328540802,-0.1609824150800705,-0.2302536368370056
2024-12-07 18:29:21.101106400,1.5281064453125,-0.0540518797934055,-0.2657874226570129,-0.2434553802013397
2024-12-07 18:29:21.111080400,1.53808056640625,-0.0318922474980354,-0.3646101355552673,-0.2641420066356659
2024-12-07 18:29:21.121054500,1.548054443359375,-0.0047055920585989,-0.4500407576560974,-0.2665271461009979
2024-12-07 18:29:21.131027500,1.55802734375,0.0109497997909784,-0.5149752497673035,-0.2367538064718246
2024-12-07 18:29:21.141001500,1.56800146484375,0.0157437399029731,-0.5490992069244385,-0.1858918219804763
2024-12-07 18:29:21.150975500,1.5779755859375,0.0191296823322772,-0.563180148601532,-0.1303364187479019
2024-12-07 18:29:21.160949500,1.587949462890625,0.0297805033624172,-0.5617635250091553,-0.0770002156496048
2024-12-07 18:29:21.170924000,1.597924072265625,0.0282563790678977,-0.5357356071472168,-0.0435748808085918
2024-12-07 18:29:21.180898000,1.60789794921875,0.0115749575197696,-0.4562117159366607,-0.0150143755599856
2024-12-07 18:29:21.190871000,1.61787109375,-0.0111876130104064,-0.3596207499504089,0.0015811123885214
2024-12-07 18:29:21.200845000,1.627844970703125,-0.0598482899367809,-0.3110269010066986,0.0075872172601521
2024-12-07 18:29:21.210819000,1.637819091796875,-0.1153890490531921,-0.3051357269287109,-0.0060098180547356
2024-12-07 18:29:21.220793000,1.64779296875,-0.131363958120346,-0.3166883289813995,-0.0075750681571662
2024-12-07 18:29:21.230767000,1.65776708984375,-0.1107953041791915,-0.3249976634979248,-0.008716233074665
2024-12-07 18:29:21.240741000,1.6677412109375,-0.0348267145454883,-0.310153067111969,-0.0066400878131389
2024-12-07 18:29:21.250713900,1.6777138671875,0.0454031452536582,-0.2882474958896637,-0.0286785457283258
2024-12-07 18:29:21.260688000,1.68768798828125,0.0885162204504013,-0.2976629436016083,-0.100696824491024
2024-12-07 18:29:21.270662000,1.697661865234375,0.1000250726938247,-0.377734363079071,-0.1991341859102249
2024-12-07 18:29:21.280636000,1.707635986328125,0.1072702333331108,-0.4803088009357452,-0.2849188446998596
2024-12-07 18:29:21.290610000,1.71760986328125,0.1245951578021049,-0.5227004885673523,-0.3367865681648254
2024-12-07 18:29:21.300584000,1.727583984375,0.1434724330902099,-0.5141845345497131,-0.3379129767417907
2024-12-07 18:29:21.310557000,1.737556884765625,0.1507420688867569,-0.4821184873580932,-0.305316150188446
2024-12-07 18:29:21.320531000,1.747531005859375,0.1429018080234527,-0.4428626894950866,-0.2510021030902862
2024-12-07 18:29:21.330505000,1.7575048828125,0.1230367645621299,-0.3802379071712494,-0.1943720877170562
2024-12-07 18:29:21.340479000,1.76747900390625,0.0899843126535415,-0.2770264446735382,-0.145395740866661
2024-12-07 18:29:21.350453000,1.777452880859375,0.0506028123199939,-0.1569966971874237,-0.1053937301039695
2024-12-07 18:29:21.360427000,1.787427001953125,0.0086293630301952,-0.0509075298905372,-0.0816482305526733
2024-12-07 18:29:21.370400000,1.79739990234375,-0.0196321029216051,0.026301234960556,-0.06468016654253
2024-12-07 18:29:21.380374000,1.8073740234375,-0.0327303744852542,0.0554166138172149,-0.0633061975240707
2024-12-07 18:29:21.390348000,1.81734814453125,-0.0341224074363708,0.023490373045206,-0.082459919154644
2024-12-07 18:29:21.400322000,1.827322021484375,-0.0311783347278833,-0.0556778088212013,-0.1177896782755851
2024-12-07 18:29:21.410296000,1.837296142578125,-0.0306912437081336,-0.1399210393428802,-0.1725053936243057
2024-12-07 18:29:21.420270000,1.84727001953125,-0.0738416165113449,-0.2185553759336471,-0.2458521276712417
2024-12-07 18:29:21.430243000,1.8572431640625,-0.0761588364839553,-0.3388961553573608,-0.3112990260124206
2024-12-07 18:29:21.440217000,1.867217041015625,-0.0044975150376558,-0.4602145552635193,-0.3269150853157043
2024-12-07 18:29:21.450191000,1.877191162109375,0.0399130918085575,-0.498007208108902,-0.3211227059364319
2024-12-07 18:29:21.460165000,1.8871650390625,0.044335551559925,-0.4753689765930176,-0.3125953376293182
2024-12-07 18:29:21.470139100,1.89713916015625,0.0340970270335674,-0.4374538362026214,-0.3037251532077789
2024-12-07 18:29:21.480113200,1.907113037109375,0.0224939864128828,-0.3927071392536163,-0.2998712658882141
2024-12-07 18:29:21.490086000,1.9170859375,0.0149575071409344,-0.3252074420452118,-0.2900354266166687
2024-12-07 18:29:21.500060000,1.927059814453125,0.0054434649646282,-0.2416544556617736,-0.2692998647689819
2024-12-07 18:29:21.510034000,1.937033935546875,-0.0159084275364875,-0.1507501155138015,-0.2424733191728592
2024-12-07 18:29:21.520008000,1.947008056640625,-0.0447492860257625,-0.0735402256250381,-0.2116670459508896
2024-12-07 18:29:21.529982000,1.95698193359375,-0.0823557823896408,-0.005740406922996,-0.1692908257246017
2024-12-07 18:29:21.539956000,1.9669560546875,-0.1204293370246887,0.061683565378189,-0.12678824365139
2024-12-07 18:29:21.549929000,1.976928955078125,-0.1546355038881302,0.1393181830644607,-0.0868168473243713
2024-12-07 18:29:21.559903000,1.986903076171875,-0.178877592086792,0.2272228449583053,-0.0513272657990455
2024-12-07 18:29:21.569877000,1.996876953125,-0.182855024933815,0.3084433972835541,-0.0321841984987258
2024-12-07 18:29:21.579851000,2.00685107421875,-0.1713783144950866,0.3643706440925598,-0.0299927815794944
2024-12-07 18:29:21.589825000,2.016824951171875,-0.1555247753858566,0.3867811262607574,-0.0412787273526191
2024-12-07 18:29:21.599799000,2.026799072265625,-0.149818480014801,0.3762843310832977,-0.067468337714672
2024-12-07 18:29:21.609772000,2.03677197265625,-0.156876653432846,0.3398222029209137,-0.1117279455065727
2024-12-07 18:29:21.619746000,2.04674609375,-0.1804582327604293,0.2838257849216461,-0.1654442548751831
2024-12-07 18:29:21.629720000,2.056719970703125,-0.2114337235689163,0.22491455078125,-0.2046470493078231
2024-12-07 18:29:21.639694000,2.066694091796875,-0.2542737424373626,0.195563405752182,-0.2488852590322494
2024-12-07 18:29:21.649668000,2.076668212890625,-0.2548117041587829,0.1234343573451042,-0.2267804890871048
2024-12-07 18:29:21.659641900,2.086641845703125,-0.2553537786006927,0.0816191509366035,-0.1808412671089172
2024-12-07 18:29:21.669615000,2.096614990234375,-0.2625901401042938,0.076521061360836,-0.1385257691144943
2024-12-07 18:29:21.679589000,2.106589111328125,-0.2698804140090942,0.0979694724082946,-0.0940482765436172
2024-12-07 18:29:21.689563100,2.116563232421875,-0.2581601142883301,0.1387419402599334,-0.0674302503466606
2024-12-07 18:29:21.699537000,2.126536865234375,-0.2556965053081512,0.2162977308034896,-0.0737424939870834
2024-12-07 18:29:21.709511000,2.136510986328125,-0.2415545731782913,0.263929158449173,-0.064298391342163
2024-12-07 18:29:21.719485000,2.14648486328125,-0.2298971712589264,0.3183363378047943,-0.0599278882145881
2024-12-07 18:29:21.729458000,2.1564580078125,-0.2197502553462982,0.3827912211418152,-0.0599321462213993
2024-12-07 18:29:21.739432000,2.166431884765625,-0.2033606022596359,0.4439537525177002,-0.0615970790386199
2024-12-07 18:29:21.749406000,2.176406005859375,-0.1815807372331619,0.4903596043586731,-0.0537684485316276
2024-12-07 18:29:21.759380000,2.1863798828125,-0.1646191924810409,0.5315002799034119,-0.04929144307971
2024-12-07 18:29:21.769354000,2.19635400390625,-0.1373790502548217,0.5571665167808533,-0.0506701618432998
2024-12-07 18:29:21.779327700,2.20632763671875,-0.099798709154129,0.5071971416473389,-0.0358690023422241
2024-12-07 18:29:21.789301000,2.216301025390625,-0.0529638268053531,0.4779556095600128,-0.0494308844208717
2024-12-07 18:29:21.799275000,2.22627490234375,0.0323792099952697,0.4049226939678192,0.0035175415687263
2024-12-07 18:29:21.809249000,2.2362490234375,0.1011233925819397,0.2661704123020172,0.1441494822502136
2024-12-07 18:29:21.819223000,2.24622314453125,0.1454593539237976,0.1158890798687934,0.2855680584907532
2024-12-07 18:29:21.829197000,2.256197021484375,0.2270777821540832,-0.0226435009390115,0.3937709629535675
2024-12-07 18:29:21.839170800,2.2661708984375,0.3209182918071747,-0.1152113899588584,0.4581680595874786
2024-12-07 18:29:21.849144000,2.27614404296875,0.387019008398056,-0.141316756606102,0.4889531135559082
2024-12-07 18:29:21.859118000,2.2861181640625,0.4307605624198913,-0.1532037705183029,0.5032249689102173
2024-12-07 18:29:21.869092000,2.296092041015625,0.4611499011516571,-0.1679156124591827,0.5234586000442505
2024-12-07 18:29:21.879066000,2.306066162109375,0.4867034554481506,-0.1845496743917465,0.5653032064437866
2024-12-07 18:29:21.889040000,2.316039794921875,0.4935714900493622,-0.1732155382633209,0.6337475180625916
2024-12-07 18:29:21.899014000,2.326013916015625,0.473467469215393,-0.0968139544129371,0.7136367559432983
2024-12-07 18:29:21.908987000,2.33598681640625,0.4367366135120392,0.0640977025032043,0.7944775223731995
2024-12-07 18:29:21.918961000,2.3459609375,0.4001843631267547,0.3134440779685974,0.8623459339141846
2024-12-07 18:29:21.928935000,2.355934814453125,0.3710983693599701,0.6258086562156677,0.9211661219596864
2024-12-07 18:29:21.938909000,2.365908935546875,0.3553664982318878,0.9815998673439026,0.9849717617034912
2024-12-07 18:29:21.948883000,2.375883056640625,0.3597175478935241,1.3593649864196775,1.0577729940414429
2024-12-07 18:29:21.958856700,2.385856689453125,0.3833720982074737,1.7145955562591553,1.1193673610687256
2024-12-07 18:29:21.968830700,2.395830810546875,0.4209109544754028,2.015399932861328,1.1660206317901611
2024-12-07 18:29:21.978804000,2.405803955078125,0.4651214480400085,2.211437940597534,1.2116445302963257
2024-12-07 18:29:21.988778000,2.415778076171875,0.4902675449848175,2.28519344329834,1.2636845111846924
2024-12-07 18:29:21.998752000,2.425751953125,0.5062688589096069,2.250465631484986,1.3159393072128296
2024-12-07 18:29:22.008725800,2.435725830078125,0.5367330312728882,2.0920722484588623,1.3652256727218628
2024-12-07 18:29:22.018699800,2.44569970703125,0.5828697085380554,1.8095240592956543,1.3851451873779297
2024-12-07 18:29:22.028673800,2.455673828125,0.6191419363021851,1.462603211402893,1.3567113876342771
2024-12-07 18:29:22.038647000,2.46564697265625,0.6263145804405212,1.1842342615127563,1.2762693166732788
2024-12-07 18:29:22.048621000,2.47562109375,0.5885347127914429,1.0217273235321045,1.138110637664795
2024-12-07 18:29:22.058594800,2.4855947265625,0.4896315932273865,0.9865022897720336,0.9780925512313844
2024-12-07 18:29:22.068568800,2.49556884765625,0.3610906600952148,1.0684661865234375,0.8415070176124573
2024-12-07 18:29:22.078542800,2.50554296875,0.2783178091049194,1.201696515083313,0.7738393545150757
2024-12-07 18:29:22.088516000,2.51551611328125,0.258920669555664,1.3776293992996216,0.7527700066566467
2024-12-07 18:29:22.098490000,2.525489990234375,0.2759325802326202,1.4821945428848269,0.7343735694885254
2024-12-07 18:29:22.108464000,2.535464111328125,0.2968783378601074,1.4434000253677368,0.6509711146354675
2024-12-07 18:29:22.118438000,2.54543798828125,0.3218876719474792,1.251718521118164,0.519968569278717
2024-12-07 18:29:22.128412000,2.555411865234375,0.3403263390064239,0.937130868434906,0.374237984418869
2024-12-07 18:29:22.138386000,2.565385986328125,0.3398397266864776,0.5759125351905823,0.245288997888565
2024-12-07 18:29:22.148360000,2.57535986328125,0.326969712972641,0.2125665247440338,0.1327720284461975
2024-12-07 18:29:22.158333000,2.5853330078125,0.3110671043395996,-0.0633371919393539,0.0412606820464134
2024-12-07 18:29:22.168306700,2.595306640625,0.2891626060009002,-0.2522176206111908,-0.0124275805428624
2024-12-07 18:29:22.178280700,2.60528076171875,0.2502241134643554,-0.3516163825988769,-0.0328111387789249
2024-12-07 18:29:22.188254700,2.615254638671875,0.2056116163730621,-0.3520819246768951,-0.0311575829982757
2024-12-07 18:29:22.198228500,2.625228515625,0.1685347259044647,-0.2763389945030212,-0.0215762164443731
2024-12-07 18:29:22.208202500,2.635202392578125,0.1403568834066391,-0.1671131700277328,-0.0284945759922266
2024-12-07 18:29:22.218175700,2.64517578125,0.1179753914475441,-0.0653224065899849,-0.0701703131198883
2024-12-07 18:29:22.228149800,2.655149658203125,0.0935084000229835,-0.0013902923092246,-0.1481783092021942
2024-12-07 18:29:22.238123800,2.665123779296875,0.0702638700604438,0.0012861425057053,-0.2665932774543762
2024-12-07 18:29:22.248097500,2.67509765625,0.035889383405447,-0.0602272860705852,-0.4107927978038788
2024-12-07 18:29:22.258071600,2.685071533203125,-0.0193827822804451,-0.1322874873876571,-0.5498814582824707
2024-12-07 18:29:22.268044500,2.69504443359375,-0.0715570300817489,-0.1952576637268066,-0.6533237099647522
2024-12-07 18:29:22.278018600,2.7050185546875,-0.1161665245890617,-0.2604535222053528,-0.7000527381896973
2024-12-07 18:29:22.287992600,2.71499267578125,-0.1586332768201828,-0.2729866206645965,-0.6857321262359619
2024-12-07 18:29:22.297966600,2.724966552734375,-0.1905276775360107,-0.2315372228622436,-0.6237924695014954
2024-12-07 18:29:22.307940600,2.734940673828125,-0.2168500870466232,-0.1238086447119712,-0.5576299428939819
2024-12-07 18:29:22.317914400,2.744914306640625,-0.2551999390125274,-0.0078215394169092,-0.5067274570465088
2024-12-07 18:29:22.327887600,2.7548876953125,-0.3065286576747894,0.0636577010154724,-0.4901519119739532
2024-12-07 18:29:22.337861600,2.764861572265625,-0.3717342317104339,0.0476296283304691,-0.4756284356117248
2024-12-07 18:29:22.347835600,2.774835693359375,-0.4229364097118377,-0.0456364043056964,-0.4588081836700439
2024-12-07 18:29:22.357809700,2.7848095703125,-0.452950656414032,-0.1236282587051391,-0.4448210000991821
2024-12-07 18:29:22.367783400,2.794783447265625,-0.4641247689723968,-0.1792947202920913,-0.4409061670303345
2024-12-07 18:29:22.377757400,2.80475732421875,-0.435698926448822,-0.2499416470527649,-0.4300768077373504
2024-12-07 18:29:22.387730700,2.814730712890625,-0.3326860070228576,-0.3349311053752899,-0.3802615702152252
2024-12-07 18:29:22.397704700,2.82470458984375,-0.2748294770717621,-0.4521086812019348,-0.3511954247951507
2024-12-07 18:29:22.407678700,2.8346787109375,-0.1432040780782699,-0.4379976689815521,-0.2326208353042602
2024-12-07 18:29:22.417652500,2.844652587890625,0.030116556212306,-0.2762439548969269,-0.0499870404601097
2024-12-07 18:29:22.427626500,2.85462646484375,0.1681641787290573,-0.0152413826435804,0.09694354981184
2024-12-07 18:29:22.437600500,2.8646005859375,0.2546207010746002,0.2412974387407302,0.1353524923324585
2024-12-07 18:29:22.447573800,2.87457373046875,0.3014244139194488,0.3661775887012481,0.0573639497160911
2024-12-07 18:29:22.457547500,2.884547607421875,0.3176613748073578,0.2990527749061584,-0.0756314545869827
2024-12-07 18:29:22.467521500,2.894521484375,0.3101683259010315,0.1619769483804702,-0.20647893846035
2024-12-07 18:29:22.477495600,2.90449560546875,0.2941059172153473,0.0725682228803634,-0.286569207906723
2024-12-07 18:29:22.487469300,2.91446923828125,0.2683374285697937,0.0531527176499366,-0.2988109588623047
2024-12-07 18:29:22.497443300,2.924443359375,0.2291940152645111,0.0346567966043949,-0.2557494938373565
2024-12-07 18:29:22.507416600,2.93441650390625,0.1750160008668899,-0.0545865297317504,-0.1722913682460785
2024-12-07 18:29:22.517390600,2.944390625,0.0923335030674934,-0.2380858957767486,-0.0924029573798179
2024-12-07 18:29:22.527364600,2.954364501953125,-0.0066047897562384,-0.4795059859752655,-0.0522973537445068
2024-12-07 18:29:22.537338400,2.96433837890625,-0.0989450812339782,-0.7155093550682068,-0.0607690587639808
2024-12-07 18:29:22.547312400,2.9743125,-0.1790351122617721,-0.907303273677826,-0.110175222158432
2024-12-07 18:29:22.557286400,2.984286376953125,-0.2353958785533905,-1.031826376914978,-0.1716501861810684
2024-12-07 18:29:22.567259600,2.994259765625,-0.2713592052459717,-1.080973982810974,-0.2280516624450683
2024-12-07 18:29:22.577233700,3.004233642578125,-0.2897013127803802,-1.0802429914474487,-0.2457215785980224
2024-12-07 18:29:22.587207700,3.014207763671875,-0.2976186275482178,-1.0331714153289795,-0.2115236669778823
2024-12-07 18:29:22.597181400,3.024181396484375,-0.2739459574222564,-0.911974310874939,-0.1580173224210739
2024-12-07 18:29:22.607155500,3.034155517578125,-0.2369418740272522,-0.7608388662338257,-0.142658069729805
2024-12-07 18:29:22.617129500,3.04412939453125,-0.1871452182531356,-0.6361955404281616,-0.1880651414394378
2024-12-07 18:29:22.627102700,3.054102783203125,-0.1330201923847198,-0.5224047899246216,-0.2788206040859222
2024-12-07 18:29:22.637076700,3.06407666015625,-0.1000129953026771,-0.3981832861900329,-0.3839639723300934
2024-12-07 18:29:22.647050500,3.074050537109375,0.0027149845845997,-0.2973056733608246,-0.4529393017292022
2024-12-07 18:29:22.657024500,3.0840244140625,0.044135995209217,-0.2222586870193481,-0.4818216562271118
2024-12-07 18:29:22.666998500,3.09399853515625,-0.0026328414678573,-0.23282290995121,-0.4704113602638244
2024-12-07 18:29:22.676972500,3.10397265625,-0.0962326452136039,-0.3401488065719604,-0.4204345643520355
2024-12-07 18:29:22.686945500,3.113945556640625,-0.1992383897304535,-0.4865126609802246,-0.3506496250629425
2024-12-07 18:29:22.696919600,3.12391943359375,-0.3082564175128937,-0.5520676374435425,-0.2661523520946502
2024-12-07 18:29:22.706893600,3.1338935546875,-0.4177370965480804,-0.4542180597782135,-0.1631825566291809
2024-12-07 18:29:22.716867300,3.143867431640625,-0.5156803131103516,-0.212271973490715,-0.0549115799367427
2024-12-07 18:29:22.726841300,3.15384130859375,-0.5746113061904907,0.0864244401454925,0.0590536035597324
2024-12-07 18:29:22.736815400,3.1638154296875,-0.5790635347366333,0.3690569698810577,0.1491037905216217
2024-12-07 18:29:22.746788600,3.17378857421875,-0.5224950313568115,0.566033661365509,0.1779540926218032
2024-12-07 18:29:22.756762600,3.1837626953125,-0.4479208886623382,0.6115042567253113,0.1403217911720276
2024-12-07 18:29:22.766736400,3.193736328125,-0.3945391476154327,0.5016775727272034,0.0569475293159484
2024-12-07 18:29:22.776710400,3.20371044921875,-0.359178364276886,0.2287281602621078,-0.0371152274310588
2024-12-07 18:29:22.786684400,3.213684326171875,-0.3270984590053558,-0.172199547290802,-0.1177392303943634
2024-12-07 18:29:22.796658400,3.223658447265625,-0.2840441763401031,-0.6220954656600952,-0.1700250655412674
2024-12-07 18:29:22.806631700,3.233631591796875,-0.2348068505525589,-0.9994747042655944,-0.2200173884630203
2024-12-07 18:29:22.816605400,3.24360546875,-0.1854615360498428,-1.19185471534729,-0.2845617532730102
2024-12-07 18:29:22.826579500,3.253579345703125,-0.1276083588600158,-1.1834276914596558,-0.3400364518165588
2024-12-07 18:29:22.836553500,3.263553466796875,-0.0494811236858367,-1.04336416721344,-0.3919200897216797
2024-12-07 18:29:22.846527500,3.273527587890625,0.0560596846044063,-0.8924921154975891,-0.4304049015045166
2024-12-07 18:29:22.856501500,3.28350146484375,0.150829866528511,-0.7661741375923157,-0.4474970698356628
2024-12-07 18:29:22.866474800,3.293474853515625,0.2059980481863021,-0.7015426754951477,-0.4498805999755859
2024-12-07 18:29:22.876448500,3.303448486328125,0.2129070460796356,-0.7093597054481506,-0.4376585483551025
2024-12-07 18:29:22.886422500,3.313422607421875,0.1947701275348663,-0.7352064847946167,-0.4195016622543335
2024-12-07 18:29:22.896396500,3.323396484375,0.1632679402828216,-0.7148362994194031,-0.3973003923892975
2024-12-07 18:29:22.906370600,3.33337060546875,0.1209772080183029,-0.6188357472419739,-0.3591367602348327
2024-12-07 18:29:22.916344600,3.343344482421875,0.086118683218956,-0.4348212778568268,-0.3066836595535278
2024-12-07 18:29:22.926317600,3.353317626953125,0.0622447729110717,-0.2259817868471145,-0.2496611177921295
2024-12-07 18:29:22.936291600,3.36329150390625,0.0457267351448535,-0.024161446839571,-0.1882305145263672
2024-12-07 18:29:22.946265300,3.373265380859375,0.0260968413203954,0.1363272964954376,-0.1692906469106674
2024-12-07 18:29:22.956239400,3.3832392578125,0.0183098688721656,0.201844573020935,-0.1616554707288742
2024-12-07 18:29:22.966213400,3.39321337890625,0.0066521475091576,0.2203847020864486,-0.1517663449048996
2024-12-07 18:29:22.976187400,3.4031875,-0.0053766369819641,0.2243272513151168,-0.1295034140348434
2024-12-07 18:29:22.986160600,3.41316064453125,-0.0202304162085056,0.2287712693214416,-0.1155678927898407
2024-12-07 18:29:22.996134400,3.423134521484375,-0.0053815748542547,0.1480703949928283,-0.095122717320919
2024-12-07 18:29:23.006108400,3.4331083984375,0.0179980490356683,0.0817989483475685,-0.1109757125377655
2024-12-07 18:29:23.016082400,3.44308251953125,0.0200788229703903,0.026540920138359,-0.1525351852178573
2024-12-07 18:29:23.026056400,3.453056396484375,0.0049978764727711,-0.0280770510435104,-0.1978097259998321
2024-12-07 18:29:23.036030500,3.463030517578125,-0.0088424198329448,-0.0919698327779769,-0.2325443625450134
2024-12-07 18:29:23.046003500,3.47300341796875,-0.007572092115879,-0.1492791920900344,-0.2505691647529602
2024-12-07 18:29:23.055977500,3.4829775390625,-0.0160196013748645,-0.1684932708740234,-0.2739780247211456
2024-12-07 18:29:23.065951500,3.492951416015625,-0.0425516106188297,-0.2168381661176681,-0.2465187162160873
2024-12-07 18:29:23.075925500,3.502925537109375,-0.0703196823596954,-0.2481417506933212,-0.2182314246892929
2024-12-07 18:29:23.085899500,3.5128994140625,-0.083230160176754,-0.2549144327640533,-0.2095282077789306
2024-12-07 18:29:23.095873500,3.52287353515625,-0.0953913554549217,-0.251787781715393,-0.2119345963001251
2024-12-07 18:29:23.105846500,3.532846435546875,-0.1048272028565406,-0.2332425713539123,-0.2260746508836746
2024-12-07 18:29:23.115820500,3.542820556640625,-0.1012413203716278,-0.2080271691083908,-0.257999986410141
2024-12-07 18:29:23.125794600,3.552794677734375,-0.0955938175320625,-0.1815095394849777,-0.3077931106090545
2024-12-07 18:29:23.135768600,3.5627685546875,-0.1102463454008102,-0.1703210622072219,-0.3374437093734741
2024-12-07 18:29:23.145742600,3.57274267578125,-0.119545042514801,-0.1364549696445465,-0.3673835098743438
2024-12-07 18:29:23.155716600,3.582716552734375,-0.1347527056932449,-0.128218412399292,-0.3707391917705536
2024-12-07 18:29:23.165689300,3.592689453125,-0.1535679250955581,-0.0979172363877296,-0.3565644919872284
2024-12-07 18:29:23.175663400,3.602663330078125,-0.1567853540182113,-0.0377318859100341,-0.3494097590446472
2024-12-07 18:29:23.185637000,3.61263720703125,-0.1818483620882034,0.0206443406641483,-0.3295452296733856
2024-12-07 18:29:23.195611100,3.622611083984375,-0.2192358672618866,0.0628512352705001,-0.2943503260612488
2024-12-07 18:29:23.205585200,3.632585205078125,-0.2405837625265121,0.1041371524333953,-0.2730517089366913
2024-12-07 18:29:23.215559200,3.64255908203125,-0.2578004002571106,0.1505370885133743,-0.2674165964126587
2024-12-07 18:29:23.225532200,3.6525322265625,-0.2723564505577087,0.19008369743824,-0.2709884345531463
2024-12-07 18:29:23.235506200,3.662506103515625,-0.284351497888565,0.2234786450862884,-0.2785330712795257
2024-12-07 18:29:23.245480000,3.67247998046875,-0.3054048418998718,0.2748214602470398,-0.30159792304039
2024-12-07 18:29:23.255454000,3.682453857421875,-0.2703843414783478,0.2643314003944397,-0.3135161399841308
2024-12-07 18:29:23.265428000,3.692427978515625,-0.2481525242328643,0.2569248974323272,-0.3266409933567047
2024-12-07 18:29:23.275402000,3.702402099609375,-0.2480404824018478,0.2444075644016266,-0.3330090343952179
2024-12-07 18:29:23.285375200,3.712375244140625,-0.2607211172580719,0.242004856467247,-0.3348141014575958
2024-12-07 18:29:23.295349200,3.722349365234375,-0.2529302835464477,0.2406363189220428,-0.3571472465991974
2024-12-07 18:29:23.305323000,3.732322998046875,-0.2497137188911438,0.1797671169042587,-0.3172208666801452
2024-12-07 18:29:23.315297000,3.742297119140625,-0.2524158060550689,0.1718072444200515,-0.2824704349040985
2024-12-07 18:29:23.325271000,3.75227099609375,-0.245321974158287,0.2008538097143173,-0.2458796501159668
2024-12-07 18:29:23.335245000,3.7622451171875,-0.2410036921501159,0.253488153219223,-0.1840645670890808
2024-12-07 18:29:23.345218300,3.77221826171875,-0.2396313697099685,0.3195289671421051,-0.1433147341012954
2024-12-07 18:29:23.355192000,3.782192138671875,-0.2351433783769607,0.3429933488368988,-0.0865663662552833
2024-12-07 18:29:23.365166000,3.792166015625,-0.2258297801017761,0.3917592763900757,-0.0436790846288204
2024-12-07 18:29:23.375140000,3.80214013671875,-0.2081897258758545,0.4492033421993255,-0.0323434546589851
2024-12-07 18:29:23.385114000,3.812114013671875,-0.1877688765525818,0.4870750904083252,-0.044650986790657
2024-12-07 18:29:23.395088100,3.822088134765625,-0.1612398326396942,0.4955528974533081,-0.0795648396015167
2024-12-07 18:29:23.405061000,3.83206103515625,-0.1375158578157425,0.4984610676765442,-0.1129888370633125
2024-12-07 18:29:23.415035100,3.84203515625,-0.0815746784210205,0.4409518539905548,-0.1198660284280777
2024-12-07 18:29:23.425009200,3.852009033203125,-0.0410850420594215,0.3869719803333282,-0.0956349894404411
2024-12-07 18:29:23.434983200,3.861983154296875,-0.0042190286330878,0.3868041336536407,-0.0738562792539596
2024-12-07 18:29:23.444957200,3.871957275390625,-0.0180213935673236,0.4113067984580993,-0.0621769838035106
2024-12-07 18:29:23.454931200,3.88193115234375,0.0274863857775926,0.3915376961231231,-0.014616023749113
2024-12-07 18:29:23.464904200,3.891904296875,0.1100686118006706,0.3438167572021484,0.0425753593444824
2024-12-07 18:29:23.474878000,3.9018779296875,0.1485450565814972,0.3437786996364593,0.0698141753673553
2024-12-07 18:29:23.486722300,3.913722412109375,0.16035857796669,0.2735396921634674,0.1269560158252716
2024-12-07 18:29:23.496696300,3.9236962890625,0.1676774770021438,0.1296360343694687,0.2371406406164169
2024-12-07 18:29:23.506670300,3.93367041015625,0.203441321849823,-0.008737027645111,0.3417243063449859
2024-12-07 18:29:23.516644400,3.943644287109375,0.2457402944564819,-0.0408875346183776,0.3720708191394806
2024-12-07 18:29:23.526617000,3.9536171875,0.2897706031799316,-0.1140959709882736,0.3900748789310455
2024-12-07 18:29:23.536591000,3.963591064453125,0.3458231389522552,-0.2081687003374099,0.3965543806552887
2024-12-07 18:29:23.546565000,3.973565185546875,0.3581112325191498,-0.3255552351474762,0.4126808643341064
2024-12-07 18:29:23.556539100,3.9835390625,0.3062911033630371,-0.4067027866840362,0.4789487421512604
2024-12-07 18:29:23.566513200,3.99351318359375,0.2484419196844101,-0.4208929240703583,0.5969080924987793
2024-12-07 18:29:23.576487200,4.003487060546875,0.2294476181268692,-0.3522406220436096,0.7478340864181519
2024-12-07 18:29:23.586460200,4.013460205078125,0.2301384359598159,-0.2053241580724716,0.9191890358924866
2024-12-07 18:29:23.596434200,4.02343408203125,0.230463296175003,0.0097808064892888,1.1019492149353027
2024-12-07 18:29:23.606408200,4.033408203125,0.2424877434968948,0.3274399936199188,1.2685976028442385
2024-12-07 18:29:23.616382200,4.04338232421875,0.285525918006897,0.7842823266983032,1.402202606201172
2024-12-07 18:29:23.626356200,4.053356201171875,0.374586284160614,1.3224272727966309,1.5018000602722168
2024-12-07 18:29:23.636330200,4.063330322265625,0.5163279175758362,1.7812168598175049,1.5666438341140747
2024-12-07 18:29:23.646303200,4.07330322265625,0.6902675032615662,2.1078219413757324,1.6440465450286863
2024-12-07 18:29:23.656277200,4.08327734375,0.8011729121208191,2.176467180252075,1.756503701210022
2024-12-07 18:29:23.666251300,4.093251220703125,0.7799238562583923,1.9593968391418457,1.906538963317871
2024-12-07 18:29:23.676225300,4.103225341796875,0.6619480848312378,1.5540672540664673,1.991393566131592
2024-12-07 18:29:23.686199300,4.11319921875,0.5470971465110779,1.0192527770996094,1.9322454929351809
2024-12-07 18:29:23.696173300,4.12317333984375,0.437676727771759,0.5822545886039734,1.731267333030701
2024-12-07 18:29:23.706146300,4.133146240234375,0.3988917768001556,0.4495903253555298,1.4663416147232056
2024-12-07 18:29:23.716120300,4.143120361328125,0.4228635132312774,0.4980384409427643,1.2511298656463623
2024-12-07 18:29:23.726094300,4.15309423828125,0.4171715378761291,0.6232709288597107,1.1012271642684937
2024-12-07 18:29:23.736068400,4.163068359375,0.3893310725688934,0.8703991174697876,0.9835799932479858
2024-12-07 18:29:23.746042400,4.17304248046875,0.3787828385829925,1.1277997493743896,0.8750175833702087
2024-12-07 18:29:23.756016000,4.18301611328125,0.4011308252811432,1.2790052890777588,0.7824485898017883
2024-12-07 18:29:23.765989000,4.192989013671875,0.4585408568382263,1.2528674602508545,0.7070432901382446
2024-12-07 18:29:23.775963100,4.202963134765625,0.4853518307209015,1.121781349182129,0.6560366153717041
2024-12-07 18:29:23.785937200,4.212937255859375,0.4716277420520782,1.0023889541625977,0.6485722661018372
2024-12-07 18:29:23.795911200,4.2229111328125,0.4426250457763672,0.9940117597579956,0.6297016143798828
2024-12-07 18:29:23.806508000,4.233508056640625,0.4392252564430237,1.0477663278579712,0.5685754418373108
2024-12-07 18:29:23.816482000,4.24348193359375,0.4263571798801422,0.9434933662414552,0.4933119416236877
2024-12-07 18:29:23.826456000,4.2534560546875,0.3880547881126404,0.7440100908279419,0.4117861986160278
2024-12-07 18:29:23.836430000,4.26343017578125,0.3231898546218872,0.4339439570903778,0.2963504791259765
2024-12-07 18:29:23.846404000,4.273404052734375,0.2520075440406799,0.0522141754627227,0.1402200013399124
2024-12-07 18:29:23.856378000,4.283378173828125,0.2171037644147873,-0.2670426964759826,-0.0332105234265327
2024-12-07 18:29:23.866351000,4.29335107421875,0.2339890152215957,-0.451717734336853,-0.1757314652204513
2024-12-07 18:29:23.876325000,4.3033251953125,0.2837629318237304,-0.5423925518989563,-0.2699595391750335
2024-12-07 18:29:23.886299100,4.313299072265625,0.3519233465194702,-0.558845043182373,-0.3385729491710663
2024-12-07 18:29:23.896273200,4.323273193359375,0.4168925583362579,-0.5415207147598267,-0.3928931057453155
2024-12-07 18:29:23.906247200,4.3332470703125,0.4350976645946502,-0.4797974228858948,-0.4201119244098663
2024-12-07 18:29:23.916221200,4.34322119140625,0.3906389772891998,-0.4064451158046722,-0.4255196154117584
2024-12-07 18:29:23.926194200,4.353194091796875,0.2889935672283172,-0.3576048910617828,-0.4416394531726837
2024-12-07 18:29:23.936168200,4.363168212890625,0.1674147993326187,-0.3498621582984924,-0.4786248803138733
2024-12-07 18:29:23.946142200,4.37314208984375,0.0496000088751316,-0.3827274143695831,-0.533428430557251
2024-12-07 18:29:23.956116200,4.3831162109375,-0.0448212958872318,-0.4201157987117767,-0.5792350769042969
2024-12-07 18:29:23.966090200,4.39309033203125,-0.122260957956314,-0.4331154823303222,-0.6052669882774353
2024-12-07 18:29:23.976064300,4.403064208984375,-0.2270525246858596,-0.4042590260505676,-0.6262852549552917
2024-12-07 18:29:23.986037200,4.413037353515625,-0.3654074668884277,-0.3734172284603119,-0.6217206120491028
2024-12-07 18:29:23.996011300,4.42301123046875,-0.4739690124988556,-0.3054233193397522,-0.6152418851852417
2024-12-07 18:29:24.005985300,4.4329853515625,-0.5433984398841858,-0.1612605303525924,-0.6211192011833191
2024-12-07 18:29:24.015959300,4.442959228515625,-0.5890387296676636,0.0001686564646661,-0.5928001403808594
2024-12-07 18:29:24.025933300,4.452933349609375,-0.6185995936393738,0.0824829712510109,-0.4705807268619537
2024-12-07 18:29:24.035907300,4.4629072265625,-0.634919285774231,0.1104507371783256,-0.3119658827781677
2024-12-07 18:29:24.045880000,4.472880126953125,-0.658073365688324,0.1292697042226791,-0.1700625419616699
2024-12-07 18:29:24.055854000,4.48285400390625,-0.6904044151306152,0.1123108640313148,-0.0774581134319305
2024-12-07 18:29:24.065828000,4.492828125,-0.6875210404396057,0.085967406630516,-0.0366172045469284
2024-12-07 18:29:24.075802000,4.502802001953125,-0.6208652853965759,0.1395445019006729,-0.0484715215861797
2024-12-07 18:29:24.085776100,4.512776123046875,-0.4762519001960754,0.1951086968183517,-0.0802369117736816
2024-12-07 18:29:24.095750100,4.522750244140625,-0.2726220190525055,0.1204724758863449,-0.0915218964219093
2024-12-07 18:29:24.105723100,4.53272314453125,-0.0492342039942741,-0.1285554617643356,-0.0729333013296127
2024-12-07 18:29:24.115697200,4.542697265625,0.1427604407072067,-0.3641115128993988,-0.0621315464377403
2024-12-07 18:29:24.125671200,4.552671142578125,0.2523468732833862,-0.4257578253746032,-0.0783043876290321
2024-12-07 18:29:24.135645200,4.562645263671875,0.2992563545703888,-0.3850979208946228,-0.1207769438624382
2024-12-07 18:29:24.145619200,4.572619140625,0.3181182146072387,-0.3377026915550232,-0.1899320483207702
2024-12-07 18:29:24.155593200,4.58259326171875,0.3203911483287811,-0.2995802760124206,-0.260835200548172
2024-12-07 18:29:24.165566200,4.592566162109375,0.2970983386039734,-0.2311247587203979,-0.3175000846385956
2024-12-07 18:29:24.175540000,4.6025400390625,0.2566925585269928,-0.0553059242665767,-0.3401771485805511
2024-12-07 18:29:24.185514000,4.612513916015625,0.2225231379270553,0.2254772633314132,-0.3287721574306488
2024-12-07 18:29:24.195488000,4.622488037109375,0.1710225790739059,0.5114419460296631,-0.296704351902008
2024-12-07 18:29:24.205462000,4.6324619140625,0.073415070772171,0.6209122538566589,-0.2816667854785919
2024-12-07 18:29:24.215436000,4.64243603515625,-0.067481555044651,0.3936457335948944,-0.3020120859146118
2024-12-07 18:29:24.225409000,4.652408935546875,-0.2286949306726455,-0.2838203608989715,-0.3303659558296203
2024-12-07 18:29:24.235383000,4.662383056640625,-0.3763130605220794,-1.2220442295074463,-0.3390762209892273
2024-12-07 18:29:24.245357000,4.672357177734375,-0.4595589339733124,-1.999130129814148,-0.3297207951545715
2024-12-07 18:29:24.255331000,4.6823310546875,-0.5318649411201477,-2.365812301635742,-0.3413072228431701
2024-12-07 18:29:24.265305000,4.69230517578125,-0.6107711791992188,-2.260148048400879,-0.4018677771091461
2024-12-07 18:29:24.275279000,4.702279052734375,-0.6532862782478333,-1.7056634426116943,-0.5266639590263367
2024-12-07 18:29:24.285252000,4.712252197265625,-0.5252265930175781,-0.8756908178329468,-0.6179670095443726
2024-12-07 18:29:24.295226000,4.72222607421875,-0.2224720865488052,-0.0263187289237976,-0.5762035846710205
2024-12-07 18:29:24.305200000,4.7322001953125,0.083548828959465,0.537609875202179,-0.3768971562385559
2024-12-07 18:29:24.315174100,4.742174072265625,0.2125859558582306,0.7020916938781738,-0.1525905877351761
2024-12-07 18:29:24.325148200,4.752148193359375,0.1258704960346222,0.5731307864189148,-0.0440803468227386
2024-12-07 18:29:24.335122200,4.7621220703125,-0.0712575912475586,0.3273858726024627,-0.076978214085102
2024-12-07 18:29:24.345095200,4.77209521484375,-0.2745183110237121,0.1011351719498634,-0.1827262043952942
2024-12-07 18:29:24.355069200,4.782069091796875,-0.4062649011611938,-0.0933413654565811,-0.2871303856372833
2024-12-07 18:29:24.365043000,4.79204296875,-0.4989295899868011,-0.2695768475532532,-0.3486590087413788
2024-12-07 18:29:24.375017000,4.802016845703125,-0.59760582447052,-0.3307289183139801,-0.3531785011291504
2024-12-07 18:29:24.384991000,4.811990966796875,-0.7042814493179321,-0.2315749377012252,-0.3179214298725128
2024-12-07 18:29:24.394965000,4.821965087890625,-0.7603827714920044,-0.0698222219944,-0.2550155222415924
2024-12-07 18:29:24.404938000,4.83193798828125,-0.7503575682640076,0.0879032239317894,-0.1886615306138992
2024-12-07 18:29:24.414912000,4.841912109375,-0.6625004410743713,0.2342230677604675,-0.170871153473854
2024-12-07 18:29:24.424886000,4.851885986328125,-0.536323070526123,0.363525390625,-0.2291784137487411
2024-12-07 18:29:24.434860000,4.861860107421875,-0.3948283493518829,0.4298515617847442,-0.3193860948085785
2024-12-07 18:29:24.444834000,4.871833984375,-0.2918159663677215,0.4166950285434723,-0.3923274278640747
2024-12-07 18:29:24.454808000,4.88180810546875,-0.2277859449386596,0.2920761108398437,-0.4082808494567871
2024-12-07 18:29:24.464782000,4.891781982421875,-0.1795659512281417,0.0707109868526458,-0.3503243327140808
2024-12-07 18:29:24.474755000,4.901755126953125,-0.1405887007713318,-0.2142977714538574,-0.2667888104915619
2024-12-07 18:29:24.484729000,4.91172900390625,-0.1122481301426887,-0.5045700669288635,-0.1900628954172134
2024-12-07 18:29:24.494703000,4.921703125,-0.088555634021759,-0.6830933690071106,-0.1460051536560058
2024-12-07 18:29:24.504677000,4.931677001953125,-0.0675965547561645,-0.7328020930290222,-0.1428567618131637
2024-12-07 18:29:24.514651100,4.941651123046875,-0.0468937084078788,-0.7053822875022888,-0.1599130481481552
2024-12-07 18:29:24.524625200,4.951625244140625,-0.022879984229803,-0.6506364345550537,-0.1908043920993805
2024-12-07 18:29:24.534598100,4.96159814453125,0.00658785039559,-0.5651192665100098,-0.2270963639020919
2024-12-07 18:29:24.544572200,4.971572265625,0.0329049415886402,-0.4626344442367553,-0.2417123317718505
2024-12-07 18:29:24.554546200,4.981546142578125,0.0503350794315338,-0.3747088015079498,-0.2209000438451767
2024-12-07 18:29:24.564520200,4.991520263671875,0.0704701691865921,-0.3042327761650085,-0.1854539066553115
2024-12-07 18:29:24.574494200,5.001494140625,0.0835058316588401,-0.2458780705928802,-0.1491245329380035
2024-12-07 18:29:24.584468200,5.01146826171875,0.0827401727437973,-0.2281001359224319,-0.1495152115821838
2024-12-07 18:29:24.594441000,5.02144091796875,0.0796224549412727,-0.1945905089378357,-0.180959403514862
2024-12-07 18:29:24.604415000,5.0314150390625,0.0842915102839469,-0.1587928384542465,-0.2177642881870269
2024-12-07 18:29:24.614389000,5.041388916015625,0.0909332260489463,-0.1537486165761947,-0.2579944133758545
2024-12-07 18:29:24.624363000,5.051363037109375,0.081301636993885,-0.1828657686710357,-0.2934706509113312
2024-12-07 18:29:24.634337000,5.0613369140625,0.0523787997663021,-0.246279701590538,-0.3210419118404388
2024-12-07 18:29:24.644311000,5.07131103515625,0.0113773047924041,-0.3258557617664337,-0.338294118642807
2024-12-07 18:29:24.654284000,5.081283935546875,-0.0303841419517993,-0.3741869628429413,-0.3578805327415466
2024-12-07 18:29:24.664258000,5.091258056640625,-0.0424357429146766,-0.4177491068840027,-0.393757551908493
2024-12-07 18:29:24.674232000,5.101232177734375,-0.0426978841423988,-0.4919666051864624,-0.4514389634132385
2024-12-07 18:29:24.684206000,5.1112060546875,-0.0549742579460144,-0.5190269351005554,-0.5066612362861633
2024-12-07 18:29:24.694180000,5.12118017578125,-0.0794369205832481,-0.5118008255958557,-0.5533012747764587
2024-12-07 18:29:24.704154000,5.131154052734375,-0.0930049270391464,-0.4582851529121399,-0.5857548713684082
2024-12-07 18:29:24.714127000,5.141127197265625,-0.1157067045569419,-0.3687396049499511,-0.6041414737701416
2024-12-07 18:29:24.724101000,5.15110107421875,-0.1369294375181198,-0.2920301854610443,-0.5873534083366394
2024-12-07 18:29:24.734075100,5.1610751953125,-0.1651307046413421,-0.2124979943037033,-0.5365582704544067
2024-12-07 18:29:24.744049200,5.171049072265625,-0.1841616481542587,-0.1117476820945739,-0.4891316592693329
2024-12-07 18:29:24.754023200,5.181023193359375,-0.1971219629049301,-0.0661752596497535,-0.4270531237125397
2024-12-07 18:29:24.763997200,5.1909970703125,-0.2149302512407302,-0.010776188224554,-0.3753688633441925
2024-12-07 18:29:24.773970200,5.20097021484375,-0.2342155873775482,0.0343160592019557,-0.3367336094379425
2024-12-07 18:29:24.783944200,5.210944091796875,-0.2471835762262344,0.0786976367235183,-0.2946157157421112
2024-12-07 18:29:24.793918200,5.220918212890625,-0.2698462009429931,0.1503139585256576,-0.2567387521266937
2024-12-07 18:29:24.803892200,5.230892333984375,-0.2681977152824402,0.1881566792726516,-0.2045392096042633
2024-12-07 18:29:24.813866200,5.2408662109375,-0.2716771960258484,0.2116791605949401,-0.1578241139650344
2024-12-07 18:29:24.823840300,5.25084033203125,-0.298566073179245,0.2235837429761886,-0.1242011711001396
2024-12-07 18:29:24.833813000,5.26081298828125,-0.3212898969650268,0.2071499675512313,-0.1026688292622566
2024-12-07 18:29:24.843787000,5.270787109375,-0.3266090452671051,0.1864137947559356,-0.1181314066052436
2024-12-07 18:29:24.853761000,5.280760986328125,-0.3290361166000366,0.1601564884185791,-0.1507652103900909
2024-12-07 18:29:24.863735000,5.290735107421875,-0.3391012549400329,0.1167770475149154,-0.1720672994852066
2024-12-07 18:29:24.873709000,5.300708984375,-0.3532104790210724,0.0605279989540576,-0.1685047447681427
2024-12-07 18:29:24.883683000,5.31068310546875,-0.3319182395935058,-0.0258750673383474,-0.1257120072841644
2024-12-07 18:29:24.893656000,5.320656005859375,-0.2738236784934997,-0.104388989508152,-0.0871234387159347
2024-12-07 18:29:24.903630000,5.330630126953125,-0.2306077629327774,-0.1630099564790725,-0.0990778356790542
2024-12-07 18:29:24.913604000,5.34060400390625,-0.2065949440002441,-0.2130438685417175,-0.1647851765155792
2024-12-07 18:29:24.923578000,5.350578125,-0.1851168125867843,-0.2096821516752243,-0.246184155344963
2024-12-07 18:29:24.933552000,5.36055224609375,-0.1666197627782821,-0.1469530612230301,-0.3064374923706054
2024-12-07 18:29:24.943526100,5.370526123046875,-0.1782884001731872,-0.0472227409482002,-0.3287595510482788
2024-12-07 18:29:24.953500200,5.380500244140625,-0.1599032431840896,0.0785682722926139,-0.3344279825687408
2024-12-07 18:29:24.963473200,5.39047314453125,-0.1204072311520576,0.1999455690383911,-0.3304694592952728
2024-12-07 18:29:24.973447200,5.400447265625,-0.0969994738698005,0.2980856895446777,-0.3296936154365539
2024-12-07 18:29:24.983421200,5.410421142578125,-0.0974817723035812,0.3358905911445617,-0.2836110889911651
2024-12-07 18:29:24.993395200,5.420395263671875,-0.1017154902219772,0.3875242173671722,-0.2180530875921249
2024-12-07 18:29:25.003369200,5.430369140625,-0.110758788883686,0.4333984851837158,-0.1258688271045684
2024-12-07 18:29:25.013343000,5.440343017578125,-0.1096991151571273,0.4888103306293487,-0.0340379662811756
2024-12-07 18:29:25.023316200,5.450316162109375,-0.0754474028944969,0.5569909811019897,0.0304483454674482
2024-12-07 18:29:25.033290200,5.460290283203125,-0.0340657085180282,0.589773952960968,0.0691633000969886
2024-12-07 18:29:25.043264300,5.47026416015625,-0.0086682066321372,0.5661134123802185,0.1131824180483818
2024-12-07 18:29:25.053238300,5.48023828125,0.0062513789162039,0.4876135587692261,0.1467173397541046
2024-12-07 18:29:25.063212000,5.4902119140625,0.0604672133922576,0.2783133387565613,0.2151445895433426
2024-12-07 18:29:25.073186000,5.50018603515625,0.1342019140720367,0.0500679835677146,0.2955530285835266
2024-12-07 18:29:25.083159000,5.510158935546875,0.2095792293548584,-0.095015175640583,0.3343305289745331
2024-12-07 18:29:25.093133000,5.520133056640625,0.3090615272521972,-0.1737913638353347,0.3332698345184326
2024-12-07 18:29:25.103107000,5.530107177734375,0.4458414912223816,-0.2051210701465606,0.2944313585758209
2024-12-07 18:29:25.113081000,5.5400810546875,0.5621269941329956,-0.2064180076122284,0.2110123485326767
2024-12-07 18:29:25.123055000,5.55005517578125,0.5864259600639343,-0.2276330143213272,0.1666581928730011
2024-12-07 18:29:25.133028900,5.56002880859375,0.5296533703804016,-0.2011295855045318,0.2210939228534698
2024-12-07 18:29:25.143002000,5.570002197265625,0.4341457784175873,-0.1321635693311691,0.4096060395240783
2024-12-07 18:29:25.152976100,5.57997607421875,0.3683632314205169,-0.0409422069787979,0.6749547123908997
2024-12-07 18:29:25.162950100,5.5899501953125,0.3443617820739746,0.0418493449687957,0.9513471126556396
2024-12-07 18:29:25.172924000,5.599923828125,0.3149189949035644,0.1484389007091522,1.189760446548462
2024-12-07 18:29:25.182898000,5.60989794921875,0.2680819630622864,0.2994638383388519,1.3538018465042114
2024-12-07 18:29:25.192872000,5.619871826171875,0.2297082692384719,0.4715701937675476,1.415910005569458
2024-12-07 18:29:25.202845000,5.629844970703125,0.2304646074771881,0.6748678684234619,1.394986867904663
2024-12-07 18:29:25.212819000,5.63981884765625,0.2870953381061554,0.959711253643036,1.3410069942474363
2024-12-07 18:29:25.222793000,5.64979296875,0.4111877381801605,1.2861639261245728,1.3290259838104248
2024-12-07 18:29:25.232767000,5.65976708984375,0.550033688545227,1.4530129432678225,1.370055913925171
2024-12-07 18:29:25.242741000,5.669740966796875,0.635202944278717,1.3086572885513306,1.4439901113510132
2024-12-07 18:29:25.252714800,5.67971484375,0.6508633494377136,0.9098297953605652,1.5045348405838013
2024-12-07 18:29:25.262688000,5.68968798828125,0.6115074753761292,0.468753844499588,1.5243141651153564
2024-12-07 18:29:25.272662000,5.699662109375,0.5571731328964233,0.1707746684551239,1.4785325527191162
2024-12-07 18:29:25.282636000,5.709635986328125,0.5118882060050964,0.2138824611902237,1.3500725030899048
2024-12-07 18:29:25.292610000,5.719610107421875,0.5000222325325012,0.5500516295433044,1.1845773458480835
2024-12-07 18:29:25.302583800,5.729583740234375,0.5010073184967041,0.9786027073860168,1.056910753250122
2024-12-07 18:29:25.312557800,5.739557861328125,0.5079659819602966,1.426245093345642,0.9735677242279052
2024-12-07 18:29:25.322531000,5.749531005859375,0.5219736695289612,1.857254266738892,0.9178147315979004
2024-12-07 18:29:25.332505000,5.759505126953125,0.5495355129241943,2.088351249694824,0.8514437079429626
2024-12-07 18:29:25.342479000,5.76947900390625,0.5646686553955078,2.084855794906616,0.7478299736976624
2024-12-07 18:29:25.352453000,5.779453125,0.5428557395935059,1.9141308069229128,0.617632269859314
2024-12-07 18:29:25.362427000,5.789427001953125,0.5205730199813843,1.618363857269287,0.5266280770301819
2024-12-07 18:29:25.372401000,5.79940087890625,0.502327024936676,1.249995470046997,0.4830322563648224
2024-12-07 18:29:25.382374000,5.809373779296875,0.4650150835514068,0.9232945442199708,0.4263074696063995
2024-12-07 18:29:25.392348000,5.819347900390625,0.4405381977558136,0.6169582009315491,0.3590059876441955
2024-12-07 18:29:25.402322000,5.829322021484375,0.4396745264530182,0.333823949098587,0.2920450568199157
2024-12-07 18:29:25.412296000,5.8392958984375,0.4557895958423614,0.0973515436053276,0.2231359928846359
2024-12-07 18:29:25.422269700,5.849269775390625,0.4550689458847046,-0.0920093357563018,0.1545481383800506
2024-12-07 18:29:25.432243700,5.85924365234375,0.4274419248104095,-0.2505702376365661,0.0946539863944053
2024-12-07 18:29:25.442217000,5.869217041015625,0.3880899846553802,-0.3415062725543976,0.0336452275514602
2024-12-07 18:29:25.452191000,5.87919091796875,0.3521351218223572,-0.3902526795864105,-0.0272289868444204
2024-12-07 18:29:25.462165000,5.8891650390625,0.3394291698932647,-0.4303005039691925,-0.092238612473011
2024-12-07 18:29:25.472139000,5.899138916015625,0.343180388212204,-0.4105716049671173,-0.1634870618581771
2024-12-07 18:29:25.482112800,5.90911279296875,0.3544471561908722,-0.3532097935676574,-0.2353308945894241
2024-12-07 18:29:25.492086800,5.919086669921875,0.3590989708900451,-0.3178849518299103,-0.2904734909534454
2024-12-07 18:29:25.502060000,5.92906005859375,0.3136973977088928,-0.3366730213165283,-0.3378724157810211
2024-12-07 18:29:25.512034000,5.939033935546875,0.2126969993114471,-0.3462055325508117,-0.3827054798603058
2024-12-07 18:29:25.522008000,5.949008056640625,0.1019031032919883,-0.3218986093997955,-0.4140671193599701
2024-12-07 18:29:25.531981800,5.95898193359375,0.0287403315305709,-0.2778050601482391,-0.4334670901298523
2024-12-07 18:29:25.541955800,5.968955810546875,-0.0238067656755447,-0.2189976722002029,-0.456611305475235
2024-12-07 18:29:25.551929900,5.978929931640625,-0.0853408500552177,-0.1489268988370895,-0.4850883781909942
2024-12-07 18:29:25.561903000,5.988903076171875,-0.1662847101688385,-0.0676426962018013,-0.5140146017074585
2024-12-07 18:29:25.571877000,5.998877197265625,-0.2567433714866638,-0.0380322262644767,-0.5039960145950317
2024-12-07 18:29:25.581851000,6.008850830078125,-0.3329241573810577,-0.0634052231907844,-0.4607063233852386
2024-12-07 18:29:25.591825000,6.018824951171875,-0.3767580687999725,-0.086762934923172,-0.405748963356018
2024-12-07 18:29:25.601799000,6.028798828125,-0.399924099445343,-0.0923353284597396,-0.3432903885841369
2024-12-07 18:29:25.611773000,6.03877294921875,-0.4247932732105255,-0.0921253338456153,-0.2874670624732971
2024-12-07 18:29:25.621746000,6.048745849609375,-0.4487246870994568,-0.1017036586999893,-0.2447544932365417
2024-12-07 18:29:25.631720000,6.058719970703125,-0.471921294927597,-0.1803551018238067,-0.1964531987905502
2024-12-07 18:29:25.641694000,6.06869384765625,-0.4698573350906372,-0.2861846089363098,-0.1433447152376175
2024-12-07 18:29:25.651667700,6.078667724609375,-0.4219570159912109,-0.3616462349891662,-0.0911026895046234
2024-12-07 18:29:25.661641700,6.088641845703125,-0.3322236537933349,-0.3671920001506805,-0.062997817993164
2024-12-07 18:29:25.671615700,6.09861572265625,-0.2273473441600799,-0.3208195567131042,-0.0714912340044975
2024-12-07 18:29:25.681589800,6.10858984375,-0.1246302798390388,-0.2781394720077514,-0.1058524027466774
2024-12-07 18:29:25.691563000,6.11856298828125,-0.0249751042574644,-0.2697599530220032,-0.1425467878580093
2024-12-07 18:29:25.701536800,6.128536865234375,0.0637169480323791,-0.272044688463211,-0.1770403087139129
2024-12-07 18:29:25.711510800,6.1385107421875,0.1321576684713363,-0.2310550361871719,-0.2390858680009842
2024-12-07 18:29:25.721484800,6.14848486328125,0.1701529771089553,-0.1629122048616409,-0.3362227976322174
2024-12-07 18:29:25.731458800,6.158458740234375,0.1864103376865387,-0.1008464395999908,-0.4453378021717071
2024-12-07 18:29:25.741432800,6.168432861328125,0.1941236555576324,-0.0790061205625534,-0.5234931111335754
2024-12-07 18:29:25.751406000,6.178406005859375,0.1959308087825775,-0.0804534405469894,-0.5388464331626892
2024-12-07 18:29:25.761379800,6.1883798828125,0.1786338537931442,-0.0792294517159462,-0.4968355596065521
2024-12-07 18:29:25.771353900,6.198353759765625,0.1415138095617294,-0.0972569435834884,-0.4311569333076477
2024-12-07 18:29:25.781328000,6.208327880859375,0.077163852751255,-0.1556334346532821,-0.356645405292511
2024-12-07 18:29:25.791302000,6.218302001953125,0.0087112318724393,-0.2857633829116821,-0.2825183272361755
2024-12-07 18:29:25.801276000,6.22827587890625,-0.0548262000083923,-0.5069924592971802,-0.2215884029865265
2024-12-07 18:29:25.811249000,6.238248779296875,-0.1201460361480712,-0.8595828413963318,-0.1981485784053802
2024-12-07 18:29:25.821223000,6.248222900390625,-0.1973170042037964,-1.3316577672958374,-0.2108395993709564
2024-12-07 18:29:25.831197000,6.258197021484375,-0.2719793915748596,-1.759920358657837,-0.2644160687923431
2024-12-07 18:29:25.841171000,6.2681708984375,-0.3590386807918548,-2.0043742656707764,-0.3489415943622589
2024-12-07 18:29:25.851145000,6.27814501953125,-0.4743857979774475,-2.071442127227783,-0.5103909969329834
2024-12-07 18:29:25.861119000,6.288118896484375,-0.5980294346809387,-1.9450589418411257,-0.7546446919441223
2024-12-07 18:29:25.871092000,6.298092041015625,-0.5652499198913574,-1.4556589126586914,-0.8704410195350647
2024-12-07 18:29:25.881065700,6.308065673828125,-0.3239355087280273,-0.6583433747291565,-0.7080161571502686
2024-12-07 18:29:25.891039700,6.318039794921875,-0.0760952234268188,0.0822315216064453,-0.3703690767288208
2024-12-07 18:29:25.901013800,6.328013671875,0.0795705318450927,0.527929425239563,-0.0195162501186132
2024-12-07 18:29:25.910987800,6.33798779296875,0.119785726070404,0.5972678065299988,0.22171051800251
2024-12-07 18:29:25.920961800,6.3479619140625,0.0677757859230041,0.3975142240524292,0.3071005046367645
2024-12-07 18:29:25.930934800,6.357934814453125,-0.0654703229665756,0.1236392930150032,0.2747526466846466
2024-12-07 18:29:25.940908800,6.36790869140625,-0.2044356614351272,-0.1442054659128189,0.1708275824785232
2024-12-07 18:29:25.950882800,6.3778828125,-0.3248533010482788,-0.3848446309566498,0.0266119185835123
2024-12-07 18:29:25.960856800,6.38785693359375,-0.4443011283874511,-0.6181734800338745,-0.1130977794528007
2024-12-07 18:29:25.970830800,6.397830810546875,-0.5781100988388062,-0.7614508271217346,-0.2166524082422256
2024-12-07 18:29:25.980804900,6.407804931640625,-0.7065863013267517,-0.7436367273330688,-0.2484670579433441
2024-12-07 18:29:25.990777900,6.41777783203125,-0.7653031349182129,-0.6220371723175049,-0.1939723789691925
2024-12-07 18:29:26.000751900,6.427751953125,-0.7297369241714478,-0.4513959586620331,-0.0801491513848304
2024-12-07 18:29:26.010726000,6.437725830078125,-0.6133461594581604,-0.3101625442504883,0.0101413894444704
2024-12-07 18:29:26.020700000,6.447699951171875,-0.469257652759552,-0.2345626056194305,0.017498105764389
2024-12-07 18:29:26.030674000,6.457673828125,-0.3742780983448028,-0.1591089367866516,-0.0827420726418495
2024-12-07 18:29:26.040648000,6.46764794921875,-0.3105222880840301,-0.0906049683690071,-0.2420459687709808
2024-12-07 18:29:26.050621000,6.477620849609375,-0.2350693047046661,-0.0881571322679519,-0.3852888941764831
2024-12-07 18:29:26.060595000,6.487594970703125,-0.1478965878486633,-0.1886339336633682,-0.4619530439376831
2024-12-07 18:29:26.070568700,6.497568603515625,-0.0657607167959213,-0.3755697607994079,-0.4782778620719909
2024-12-07 18:29:26.080542700,6.507542724609375,0.020350731909275,-0.5848028659820557,-0.4617737233638763
2024-12-07 18:29:26.090516700,6.517516845703125,0.0772809162735939,-0.7445726990699768,-0.4491109848022461
2024-12-07 18:29:26.100490800,6.52749072265625,0.1039974763989448,-0.8315573930740356,-0.4391108155250549
2024-12-07 18:29:26.110463700,6.537463623046875,0.1060748472809791,-0.8695704936981201,-0.4247822761535644
2024-12-07 18:29:26.120437800,6.547437744140625,0.0878441780805587,-0.8461030125617981,-0.4215057790279388
2024-12-07 18:29:26.130411800,6.557411865234375,0.0626854375004768,-0.6981205940246582,-0.4305467009544372
2024-12-07 18:29:26.140385800,6.5673857421875,0.0319080799818038,-0.3912104666233063,-0.4210788905620575
2024-12-07 18:29:26.150359800,6.57735986328125,0.0048698624595999,-0.0355672016739845,-0.3692371249198913
2024-12-07 18:29:26.160333800,6.587333740234375,-0.0087231779471039,0.2623491585254669,-0.2761836051940918
2024-12-07 18:29:26.170306800,6.597306884765625,-0.0092861196026206,0.4879342019557953,-0.1688757836818695
2024-12-07 18:29:26.180281300,6.60728125,-0.0147147066891193,0.6327217817306519,-0.09035674482584
2024-12-07 18:29:26.190255400,6.61725537109375,-0.0399294160306453,0.6812989711761475,-0.0477143079042434
2024-12-07 18:29:26.200229400,6.6272294921875,-0.0677213668823242,0.6511144042015076,-0.0519849546253681
2024-12-07 18:29:26.210203400,6.637203369140625,-0.0933717861771583,0.548270046710968,-0.1039013937115669
2024-12-07 18:29:26.220177400,6.647177490234375,-0.0934290438890457,0.3653295040130615,-0.1762536168098449
2024-12-07 18:29:26.230150400,6.657150390625,-0.068310722708702,0.1385347247123718,-0.257792979478836
2024-12-07 18:29:26.240124400,6.66712451171875,-0.0463020950555801,-0.035868227481842,-0.3250420689582824
2024-12-07 18:29:26.250098400,6.677098388671875,-0.0456561371684074,-0.16400046646595,-0.3610126078128814
2024-12-07 18:29:26.260072400,6.687072509765625,-0.0486450046300888,-0.2302588522434234,-0.3916706442832947
2024-12-07 18:29:26.270046500,6.69704638671875,-0.0557229667901992,-0.2724454700946808,-0.4321259558200836
2024-12-07 18:29:26.280020500,6.7070205078125,-0.0773542299866676,-0.2954407930374145,-0.4576771259307861
2024-12-07 18:29:26.289993500,6.716993408203125,-0.1028528362512588,-0.3079317808151245,-0.459690511226654
2024-12-07 18:29:26.299967500,6.726967529296875,-0.1191678941249847,-0.3226726353168487,-0.4573945999145508
2024-12-07 18:29:26.309941500,6.73694140625,-0.1336655169725418,-0.3241224586963653,-0.456461489200592
2024-12-07 18:29:26.319915500,6.74691552734375,-0.1388847827911377,-0.3154037892818451,-0.4431169033050537
2024-12-07 18:29:26.329889500,6.7568896484375,-0.1553238928318023,-0.2804912328720093,-0.4057196974754333
2024-12-07 18:29:26.339863300,6.76686328125,-0.1668266206979751,-0.2122051119804382,-0.3470590710639953
2024-12-07 18:29:26.349836300,6.776836181640625,-0.1732448935508728,-0.1459346413612365,-0.2854321599006653
2024-12-07 18:29:26.359810300,6.786810302734375,-0.1722507327795028,-0.1077947095036506,-0.2477569282054901
2024-12-07 18:29:26.369784300,6.796784423828125,-0.1636411398649215,-0.1091586649417877,-0.2374706864356994
2024-12-07 18:29:26.379758300,6.80675830078125,-0.143732413649559,-0.1298652589321136,-0.2560379803180694
2024-12-07 18:29:26.389732400,6.816732421875,-0.1617190539836883,-0.142749398946762,-0.279941976070404
2024-12-07 18:29:26.399706400,6.826706298828125,-0.1976789236068725,-0.1432545930147171,-0.2667303085327148
2024-12-07 18:29:26.409679400,6.836679443359375,-0.2181716859340667,-0.1002024635672569,-0.2344256192445755
2024-12-07 18:29:26.419653400,6.8466533203125,-0.2229800224304199,-0.0198058914393186,-0.1928251832723617
2024-12-07 18:29:26.429627400,6.85662744140625,-0.2395907044410705,0.0738446041941642,-0.1470569819211959
2024-12-07 18:29:26.439601400,6.866601318359375,-0.2552825808525085,0.1514216810464859,-0.1134910285472869
2024-12-07 18:29:26.449575400,6.876575439453125,-0.2640613317489624,0.1910716146230697,-0.1022617742419242
2024-12-07 18:29:26.459549400,6.886549560546875,-0.268755704164505,0.1981782615184784,-0.1170625612139701
2024-12-07 18:29:26.469522400,6.8965224609375,-0.267005056142807,0.1765767484903335,-0.158285453915596
2024-12-07 18:29:26.479496400,6.906496337890625,-0.2575393915176391,0.150239422917366,-0.2108783572912216
2024-12-07 18:29:26.489470500,6.916470458984375,-0.2371524721384048,0.1307724118232727,-0.2652700841426849
2024-12-07 18:29:26.499444500,6.926444580078125,-0.2206352800130844,0.1414383798837661,-0.3182462155818939
2024-12-07 18:29:26.509418500,6.93641845703125,-0.2039054036140442,0.1516209542751312,-0.3076576888561249
2024-12-07 18:29:26.519392500,6.946392578125,-0.2011242657899856,0.1886274516582489,-0.2657384574413299
2024-12-07 18:29:26.529365200,6.956365234375,-0.1846170276403427,0.2219792157411575,-0.2185314297676086
2024-12-07 18:29:26.539339300,6.96633935546875,-0.1861858963966369,0.226964920759201,-0.1518778353929519
2024-12-07 18:29:26.549313300,6.976313232421875,-0.1654856652021408,0.2140118777751922,-0.1036485955119133
2024-12-07 18:29:26.559287300,6.986287353515625,-0.1195458695292472,0.2025768011808395,-0.0940170064568519
2024-12-07 18:29:26.569261300,6.99626123046875,-0.090475358068943,0.2184824496507644,-0.1126904338598251
2024-12-07 18:29:26.579235300,7.0062353515625,-0.0771164074540138,0.2541435062885284,-0.1524431854486465
2024-12-07 18:29:26.589208300,7.016208251953125,-0.0790762826800346,0.2590438425540924,-0.1464645862579345
2024-12-07 18:29:26.599182300,7.026182373046875,-0.0699277967214584,0.2882765829563141,-0.1218790858983993
2024-12-07 18:29:26.609156400,7.03615625,-0.0858335569500923,0.3310367166996002,-0.0748559907078743
2024-12-07 18:29:26.619130400,7.04613037109375,-0.1053425446152687,0.4040395617485046,-0.0343887284398078
2024-12-07 18:29:26.629104400,7.0561044921875,-0.1134890094399452,0.4864326119422912,-0.0219483915716409
2024-12-07 18:29:26.639078400,7.066078369140625,-0.1106290370225906,0.60420823097229,-0.0317799821496009
2024-12-07 18:29:26.649051400,7.076051513671875,-0.1159814223647117,0.7245768308639526,-0.0492068454623222
2024-12-07 18:29:26.659025400,7.086025390625,-0.0981571525335311,0.8478425741195679,-0.0713457018136978
2024-12-07 18:29:26.668999400,7.09599951171875,-0.0914368033409118,0.9004819393157959,-0.0428162887692451
2024-12-07 18:29:26.678973400,7.105973388671875,-0.1205155923962593,0.8985671401023865,0.0327477119863033
2024-12-07 18:29:26.688947500,7.115947509765625,-0.1337442398071289,0.9095600843429564,0.0795515179634094
2024-12-07 18:29:26.698921500,7.12592138671875,-0.1078692376613617,0.8383239507675171,0.1110037192702293
2024-12-07 18:29:26.708894500,7.13589453125,-0.0514980591833591,0.6302803158760071,0.1667436808347702
2024-12-07 18:29:26.718868500,7.145868408203125,0.0424633212387561,0.2967474162578583,0.2704839408397674
2024-12-07 18:29:26.728842500,7.155842529296875,0.1411767303943634,-0.0491757430136203,0.3451945781707763
2024-12-07 18:29:26.738816500,7.16581640625,0.2569896280765533,-0.3776247203350067,0.3768534362316131
2024-12-07 18:29:26.748790500,7.17579052734375,0.383299708366394,-0.6184762120246887,0.3684974610805511
2024-12-07 18:29:26.758764500,7.1857646484375,0.4717238545417785,-0.7593081593513489,0.3401121497154236
2024-12-07 18:29:26.768737300,7.1957373046875,0.524168074131012,-0.8242536187171936,0.3105258047580719
2024-12-07 18:29:26.778711300,7.205711181640625,0.5563848614692688,-0.8263891935348511,0.3037307560443878
2024-12-07 18:29:26.788685300,7.215685302734375,0.5567211508750916,-0.7795611023902893,0.3456558883190155
2024-12-07 18:29:26.798659300,7.225659423828125,0.5268609523773193,-0.6770501732826233,0.4573728144168854
2024-12-07 18:29:26.808633300,7.23563330078125,0.4754994511604309,-0.5068022608757019,0.6242599487304688
2024-12-07 18:29:26.818607400,7.245607421875,0.4209059774875641,-0.2715140879154205,0.7947506904602051
2024-12-07 18:29:26.828580400,7.255580322265625,0.3700314462184906,0.0348514877259731,0.9046164155006408
2024-12-07 18:29:26.838554400,7.265554443359375,0.3315322697162628,0.3796861171722412,0.935767948627472
2024-12-07 18:29:26.848528400,7.2755283203125,0.3126175999641418,0.7591739892959595,0.8968155384063721
2024-12-07 18:29:26.858502400,7.28550244140625,0.3208393156528473,1.1234480142593384,0.8103078603744507
2024-12-07 18:29:26.868476400,7.295476318359375,0.3822740316390991,1.3982287645339966,0.7424264550209045
2024-12-07 18:29:26.878450400,7.305450439453125,0.4870856702327728,1.5059187412261963,0.7713726162910461
2024-12-07 18:29:26.888423400,7.31542333984375,0.5758840441703796,1.4986474514007568,0.934822142124176
2024-12-07 18:29:26.898397400,7.3253974609375,0.5963568091392517,1.3524752855300903,1.1604951620101929
2024-12-07 18:29:26.908371500,7.335371337890625,0.5200144648551941,1.0826178789138794,1.3581271171569824
2024-12-07 18:29:26.918345500,7.345345458984375,0.3701251447200775,0.8138628005981445,1.470520257949829
2024-12-07 18:29:26.928319500,7.355319580078125,0.2326082289218902,0.6171581745147705,1.468190312385559
2024-12-07 18:29:26.938293500,7.36529345703125,0.1495034992694854,0.4638154804706573,1.3860077857971191
2024-12-07 18:29:26.948266500,7.3752666015625,0.1050648391246795,0.3434547185897827,1.2500128746032717
2024-12-07 18:29:26.958240500,7.385240478515625,0.0664436742663383,0.3745516538619995,1.0850926637649536
2024-12-07 18:29:26.968214500,7.395214599609375,0.0732487738132476,0.6429954171180725,0.9384408593177797
2024-12-07 18:29:26.978188500,7.4051884765625,0.1497219800949096,1.0329484939575195,0.8138651251792908
2024-12-07 18:29:26.988162600,7.41516259765625,0.2698569893836975,1.4365891218185425,0.7107163071632385
2024-12-07 18:29:26.998136600,7.425136474609375,0.3735964596271515,1.7562483549118042,0.6153125762939453
2024-12-07 18:29:27.008109300,7.435109375,0.4465160369873047,1.9187577962875368,0.5100283622741699
2024-12-07 18:29:27.018083300,7.445083251953125,0.4845345318317413,1.8754366636276243,0.3936269283294678
2024-12-07 18:29:27.028057300,7.455057373046875,0.490874171257019,1.6611740589141846,0.2731748819351196
2024-12-07 18:29:27.038031400,7.46503125,0.4859361350536346,1.3038452863693235,0.1834351420402526
2024-12-07 18:29:27.048005400,7.47500537109375,0.4714273810386657,0.8865563273429871,0.1191200315952301
2024-12-07 18:29:27.057979400,7.4849794921875,0.4425509870052337,0.4835566878318786,0.0869775414466857
2024-12-07 18:29:27.067952400,7.494952392578125,0.4064811170101166,0.1138153746724128,0.0905656144022941
2024-12-07 18:29:27.077926400,7.504926513671875,0.3749985694885254,-0.2021535187959671,0.1231816187500953
2024-12-07 18:29:27.087900400,7.514900390625,0.3568433225154876,-0.3854443430900574,0.1469510048627853
2024-12-07 18:29:27.097874400,7.52487451171875,0.3537039756774902,-0.4035910964012146,0.1434305608272552
2024-12-07 18:29:27.107848400,7.534848388671875,0.3362950980663299,-0.3134617209434509,0.1239500567317009
2024-12-07 18:29:27.117822500,7.544822509765625,0.2990204393863678,-0.200446218252182,0.0895073935389518
2024-12-07 18:29:27.127795500,7.55479541015625,0.2673738300800323,-0.0772086083889007,0.0437884554266929
2024-12-07 18:29:27.137769500,7.56476953125,0.2433481365442276,0.0500068627297878,-0.0233386512845754
2024-12-07 18:29:27.147743500,7.574743408203125,0.2311934977769851,0.1175747886300087,-0.1000095829367637
2024-12-07 18:29:27.157717500,7.584717529296875,0.2065107822418213,0.1087578609585762,-0.1780599057674408
2024-12-07 18:29:27.167691500,7.59469140625,0.1486605405807495,0.0810474306344986,-0.2562298774719238
2024-12-07 18:29:27.177665000,7.6046650390625,0.0739748552441597,0.034448504447937,-0.3045936822891235
2024-12-07 18:29:27.187638000,7.614637939453125,0.0125386249274015,-0.005050032865256,-0.3382856249809265
2024-12-07 18:29:27.197612000,7.624612060546875,-0.0358930900692939,-0.0115047357976436,-0.3831969201564789
2024-12-07 18:29:27.207586000,7.6345859375,-0.0796403139829635,-0.0455165281891822,-0.42531418800354
2024-12-07 18:29:27.217560000,7.64456005859375,-0.1238597109913826,-0.1262563914060592,-0.4413512051105499
2024-12-07 18:29:27.227534000,7.6545341796875,-0.1635023802518844,-0.1999269127845764,-0.4148137867450714
2024-12-07 18:29:27.237508000,7.664508056640625,-0.1927793174982071,-0.2155721932649612,-0.3651695251464844
2024-12-07 18:29:27.247481000,7.674481201171875,-0.2228379994630813,-0.1860993057489395,-0.3172408044338226
2024-12-07 18:29:27.257455000,7.684455078125,-0.2567658424377441,-0.1039815247058868,-0.2993624806404114
2024-12-07 18:29:27.267429000,7.69442919921875,-0.3090153038501739,-0.0178511310368776,-0.3004360795021057
2024-12-07 18:29:27.277403100,7.704403076171875,-0.3675023019313812,-0.0019683053251355,-0.2676480412483215
2024-12-07 18:29:27.287377200,7.714377197265625,-0.4247947633266449,-0.0977716743946075,-0.2195297330617904
2024-12-07 18:29:27.297351200,7.72435107421875,-0.460833191871643,-0.2059048116207122,-0.1986841112375259
2024-12-07 18:29:27.307324000,7.734323974609375,-0.4730362892150879,-0.2816183567047119,-0.1917790472507476
2024-12-07 18:29:27.317298000,7.7442978515625,-0.4404562413692474,-0.3450031876564026,-0.1982225626707077
2024-12-07 18:29:27.327272000,7.75427197265625,-0.3693980872631073,-0.3777982592582702,-0.1952036172151565
2024-12-07 18:29:27.337246000,7.764245849609375,-0.2699852287769317,-0.3242897689342499,-0.1578866094350814
2024-12-07 18:29:27.347220000,7.774219970703125,-0.1437272876501083,-0.2055688649415969,-0.1126727610826492
2024-12-07 18:29:27.357194000,7.784194091796875,-0.0007048776606097,-0.1046313345432281,-0.090054802596569
2024-12-07 18:29:27.367167000,7.7941669921875,0.1055327206850051,-0.103640578687191,-0.0777617618441581
2024-12-07 18:29:27.377141000,7.80414111328125,0.1401474177837371,-0.1397759467363357,-0.0802116021513938
2024-12-07 18:29:27.387115000,7.814114990234375,0.1212550401687622,-0.1102321818470954,-0.1131873726844787
2024-12-07 18:29:27.397089000,7.824089111328125,0.1013292670249939,0.0113922515884041,-0.1725010275840759
2024-12-07 18:29:27.407063000,7.83406298828125,0.1065803542733192,0.1312673836946487,-0.2279533445835113
2024-12-07 18:29:27.417036000,7.8440361328125,0.107518583536148,0.1685609519481659,-0.2409873753786087
2024-12-07 18:29:27.427010000,7.854010009765625,0.0850497186183929,0.0686123818159103,-0.2070475220680236
2024-12-07 18:29:27.436984000,7.863984130859375,0.0450884588062763,-0.2269713282585144,-0.1703997701406479
2024-12-07 18:29:27.446958000,7.8739580078125,0.0210837442427873,-0.7353284358978271,-0.2044088840484619
2024-12-07 18:29:27.456932000,7.88393212890625,0.0195020921528339,-1.310728907585144,-0.3056686520576477
2024-12-07 18:29:27.466906000,7.893906005859375,-0.01351108122617,-1.7053157091140747,-0.3960086405277252
2024-12-07 18:29:27.476880100,7.903880126953125,-0.1280312687158584,-1.784839749336243,-0.4316694438457489
2024-12-07 18:29:27.487476200,7.914476318359375,-0.3269776701927185,-1.4456868171691897,-0.4007267653942108
2024-12-07 18:29:27.497450200,7.9244501953125,-0.4898358285427093,-0.753459095954895,-0.2661774754524231
2024-12-07 18:29:27.507424000,7.934424072265625,-0.5015667080879211,-0.0240933671593666,-0.0297954082489013
2024-12-07 18:29:27.517398000,7.94439794921875,-0.4196204841136932,0.4116807579994201,0.2300910204648971
2024-12-07 18:29:27.527372000,7.9543720703125,-0.3310394287109375,0.440559983253479,0.4463236629962921
2024-12-07 18:29:27.537345000,7.964344970703125,-0.2796484231948852,0.1816450357437133,0.5704320669174194
2024-12-07 18:29:27.547319000,7.974319091796875,-0.2612426877021789,-0.1862584501504898,0.5823436379432678
2024-12-07 18:29:27.557293000,7.98429296875,-0.2754522562026977,-0.6109317541122437,0.4815294146537781
2024-12-07 18:29:27.567266800,7.994266845703125,-0.3264397978782654,-1.1160215139389038,0.2832948863506317
2024-12-07 18:29:27.577240800,8.00424072265625,-0.4047196805477142,-1.6191693544387815,0.0205759201198816
2024-12-07 18:29:27.587214800,8.01421484375,-0.4927945733070373,-1.9812943935394287,-0.2484206408262252
2024-12-07 18:29:27.597188000,8.02418798828125,-0.5373747944831848,-2.132696866989136,-0.4723671674728393
2024-12-07 18:29:27.607162000,8.034162109375,-0.4937063753604889,-2.035771608352661,-0.6000424027442932
2024-12-07 18:29:27.617136000,8.04413623046875,-0.3697913587093353,-1.7330862283706665,-0.6263169050216675
2024-12-07 18:29:27.627110000,8.05410986328125,-0.215917482972145,-1.261486291885376,-0.6050162315368652
2024-12-07 18:29:27.637084000,8.064083984375,-0.0725515261292457,-0.7172017097473145,-0.5793671011924744
2024-12-07 18:29:27.647058000,8.074057861328125,0.0249034613370895,-0.2562232613563537,-0.5568339824676514
2024-12-07 18:29:27.657032000,8.084031982421875,0.0647089257836341,0.010422296822071,-0.5209990739822388
2024-12-07 18:29:27.667005200,8.094005126953125,0.0600088723003864,0.094676099717617,-0.4898452162742615
2024-12-07 18:29:27.676979000,8.10397900390625,0.024199740961194,0.019165102392435,-0.4640162885189056
2024-12-07 18:29:27.686953000,8.113952880859374,-0.0500785522162914,-0.1568934619426727,-0.4151143729686737
2024-12-07 18:29:27.696927000,8.123927001953126,-0.1074190735816955,-0.3019995391368866,-0.3446031808853149
2024-12-07 18:29:27.706901000,8.13390087890625,-0.1292769014835357,-0.3516169488430023,-0.2594772577285766
2024-12-07 18:29:27.716874200,8.143874267578125,-0.1079034358263015,-0.3498712480068207,-0.1785376518964767
2024-12-07 18:29:27.726848000,8.153847900390625,-0.0665764510631561,-0.2980047166347503,-0.1711018830537796
2024-12-07 18:29:27.736822000,8.163822021484375,-0.0311910323798656,-0.2313644289970398,-0.2361434549093246
2024-12-07 18:29:27.746796000,8.173796142578125,-0.0319686494767665,-0.1644527018070221,-0.2416984140872955
2024-12-07 18:29:27.756770000,8.18377001953125,-0.0280793718993663,-0.1164002195000648,-0.1296160817146301
2024-12-07 18:29:27.766744000,8.193744140625,0.0060910740867257,-0.1000328287482261,0.0546829029917717
2024-12-07 18:29:27.776717000,8.203717041015626,0.062182568013668,-0.0672120302915573,0.1761741787195205
2024-12-07 18:29:27.786691000,8.213691162109376,0.1019978150725364,-0.0071236528456211,0.1486048549413681
2024-12-07 18:29:27.796664800,8.223664794921875,0.1031496301293373,0.0216105245053768,-0.0255110263824462
2024-12-07 18:29:27.807262000,8.234261962890624,0.0703968256711959,-0.0428323931992054,-0.2234051823616027
2024-12-07 18:29:27.817236000,8.244236083984376,0.0347565412521362,-0.1645361930131912,-0.3070614635944366
2024-12-07 18:29:27.827210000,8.2542099609375,0.019420376047492,-0.2581830322742462,-0.3249667286872864
2024-12-07 18:29:27.837184000,8.26418408203125,0.0366835221648216,-0.2881257534027099,-0.3567102551460266
2024-12-07 18:29:27.847157000,8.274156982421875,0.0473994500935077,-0.2534104287624359,-0.4133449792861938
2024-12-07 18:29:27.857131000,8.284131103515625,0.0354839339852333,-0.2167999446392059,-0.4380332827568054
2024-12-07 18:29:27.867105000,8.29410498046875,0.006382199935615,-0.2660618722438812,-0.4164899587631225
2024-12-07 18:29:27.877079000,8.3040791015625,-0.0261019747704267,-0.3493429124355316,-0.3995418548583984
2024-12-07 18:29:27.887053000,8.314052978515624,-0.05926463752985,-0.3653341829776764,-0.4203176200389862
2024-12-07 18:29:27.897027000,8.324027099609374,-0.0936748161911964,-0.2922501266002655,-0.4514859318733215
2024-12-07 18:29:27.907000000,8.334,-0.1470979452133178,-0.1914961785078048,-0.4271665513515472
2024-12-07 18:29:27.916974000,8.34397412109375,-0.1759676784276962,-0.0697881057858467,-0.3526752889156341
2024-12-07 18:29:27.926948000,8.353947998046875,-0.1638694256544113,0.0520649552345275,-0.2814019024372101
2024-12-07 18:29:27.936922000,8.363922119140625,-0.1786174774169922,0.1336671411991119,-0.211626261472702
2024-12-07 18:29:27.946896100,8.373896240234375,-0.2087453007698059,0.2182892709970474,-0.1513090133666992
2024-12-07 18:29:27.956870100,8.3838701171875,-0.2112015336751938,0.2582116723060608,-0.1054752171039581
2024-12-07 18:29:27.966844200,8.39384423828125,-0.1887712180614471,0.2453230768442154,-0.0774338170886039
2024-12-07 18:29:27.976817200,8.403817138671876,-0.1701759696006775,0.2071706354618072,-0.0770367458462715
2024-12-07 18:29:27.986791200,8.413791259765626,-0.1577531099319458,0.1707922220230102,-0.0955855846405029
2024-12-07 18:29:27.996765200,8.42376513671875,-0.150152176618576,0.1600508987903595,-0.1137379556894302
2024-12-07 18:29:28.006739200,8.4337392578125,-0.1541602164506912,0.1794041246175766,-0.1152935773134231
2024-12-07 18:29:28.016713200,8.443713134765625,-0.158693715929985,0.2196761816740036,-0.1019410192966461
2024-12-07 18:29:28.026686000,8.45368603515625,-0.1583432555198669,0.27533620595932,-0.0898978784680366
2024-12-07 18:29:28.036660000,8.463659912109375,-0.1697748750448227,0.312396228313446,-0.0802588388323783
2024-12-07 18:29:28.046634000,8.473634033203124,-0.1863367110490799,0.3255165517330169,-0.0856022387742996
2024-12-07 18:29:28.056608000,8.48360791015625,-0.2210249155759811,0.3369370102882385,-0.1069810315966606
2024-12-07 18:29:28.066582000,8.49358203125,-0.2490273416042328,0.3169734477996826,-0.1258263736963272
2024-12-07 18:29:28.076556000,8.50355615234375,-0.2702348828315735,0.2617426812648773,-0.1214156523346901
2024-12-07 18:29:28.086529000,8.513529052734375,-0.2778130769729614,0.1753084063529968,-0.0859830155968666
2024-12-07 18:29:28.096503000,8.5235029296875,-0.2740468382835388,0.0814218446612358,-0.0525233224034309
2024-12-07 18:29:28.106477000,8.53347705078125,-0.2619094550609588,0.0145920496433973,-0.0487250462174415
2024-12-07 18:29:28.116451000,8.543451171875,-0.252971351146698,-0.0142824761569499,-0.0863203629851341
2024-12-07 18:29:28.126425000,8.553425048828124,-0.2389702051877975,-0.0085256993770599,-0.1493445038795471
2024-12-07 18:29:28.136399000,8.563399169921874,-0.2375659197568893,0.0186260268092155,-0.1988659799098968
2024-12-07 18:29:28.146372000,8.5733720703125,-0.2208831906318664,0.0586479566991329,-0.2170637995004654
2024-12-07 18:29:28.156346000,8.58334619140625,-0.1983927935361862,0.1198910772800445,-0.2177647352218628
2024-12-07 18:29:28.166320000,8.593320068359375,-0.1782718747854232,0.1871354579925537,-0.2103283256292343
2024-12-07 18:29:28.176294100,8.603294189453125,-0.184008851647377,0.2863898873329162,-0.1942439079284668
2024-12-07 18:29:28.186268200,8.61326806640625,-0.1872126460075378,0.3831281661987304,-0.1966910809278488
2024-12-07 18:29:28.196242200,8.6232421875,-0.1874035894870758,0.4635137915611267,-0.2071535736322403
2024-12-07 18:29:28.206215200,8.633215087890624,-0.1825781762599945,0.5083445310592651,-0.2280671000480651
2024-12-07 18:29:28.216189200,8.643189208984374,-0.2214954793453216,0.503873348236084,-0.1935328245162964
2024-12-07 18:29:28.226163200,8.6531630859375,-0.2445640116930008,0.4986016750335693,-0.168995127081871
2024-12-07 18:29:28.236137200,8.66313720703125,-0.239183098077774,0.4983196556568146,-0.15291228890419
2024-12-07 18:29:28.246111200,8.673111328125,-0.214196041226387,0.5041502714157104,-0.1460946053266525
2024-12-07 18:29:28.256085200,8.683085205078125,-0.171103686094284,0.4727712571620941,-0.1199237257242202
2024-12-07 18:29:28.266059300,8.693059326171875,-0.1369677186012268,0.4340928792953491,-0.0734156593680381
2024-12-07 18:29:28.276032000,8.703031982421875,-0.0899956971406936,0.3757363557815552,-0.0326842069625854
2024-12-07 18:29:28.286006000,8.713006103515625,-0.0371939428150653,0.2945617735385895,-0.004724798258394
2024-12-07 18:29:28.295980000,8.72297998046875,0.0522264838218688,0.1658892780542373,-0.0033841629046946
2024-12-07 18:29:28.305954000,8.7329541015625,0.1329353898763656,0.0602572299540042,-0.0275448374450206
2024-12-07 18:29:28.315928000,8.742927978515626,0.2106717377901077,-0.0187768675386905,-0.0568015277385711
2024-12-07 18:29:28.325902000,8.752902099609376,0.2889196872711181,-0.0394700989127159,-0.0636981800198555
2024-12-07 18:29:28.335875000,8.762875,0.3929555416107178,-0.0540903210639953,-0.0429518893361091
2024-12-07 18:29:28.345849000,8.77284912109375,0.4605455100536346,-0.0974835976958274,0.0558114387094974
2024-12-07 18:29:28.355823000,8.782822998046875,0.4764578938484192,-0.1534864157438278,0.2138319760560989
2024-12-07 18:29:28.365797000,8.792797119140625,0.5085968971252441,-0.1702148914337158,0.3757771253585815
2024-12-07 18:29:28.375771100,8.802771240234375,0.5554208755493164,-0.1036337316036224,0.5186229348182678
2024-12-07 18:29:28.385745200,8.8127451171875,0.5846568942070007,0.0244641005992889,0.6544917821884155
2024-12-07 18:29:28.395718100,8.82271826171875,0.5876644253730774,0.1682212650775909,0.8032582998275757
2024-12-07 18:29:28.405692200,8.832692138671876,0.5777415037155151,0.3063841164112091,0.951122522354126
2024-12-07 18:29:28.415666200,8.842666259765625,0.5614839792251587,0.4508672654628753,1.0768722295761108
2024-12-07 18:29:28.425640200,8.85264013671875,0.5536340475082397,0.6305832266807556,1.1725984811782837
2024-12-07 18:29:28.435614200,8.8626142578125,0.5548498034477234,0.8569236993789673,1.2255998849868774
2024-12-07 18:29:28.445588200,8.872588134765625,0.5699595212936401,1.1172903776168823,1.2376209497451782
2024-12-07 18:29:28.455561200,8.882561279296874,0.611652135848999,1.375858187675476,1.2306517362594604
2024-12-07 18:29:28.465535200,8.89253515625,0.6678334474563599,1.5896538496017456,1.2299138307571411
2024-12-07 18:29:28.475509200,8.90250927734375,0.7314619421958923,1.7583541870117188,1.2441686391830444
2024-12-07 18:29:28.485483300,8.912483154296876,0.8262802362442017,1.8093303442001345,1.2892013788223269
2024-12-07 18:29:28.495457300,8.922457275390625,0.8780773878097534,1.6902881860733032,1.3328777551651
2024-12-07 18:29:28.505431300,8.932431396484375,0.83132004737854,1.499091625213623,1.3022103309631348
2024-12-07 18:29:28.515404000,8.942404052734375,0.7251563668251038,1.2989904880523682,1.2177377939224243
2024-12-07 18:29:28.525378000,8.9523779296875,0.6265277862548828,1.0741136074066162,1.1167371273040771
2024-12-07 18:29:28.535352000,8.96235205078125,0.5259793400764465,0.8411815762519836,1.0037187337875366
2024-12-07 18:29:28.545326000,8.972326171875,0.4365424811840057,0.703850269317627,0.8886300921440125
2024-12-07 18:29:28.555300000,8.982300048828124,0.4035520255565643,0.6916122436523438,0.794667661190033
2024-12-07 18:29:28.565274000,8.992274169921876,0.4147171974182129,0.7740669250488281,0.7379369735717773
2024-12-07 18:29:28.575247000,9.0022470703125,0.4380267560482025,0.8568440675735474,0.679223358631134
2024-12-07 18:29:28.585221000,9.01222119140625,0.451165497303009,0.9955786466598512,0.5657992362976074
2024-12-07 18:29:28.595195100,9.022195068359377,0.4648014307022095,1.1469178199768066,0.4300613701343536
2024-12-07 18:29:28.605169200,9.032169189453125,0.4909336566925049,1.1990342140197754,0.3211220502853393
2024-12-07 18:29:28.615143200,9.04214306640625,0.5198302865028381,1.1345279216766355,0.2611356675624847
2024-12-07 18:29:28.625117200,9.0521171875,0.5245604515075684,0.9949608445167542,0.227068543434143
2024-12-07 18:29:28.635090200,9.062090087890626,0.4984260499477386,0.779270589351654,0.2015067338943481
2024-12-07 18:29:28.645064200,9.072064208984376,0.456576406955719,0.4904408156871795,0.189054861664772
2024-12-07 18:29:28.655038200,9.0820380859375,0.4058330655097961,0.1691797077655792,0.1720292717218399
2024-12-07 18:29:28.665012200,9.09201220703125,0.350439965724945,-0.1000215858221054,0.1371656507253646
2024-12-07 18:29:28.674986200,9.101986328125,0.2919542789459228,-0.2628184854984283,0.0831780582666397
2024-12-07 18:29:28.684960000,9.1119599609375,0.226745069026947,-0.3115301430225372,0.0294978972524404
2024-12-07 18:29:28.694934000,9.12193408203125,0.1615655273199081,-0.2554706037044525,-0.036102682352066
2024-12-07 18:29:28.704907300,9.1319072265625,0.109507255256176,-0.159359410405159,-0.0962477475404739
2024-12-07 18:29:28.714881300,9.14188134765625,0.0735026523470878,-0.046180922538042,-0.1600096821784973
2024-12-07 18:29:28.724855300,9.151855224609376,0.061746746301651,0.0240921601653099,-0.2136819511651992
2024-12-07 18:29:28.734829300,9.161829345703126,0.0500533431768417,0.0650427863001823,-0.2715362012386322
2024-12-07 18:29:28.744803000,9.171802978515624,0.0137161519378423,0.0794735550880432,-0.3387592434883117
2024-12-07 18:29:28.754777000,9.181777099609375,-0.0680378302931785,0.0546070896089077,-0.3974300026893616
2024-12-07 18:29:28.764750000,9.19175,-0.1631962060928344,-0.0162273813039064,-0.4433378577232361
2024-12-07 18:29:28.774724000,9.20172412109375,-0.2505337595939636,-0.1131653785705566,-0.4790101051330566
2024-12-07 18:29:28.784698000,9.211697998046876,-0.3371018171310425,-0.1912001371383667,-0.5033729672431946
2024-12-07 18:29:28.794672000,9.221672119140624,-0.4059075117111206,-0.2168849855661392,-0.5130946040153503
2024-12-07 18:29:28.804646000,9.23164599609375,-0.4571973085403442,-0.1998790651559829,-0.5005205869674683
2024-12-07 18:29:28.814620000,9.241619873046876,-0.506675124168396,-0.2123613059520721,-0.4649777710437774
2024-12-07 18:29:28.824593200,9.25159326171875,-0.5727327466011047,-0.3163072168827057,-0.3977018594741821
2024-12-07 18:29:28.834567200,9.261567138671875,-0.6472911238670349,-0.4937616288661957,-0.3268721401691437
2024-12-07 18:29:28.844541200,9.271541259765623,-0.6898953914642334,-0.6363315582275391,-0.2923759818077087
2024-12-07 18:29:28.854515200,9.28151513671875,-0.6788619160652161,-0.7279967665672302,-0.2881700694561004
2024-12-07 18:29:28.864489000,9.291489013671876,-0.6089580655097961,-0.766395092010498,-0.2897003889083862
2024-12-07 18:29:28.874463000,9.301462890625,-0.4635199010372162,-0.7190472483634949,-0.2908594012260437
2024-12-07 18:29:28.884436200,9.311436279296874,-0.2744393348693847,-0.5705304145812988,-0.2847871780395508
2024-12-07 18:29:28.894410200,9.32141015625,-0.1021751388907432,-0.4097755849361419,-0.2377994209527969
2024-12-07 18:29:28.904384300,9.33138427734375,0.0420690476894378,-0.3490945696830749,-0.1660683900117874
2024-12-07 18:29:28.914358000,9.34135791015625,0.169968694448471,-0.431988388299942,-0.1130365952849388
2024-12-07 18:29:28.924332000,9.35133203125,0.2679410874843597,-0.5733321309089661,-0.122614249587059
2024-12-07 18:29:28.934306000,9.36130615234375,0.3122496902942657,-0.6377662420272827,-0.180704191327095
2024-12-07 18:29:28.944279300,9.371279296875,0.3173356056213379,-0.6152682304382324,-0.2350213974714279
2024-12-07 18:29:28.954253300,9.38125341796875,0.3073996007442474,-0.5338415503501892,-0.2436705529689788
2024-12-07 18:29:28.964227000,9.39122705078125,0.2870019376277923,-0.389905571937561,-0.2160092294216156
2024-12-07 18:29:28.974201000,9.401201171875,0.2535592913627624,-0.2339444756507873,-0.1803774684667587
2024-12-07 18:29:28.984174800,9.4111748046875,0.1932533979415893,-0.1663024574518203,-0.153423324227333
2024-12-07 18:29:28.994148900,9.42114892578125,0.0985473990440368,-0.2451213747262954,-0.1583182215690612
2024-12-07 18:29:29.004122000,9.4311220703125,-0.0156055344268679,-0.455500990152359,-0.2068487405776977
2024-12-07 18:29:29.014096100,9.44109619140625,-0.1145243942737579,-0.778626024723053,-0.2845256924629211
2024-12-07 18:29:29.024070100,9.451070068359376,-0.1875606626272201,-1.1690369844436646,-0.3996967077255249
2024-12-07 18:29:29.034044000,9.4610439453125,-0.2794903218746185,-1.5554031133651731,-0.5502009987831116
2024-12-07 18:29:29.044018000,9.471017822265624,-0.3978057205677032,-1.7689051628112793,-0.6407582759857178
2024-12-07 18:29:29.053992000,9.480991943359374,-0.519733190536499,-1.6042466163635254,-0.5843120217323303
2024-12-07 18:29:29.063965200,9.490965087890626,-0.5901389122009277,-1.000485062599182,-0.3824965953826904
2024-12-07 18:29:29.073939200,9.500939208984375,-0.5920447111129761,-0.1664264649152755,-0.128489077091217
2024-12-07 18:29:29.083913000,9.510912841796875,-0.5266238451004028,0.492560863494873,0.1034749075770378
2024-12-07 18:29:29.093887000,9.520886962890623,-0.4141950011253357,0.7273706793785095,0.2943378090858459
2024-12-07 18:29:29.103861000,9.530861083984377,-0.3170267641544342,0.5752807259559631,0.4120517373085022
2024-12-07 18:29:29.113835000,9.5408349609375,-0.2962125837802887,0.1919605135917663,0.3878774344921112
2024-12-07 18:29:29.123808300,9.550808349609374,-0.3503005504608154,-0.287485659122467,0.2225717157125473
2024-12-07 18:29:29.133782300,9.5607822265625,-0.4425135552883148,-0.7593546509742737,0.0133732222020626
2024-12-07 18:29:29.143756000,9.570756103515626,-0.5509095788002014,-1.1596181392669678,-0.126607209444046
2024-12-07 18:29:29.153730000,9.58072998046875,-0.6281907558441162,-1.439900040626526,-0.1777313798666
2024-12-07 18:29:29.163704000,9.5907041015625,-0.621482253074646,-1.5876867771148682,-0.2088261991739273
2024-12-07 18:29:29.173678000,9.600677978515623,-0.5557093620300293,-1.6000806093215942,-0.2646782994270324
2024-12-07 18:29:29.183651800,9.61065185546875,-0.4493496417999267,-1.475475549697876,-0.3706314265727997
2024-12-07 18:29:29.193625900,9.6206259765625,-0.3092732429504394,-1.2476792335510254,-0.5107624530792236
2024-12-07 18:29:29.203600000,9.630599853515625,-0.1487084627151489,-1.0265088081359863,-0.6362615823745728
2024-12-07 18:29:29.213574000,9.640573974609374,-0.0049856598488986,-0.8457643389701843,-0.7163705229759216
2024-12-07 18:29:29.223548000,9.6505478515625,0.096506543457508,-0.7228682637214661,-0.7478629946708679
2024-12-07 18:29:29.233522000,9.66052197265625,0.124685451388359,-0.668261706829071,-0.7133452296257019
2024-12-07 18:29:29.243494700,9.67049462890625,0.0985232815146446,-0.6539167761802673,-0.6177317500114441
2024-12-07 18:29:29.253468700,9.68046875,0.0384847111999988,-0.6120558977127075,-0.4814519584178924
2024-12-07 18:29:29.263442700,9.690442626953123,-0.0438166484236717,-0.493294894695282,-0.3312616348266601
2024-12-07 18:29:29.273416700,9.700416748046877,-0.1216033175587654,-0.3431962132453918,-0.1887955516576767
2024-12-07 18:29:29.283390700,9.710390625,-0.1726159304380417,-0.2017978727817535,-0.0710674673318862
2024-12-07 18:29:29.293364700,9.72036474609375,-0.1835487335920334,-0.116218514740467,-0.0025041217450052
2024-12-07 18:29:29.303337700,9.730337646484376,-0.1636699736118316,-0.122070699930191,0.0141425319015979
2024-12-07 18:29:29.313311700,9.740311767578126,-0.1193035766482353,-0.1858712434768676,-0.026787856593728
2024-12-07 18:29:29.323285800,9.75028564453125,-0.0542414784431457,-0.2086771875619888,-0.0757999271154403
2024-12-07 18:29:29.333259800,9.760259765625,0.0136930970475077,-0.1989417374134063,-0.1157417520880699
2024-12-07 18:29:29.343233800,9.77023388671875,0.0634159371256828,-0.1472683697938919,-0.1506599336862564
2024-12-07 18:29:29.353207800,9.780207763671877,0.0944383069872856,-0.0746668577194213,-0.1913221329450607
2024-12-07 18:29:29.363180800,9.790180908203125,0.1248547583818435,-0.0121777784079313,-0.2355428636074066
2024-12-07 18:29:29.373154800,9.80015478515625,0.159375712275505,0.0191551093012094,-0.2789715528488159
2024-12-07 18:29:29.383128800,9.81012890625,0.2016194462776184,0.0431370548903942,-0.3141317963600158
2024-12-07 18:29:29.393102800,9.820102783203126,0.2085849493741989,0.0276371911168098,-0.345127522945404
2024-12-07 18:29:29.403076900,9.830076904296876,0.1696365028619766,0.0097885187715291,-0.3432610929012298
2024-12-07 18:29:29.413051000,9.84005078125,0.124572105705738,-0.0148971192538738,-0.3181858360767364
2024-12-07 18:29:29.423025000,9.85002490234375,0.058430977165699,-0.0849140658974647,-0.2719916105270386
2024-12-07 18:29:29.432998000,9.859997802734377,0.002542145550251,-0.1609086990356445,-0.2367638647556305
2024-12-07 18:29:29.442972000,9.869971923828125,-0.044233065098524,-0.2310147434473037,-0.2198997735977172
2024-12-07 18:29:29.452946000,9.87994580078125,-0.084237203001976,-0.2718535363674164,-0.2183365076780319
2024-12-07 18:29:29.462920000,9.889919921875,-0.1137800365686416,-0.2793336808681488,-0.2388394325971603
2024-12-07 18:29:29.472894000,9.89989404296875,-0.1210648491978645,-0.2572523355484009,-0.2766310274600982
2024-12-07 18:29:29.482867700,9.90986767578125,-0.1474391520023346,-0.2586617767810821,-0.2835832238197326
2024-12-07 18:29:29.492840700,9.9198408203125,-0.1650373190641403,-0.2624852955341339,-0.2800665199756622
2024-12-07 18:29:29.502814700,9.929814697265623,-0.1605029255151748,-0.2758490145206451,-0.2734691500663757
2024-12-07 18:29:29.512788700,9.939788818359377,-0.143752172589302,-0.3053842484951019,-0.286115437746048
2024-12-07 18:29:29.522762800,9.9497626953125,-0.1233119070529937,-0.3307640254497528,-0.3299612402915954
2024-12-07 18:29:29.532736800,9.95973681640625,-0.0960094481706619,-0.3143320381641388,-0.3883020579814911
2024-12-07 18:29:29.542710800,9.969710693359374,-0.0536744222044944,-0.2646848857402801,-0.4607360064983368
2024-12-07 18:29:29.552683800,9.979683837890626,-0.0674275234341621,-0.2491660863161087,-0.4594981670379638
2024-12-07 18:29:29.562657800,9.98965771484375,-0.0827845707535743,-0.1999509632587433,-0.4336675107479095
2024-12-07 18:29:29.572631800,9.9996318359375,-0.0642604231834411,-0.1350236386060714,-0.409160315990448
2024-12-07 18:29:29.582605800,10.009605712890624,-0.0449830442667007,-0.0962532982230186,-0.3961462676525116
2024-12-07 18:29:29.592579800,10.019579833984375,-0.0897997841238975,-0.1053932681679725,-0.348673552274704
2024-12-07 18:29:29.602553900,10.029553955078123,-0.1221822649240493,-0.1266981661319732,-0.299019992351532
2024-12-07 18:29:29.612526800,10.03952685546875,-0.1379734873771667,-0.1592901945114135,-0.243449404835701
2024-12-07 18:29:29.622500900,10.0495009765625,-0.1589363068342209,-0.1658096313476562,-0.1809545308351516
2024-12-07 18:29:29.632475000,10.059474853515624,-0.1850999891757965,-0.1191771551966667,-0.125804990530014
2024-12-07 18:29:29.642449000,10.069448974609376,-0.204135000705719,-0.0232375338673591,-0.1100801825523376
2024-12-07 18:29:29.652423000,10.0794228515625,-0.2299884408712387,0.0783705785870552,-0.1143164709210395
2024-12-07 18:29:29.662397000,10.08939697265625,-0.2380876988172531,0.1543890237808227,-0.1140695437788963
2024-12-07 18:29:29.672369700,10.09936962890625,-0.2584103047847748,0.2146270722150802,-0.0923378840088844
2024-12-07 18:29:29.682343700,10.10934375,-0.27459517121315,0.264930784702301,-0.0627417936921119
2024-12-07 18:29:29.692317700,10.119317626953125,-0.2742454707622528,0.3109305202960968,-0.0463455095887184
2024-12-07 18:29:29.702291700,10.129291748046874,-0.2688149213790893,0.3549359142780304,-0.0643985122442245
2024-12-07 18:29:29.712265700,10.139265625,-0.2699214518070221,0.3932105898857116,-0.113443024456501
2024-12-07 18:29:29.722239700,10.14923974609375,-0.2687891721725464,0.3863558769226074,-0.1609296053647995
2024-12-07 18:29:29.732212700,10.159212646484375,-0.2483483403921127,0.3411361873149872,-0.2105802595615387
2024-12-07 18:29:29.742186800,10.169186767578124,-0.2450192123651504,0.26570725440979,-0.2410060912370681
2024-12-07 18:29:29.752160800,10.179160888671875,-0.2637276649475097,0.1712787300348281,-0.2037476599216461
2024-12-07 18:29:29.762134800,10.189134765625,-0.2423111051321029,0.1376740038394928,-0.1764901429414749
2024-12-07 18:29:29.772108800,10.19910888671875,-0.1964823603630066,0.1607295274734497,-0.1959464102983474
2024-12-07 18:29:29.782082800,10.209082763671876,-0.1844048798084259,0.1606684476137161,-0.1891969293355941
2024-12-07 18:29:29.792055800,10.219055908203124,-0.176677718758583,0.1972203254699707,-0.2018599957227707
2024-12-07 18:29:29.802029800,10.22902978515625,-0.1344852149486541,0.2794591188430786,-0.2427511811256408
2024-12-07 18:29:29.812003800,10.23900390625,-0.1065172329545021,0.286078929901123,-0.2262736707925796
2024-12-07 18:29:29.821977900,10.248977783203124,-0.0901017114520073,0.2833080589771271,-0.1838152110576629
2024-12-07 18:29:29.831952000,10.258951904296875,-0.0359002612531185,0.2873371541500091,-0.1518722027540207
2024-12-07 18:29:29.841926000,10.26892578125,0.0321173183619976,0.2844370007514953,-0.1321863979101181
2024-12-07 18:29:29.851899000,10.27889892578125,0.1094746887683868,0.2181272059679031,-0.0974403992295265
2024-12-07 18:29:29.861873000,10.288872802734376,0.18193019926548,0.144270434975624,-0.0569350607693195
2024-12-07 18:29:29.871847000,10.298846923828124,0.2488543838262558,0.1135047897696495,-0.0360955595970153
2024-12-07 18:29:29.881821000,10.308821044921874,0.2831884026527405,-0.0050673289224505,0.0446449741721153
2024-12-07 18:29:29.891795000,10.318794921875,0.2835133075714111,-0.120824821293354,0.158096432685852
2024-12-07 18:29:29.901769000,10.32876904296875,0.3173604905605316,-0.1586225628852844,0.2243085354566574
2024-12-07 18:29:29.911741700,10.33874169921875,0.3418975174427032,-0.2098625749349594,0.2811406552791595
2024-12-07 18:29:29.921715700,10.3487158203125,0.3485139608383178,-0.2730690836906433,0.3597192466259002
2024-12-07 18:29:29.931689700,10.358689697265625,0.379740834236145,-0.3348338901996612,0.4209575653076172
2024-12-07 18:29:29.941663700,10.368663818359376,0.4406426250934601,-0.3772799074649811,0.4391307830810547
2024-12-07 18:29:29.951637800,10.3786376953125,0.46131432056427,-0.3918098509311676,0.4349501729011535
2024-12-07 18:29:29.961611800,10.38861181640625,0.4345376789569855,-0.3900063335895538,0.4504429996013641
2024-12-07 18:29:29.971584800,10.398584716796876,0.333558052778244,-0.3728212118148803,0.5390032529830933
2024-12-07 18:29:29.981558800,10.408558837890626,0.2695514261722564,-0.3406008183956146,0.680831789970398
2024-12-07 18:29:29.991532800,10.41853271484375,0.2603451311588287,-0.2956245541572571,0.8369745016098022
2024-12-07 18:29:30.001506800,10.4285068359375,0.2587052583694458,-0.2266795933246612,0.9788381457328796
2024-12-07 18:29:30.011480800,10.438480712890623,0.2503860592842102,-0.1180844083428382,1.1074895858764648
2024-12-07 18:29:30.021454800,10.448454833984377,0.2531953454017639,0.0649111866950988,1.227145791053772
2024-12-07 18:29:30.031427800,10.458427734375,0.2873716950416565,0.3406612873077392,1.3353838920593262
2024-12-07 18:29:30.041401900,10.46840185546875,0.3611910939216614,0.6358338594436646,1.4258025884628296
2024-12-07 18:29:30.051375900,10.4783759765625,0.4675334990024566,0.9087953567504884,1.4752763509750366
2024-12-07 18:29:30.061350000,10.488349853515626,0.5879560112953186,1.173749566078186,1.5087405443191528
2024-12-07 18:29:30.071324000,10.498323974609375,0.6815911531448364,1.3771618604660034,1.544684648513794
2024-12-07 18:29:30.081298000,10.5082978515625,0.723810076713562,1.4818542003631592,1.5809731483459473
2024-12-07 18:29:30.091271000,10.51827099609375,0.7189626097679138,1.3967572450637815,1.6175540685653689
2024-12-07 18:29:30.101245000,10.528244873046877,0.6546263694763184,1.228809475898743,1.593269109725952
2024-12-07 18:29:30.111219000,10.538218994140625,0.6059816479682922,1.0844032764434814,1.488701105117798
2024-12-07 18:29:30.121193000,10.54819287109375,0.6034972071647644,1.0614567995071411,1.3360273838043213
2024-12-07 18:29:30.131167000,10.5581669921875,0.6014822721481323,1.179637789726257,1.1670423746109009
2024-12-07 18:29:30.141141000,10.56814111328125,0.5761375427246094,1.3550399541854858,1.016238570213318
2024-12-07 18:29:30.151113700,10.57811376953125,0.5261809229850769,1.5536693334579468,0.9176121354103088
2024-12-07 18:29:30.161087700,10.588087646484375,0.4877322912216186,1.7103191614151,0.8370987176895142
2024-12-07 18:29:30.171061800,10.598061767578123,0.4779949784278869,1.782037377357483,0.7566366195678711
2024-12-07 18:29:30.181036000,10.6080361328125,0.4693373739719391,1.7662984132766724,0.6602398753166199
2024-12-07 18:29:30.191010000,10.618010009765625,0.4472744166851043,1.6597400903701782,0.5667346715927124
2024-12-07 18:29:30.200984000,10.627984130859376,0.4051348268985748,1.5110375881195068,0.5005084276199341
2024-12-07 18:29:30.210956800,10.637956787109376,0.3808484077453613,1.3742024898529053,0.4423743188381195
2024-12-07 18:29:30.220930800,10.647930908203126,0.3986417949199676,1.2815804481506348,0.3786566257476806
2024-12-07 18:29:30.230904800,10.65790478515625,0.444713145494461,1.2141523361206057,0.2880894243717193
2024-12-07 18:29:30.240878800,10.66787890625,0.4891057908535003,1.0179846286773682,0.1910988837480545
2024-12-07 18:29:30.250852900,10.677852783203123,0.4792936444282532,0.7249426245689392,0.0876673012971878
2024-12-07 18:29:30.260827000,10.687826904296877,0.4488066136837005,0.4436589479446411,-0.0274947471916675
2024-12-07 18:29:30.270800000,10.6977998046875,0.4186665713787079,0.1669940650463104,-0.1676720976829528
2024-12-07 18:29:30.280774000,10.70777392578125,0.3962098062038421,-0.1126186624169349,-0.297690600156784
2024-12-07 18:29:30.290748000,10.717747802734374,0.3814857304096222,-0.3095165491104126,-0.3930666446685791
2024-12-07 18:29:30.300722000,10.727721923828126,0.3508238494396209,-0.4467639923095703,-0.4484023749828338
2024-12-07 18:29:30.310696000,10.737696044921876,0.2825473248958587,-0.5288535952568054,-0.4950670897960663
2024-12-07 18:29:30.320670000,10.747669921875,0.1863862723112106,-0.568390429019928,-0.5427331328392029
2024-12-07 18:29:30.330643000,10.757642822265623,0.0908562913537025,-0.549326479434967,-0.5842355489730835
2024-12-07 18:29:30.340617000,10.767616943359377,0.0025252704508602,-0.5256731510162354,-0.6011896729469299
2024-12-07 18:29:30.350591000,10.777591064453125,-0.1002817973494529,-0.4809804558753967,-0.5914057493209839
2024-12-07 18:29:30.360565000,10.78756494140625,-0.2306312620639801,-0.4252380430698395,-0.5638951659202576
2024-12-07 18:29:30.370539000,10.7975390625,-0.3395841121673584,-0.3512898087501526,-0.5259469747543335
2024-12-07 18:29:30.380513000,10.807512939453124,-0.4060791730880737,-0.2850288152694702,-0.5049862265586853
2024-12-07 18:29:30.390486000,10.817486083984376,-0.4655603468418121,-0.2345587164163589,-0.5421082377433777
2024-12-07 18:29:30.400460000,10.8274599609375,-0.5287929773330688,-0.1827563196420669,-0.5815213322639465
2024-12-07 18:29:30.410434000,10.83743408203125,-0.5958396196365356,-0.2303488701581955,-0.5503695011138916
2024-12-07 18:29:30.420408000,10.847407958984377,-0.6453330516815186,-0.2672439813613891,-0.4845951795578003
2024-12-07 18:29:30.430382000,10.857382080078125,-0.6835699081420898,-0.1927095353603363,-0.4175146818161011
2024-12-07 18:29:30.440356000,10.867356201171877,-0.7181753516197205,-0.1094134151935577,-0.3049943149089813
2024-12-07 18:29:30.450328800,10.877328857421874,-0.7447717785835266,-0.1586091816425323,-0.1316214799880981
2024-12-07 18:29:30.460302800,10.887302734375,-0.7499312162399292,-0.2436467111110687,-0.0060896454378962
2024-12-07 18:29:30.470276900,10.89727685546875,-0.7172579169273376,-0.3148047924041748,0.03349344804883
2024-12-07 18:29:30.480251000,10.9072509765625,-0.6273530721664429,-0.4146521091461181,-0.0005998944398015
2024-12-07 18:29:30.490225000,10.917224853515624,-0.4796491265296936,-0.517262876033783,-0.1134177893400192
2024-12-07 18:29:30.500199000,10.927198974609375,-0.3017966747283935,-0.4963955283164978,-0.2407164424657821
2024-12-07 18:29:30.510172000,10.937171875,-0.1095662489533424,-0.3745020925998688,-0.3285557329654693
2024-12-07 18:29:30.520146000,10.94714599609375,0.0668791308999061,-0.2092685550451278,-0.3631123900413513
2024-12-07 18:29:30.530120000,10.957119873046874,0.1790666580200195,-0.0299991928040981,-0.3661641180515289
2024-12-07 18:29:30.540094000,10.967093994140624,0.226734772324562,0.1044561639428138,-0.368699848651886
2024-12-07 18:29:30.550068000,10.97706787109375,0.2267374396324157,0.2323496788740158,-0.3851419389247894
2024-12-07 18:29:30.560042000,10.9870419921875,0.2191513031721115,0.4056095480918884,-0.4306716918945312
2024-12-07 18:29:30.570015000,10.997014892578123,0.2211782336235046,0.5923162698745728,-0.4675002694129944
2024-12-07 18:29:30.579989000,11.006989013671877,0.1994463205337524,0.716759979724884,-0.4471963942050934
2024-12-07 18:29:30.589963000,11.016962890625,0.1354953050613403,0.6959457397460938,-0.3540259897708893
2024-12-07 18:29:30.599937000,11.02693701171875,0.0431796461343765,0.4471364617347717,-0.2157034128904342
2024-12-07 18:29:30.609911000,11.0369111328125,-0.0676960051059722,-0.0619329214096069,-0.0671770721673965
2024-12-07 18:29:30.619885000,11.046885009765624,-0.1823624819517135,-0.7496074438095093,0.0528379864990711
2024-12-07 18:29:30.629858000,11.056858154296876,-0.2868201732635498,-1.401148557662964,0.115401767194271
2024-12-07 18:29:30.639832000,11.06683203125,-0.3862265944480896,-1.7807326316833496,0.1140765324234962
2024-12-07 18:29:30.649806000,11.07680615234375,-0.5214723348617554,-1.838145852088928,0.0251668989658355
2024-12-07 18:29:30.659780000,11.086780029296875,-0.6172475814819336,-1.5754027366638184,-0.170620322227478
2024-12-07 18:29:30.669754000,11.096754150390623,-0.5767624974250793,-0.9794959425926208,-0.3452097177505493
2024-12-07 18:29:30.679726800,11.106726806640625,-0.4243484437465668,-0.2490406632423401,-0.3470861613750458
2024-12-07 18:29:30.689700900,11.116700927734374,-0.2306578010320663,0.2787475287914276,-0.1399428397417068
2024-12-07 18:29:30.699675000,11.1266748046875,-0.0489150620996952,0.3805059194564819,0.1492374539375305
2024-12-07 18:29:30.709649000,11.13664892578125,0.048363022506237,0.1410083621740341,0.3725935816764831
2024-12-07 18:29:30.719623000,11.146622802734376,0.0210308916866779,-0.1872771233320236,0.4623211324214935
2024-12-07 18:29:30.729597000,11.156596923828126,-0.0377437397837638,-0.4774469137191772,0.4091085195541382
2024-12-07 18:29:30.739570000,11.16656982421875,-0.0817799493670463,-0.762793779373169,0.2369668185710907
2024-12-07 18:29:30.749544000,11.1765439453125,-0.1166026443243026,-1.0371321439743042,-0.026572672650218
2024-12-07 18:29:30.759518000,11.18651806640625,-0.1718326210975647,-1.2876754999160769,-0.3062402307987213
2024-12-07 18:29:30.769492000,11.196491943359376,-0.2505457997322082,-1.4400501251220703,-0.4965142905712127
2024-12-07 18:29:30.779466000,11.206466064453124,-0.3331121504306793,-1.4283297061920166,-0.5732203125953674
2024-12-07 18:29:30.789440000,11.21643994140625,-0.4096601903438568,-1.2505488395690918,-0.5493567585945129
2024-12-07 18:29:30.799413000,11.2264130859375,-0.4496781527996063,-0.9480651617050172,-0.4967013001441955
2024-12-07 18:29:30.809387000,11.236386962890624,-0.4278844594955444,-0.5975513458251953,-0.4573744237422943
2024-12-07 18:29:30.819361000,11.246361083984375,-0.3624719381332397,-0.2783875167369842,-0.4425334930419922
2024-12-07 18:29:30.829335000,11.2563349609375,-0.3101746439933777,-0.0303191468119621,-0.438213586807251
2024-12-07 18:29:30.839309000,11.26630908203125,-0.2938674092292785,0.1125845983624458,-0.4239307641983032
2024-12-07 18:29:30.849283000,11.276282958984376,-0.2834304869174957,0.1159697398543357,-0.3853311836719513
2024-12-07 18:29:30.859256000,11.286256103515624,-0.2581828236579895,0.0200483258813619,-0.3348270654678345
2024-12-07 18:29:30.869230000,11.29622998046875,-0.2288499772548675,-0.11265779286623,-0.2895879447460174
2024-12-07 18:29:30.879204000,11.3062041015625,-0.2019192427396774,-0.2236380130052566,-0.2660359740257263
2024-12-07 18:29:30.889178000,11.31617822265625,-0.1787231117486953,-0.322492390871048,-0.2695342898368835
2024-12-07 18:29:30.899152000,11.32615185546875,-0.1450713723897934,-0.4367021918296814,-0.3057639598846435
2024-12-07 18:29:30.909126000,11.3361259765625,-0.0952649340033531,-0.5616880655288696,-0.3627111315727234
2024-12-07 18:29:30.919099000,11.346098876953125,-0.0436698384582996,-0.6470687389373779,-0.4155487418174743
2024-12-07 18:29:30.929073000,11.356072998046876,-0.0102098817005753,-0.7117518782615662,-0.4457686841487884
