time,seconds_elapsed,z,y,x
2024-12-07 18:07:08.423518700,0.015518798828125,0.004727984778583,-0.0262661818414926,-0.0365131124854087
2024-12-07 18:07:08.433492700,0.02549267578125,0.0021034392993897,-0.0210016444325447,-0.0442972667515277
2024-12-07 18:07:08.443466800,0.035466796875,-0.0087270913645625,-0.016307258978486,-0.0489554665982723
2024-12-07 18:07:08.453440800,0.045440673828125,-0.0213563330471515,-0.0020875777117908,-0.0472806021571159
2024-12-07 18:07:08.463414800,0.055414794921875,-0.0283062886446714,0.0169577728956937,-0.0488740131258964
2024-12-07 18:07:08.473388500,0.065388427734375,-0.0318136699497699,0.0278514344245195,-0.0529505126178264
2024-12-07 18:07:08.483362600,0.075362548828125,-0.0392888560891151,0.0457256324589252,-0.0520112104713916
2024-12-07 18:07:08.493336600,0.085336669921875,-0.0728662610054016,0.0750427693128585,-0.0460918024182319
2024-12-07 18:07:08.503310300,0.095310302734375,-0.1422681361436844,0.0605389848351478,-0.0657175406813621
2024-12-07 18:07:08.513284400,0.105284423828125,-0.1348637491464615,0.0148489950224757,-0.0525724403560161
2024-12-07 18:07:08.523258400,0.11525830078125,-0.1086417883634567,-0.0085585163906216,-0.0404155291616916
2024-12-07 18:07:08.533232400,0.125232421875,-0.0644881799817085,-0.0170164499431848,-0.0342713482677936
2024-12-07 18:07:08.543206400,0.135206298828125,-0.0765346065163612,-0.0095200967043638,-0.0352667421102523
2024-12-07 18:07:08.553180400,0.145180419921875,-0.1215295121073722,-0.001848328160122,-0.044053841382265
2024-12-07 18:07:08.563154400,0.155154541015625,-0.2320315837860107,0.0332181528210639,-0.0830187648534774
2024-12-07 18:07:08.573128400,0.16512841796875,-0.2633295953273773,0.0581256337463855,-0.095538280904293
2024-12-07 18:07:08.583102500,0.1751025390625,-0.2651541531085968,0.0819978043437004,-0.107029840350151
2024-12-07 18:07:08.593076500,0.185076416015625,-0.263870507478714,0.0862554013729095,-0.1320012360811233
2024-12-07 18:07:08.603050500,0.195050537109375,-0.2837960422039032,0.091416023671627,-0.1475907117128372
2024-12-07 18:07:08.613024500,0.2050244140625,-0.3001891076564789,0.0899704545736312,-0.1397953778505325
2024-12-07 18:07:08.622998500,0.21499853515625,-0.3114347457885742,0.0596200302243232,-0.1105528473854065
2024-12-07 18:07:08.632972500,0.22497265625,-0.3430600762367248,0.0677719712257385,-0.0871159583330154
2024-12-07 18:07:08.642946600,0.234946533203125,-0.3780435621738434,0.0968646928668022,-0.0855257138609886
2024-12-07 18:07:08.652920600,0.244920654296875,-0.399216741323471,0.1290050595998764,-0.1075601801276207
2024-12-07 18:07:08.662894600,0.25489453125,-0.4005332887172699,0.1039554849267005,-0.1124238818883895
2024-12-07 18:07:08.672868600,0.26486865234375,-0.3929712474346161,0.0576076880097389,-0.111463539302349
2024-12-07 18:07:08.682842400,0.27484228515625,-0.3860715925693512,0.021838380023837,-0.0949277132749557
2024-12-07 18:07:08.692816400,0.28481640625,-0.36019366979599,0.0155972614884376,-0.0828185901045799
2024-12-07 18:07:08.702790400,0.294790283203125,-0.3318997323513031,0.0235379468649625,-0.0748438909649849
2024-12-07 18:07:08.712764400,0.304764404296875,-0.2940996289253235,0.0198995377868413,-0.0708859041333198
2024-12-07 18:07:08.722738400,0.314738525390625,-0.2251275330781936,0.0942465439438819,-0.0892591997981071
2024-12-07 18:07:08.732712400,0.32471240234375,-0.2329921126365661,0.0360114648938179,-0.0650563910603523
2024-12-07 18:07:08.742686500,0.3346865234375,-0.2267374694347381,0.0344557538628578,-0.0352126918733119
2024-12-07 18:07:08.752660500,0.344660400390625,-0.2215259224176406,0.1039373576641082,-0.0501218661665916
2024-12-07 18:07:08.762634500,0.354634521484375,-0.271627277135849,0.075312353670597,-0.0692622289061546
2024-12-07 18:07:08.772608500,0.3646083984375,-0.2995918095111847,0.0310572739690542,-0.0764799267053604
2024-12-07 18:07:08.782582500,0.37458251953125,-0.3132645487785339,0.0320420637726783,-0.0914603695273399
2024-12-07 18:07:08.792556500,0.384556640625,-0.3363059759140014,-0.0083690099418163,-0.0874541774392128
2024-12-07 18:07:08.802530600,0.394530517578125,-0.316905528306961,-0.0831640437245369,-0.0890594944357872
2024-12-07 18:07:08.812504600,0.404504638671875,-0.5073422789573669,0.0159273855388164,-0.2206180542707443
2024-12-07 18:07:08.822478600,0.414478515625,-0.8192681670188904,0.1051056236028671,-0.3337997794151306
2024-12-07 18:07:08.832452600,0.42445263671875,-1.0694025754928589,0.2272693514823913,-0.3815606534481048
2024-12-07 18:07:08.842426600,0.434426513671875,-1.2835853099822998,0.2958711683750152,-0.34031543135643
2024-12-07 18:07:08.852400600,0.444400634765625,-1.4733526706695557,0.3515994250774383,-0.2517586946487427
2024-12-07 18:07:08.862374700,0.454374755859375,-1.6104007959365845,0.2994992434978485,-0.2096246778964996
2024-12-07 18:07:08.872348700,0.4643486328125,-1.664093852043152,0.2350723296403885,-0.2352892905473709
2024-12-07 18:07:08.882322400,0.474322509765625,-1.6811461448669434,0.2466149479150772,-0.2418275028467178
2024-12-07 18:07:08.892295700,0.484295654296875,-1.5746045112609863,0.2194576412439346,-0.2634297311306
2024-12-07 18:07:08.902269700,0.494269775390625,-1.388654708862305,0.1155858412384986,-0.3045708239078522
2024-12-07 18:07:08.912243700,0.50424365234375,-1.3010835647583008,0.0473098456859588,-0.2812119722366333
2024-12-07 18:07:08.922217700,0.5142177734375,-1.2535858154296875,0.0564478524029254,-0.209256887435913
2024-12-07 18:07:08.932191500,0.52419140625,-1.1753333806991575,0.0825612172484397,-0.1401425302028656
2024-12-07 18:07:08.942165500,0.53416552734375,-1.0799603462219238,0.0887119248509407,-0.104629285633564
2024-12-07 18:07:08.952139500,0.544139404296875,-0.8869794607162476,0.1103261411190033,-0.1228612884879112
2024-12-07 18:07:08.962113500,0.554113525390625,-0.7514352798461914,0.0567078962922096,-0.1881435662508011
2024-12-07 18:07:08.972087600,0.564087646484375,-0.6615414023399353,-0.0007873550057411,-0.2335600554943084
2024-12-07 18:07:08.982061600,0.5740615234375,-0.6182023882865906,0.0019617893267422,-0.2209491282701492
2024-12-07 18:07:08.992035600,0.58403564453125,-0.6078528165817261,0.0113595519214868,-0.1729365885257721
2024-12-07 18:07:09.002009600,0.594009521484375,-0.6308066844940186,-0.0003538497257977,-0.1234153360128402
2024-12-07 18:07:09.011983600,0.603983642578125,-0.6602393984794617,0.0085805235430598,-0.0763261243700981
2024-12-07 18:07:09.021957600,0.61395751953125,-0.662236213684082,0.0168645419180393,-0.0580927692353725
2024-12-07 18:07:09.031931600,0.623931640625,-0.6193731427192688,0.0239592026919126,-0.058089043945074
2024-12-07 18:07:09.041905700,0.63390576171875,-0.5280881524085999,0.0274653434753417,-0.0709930285811424
2024-12-07 18:07:09.051879700,0.643879638671875,-0.3982683420181274,-0.0103941559791564,-0.0872859805822372
2024-12-07 18:07:09.061853700,0.653853759765625,-0.2761906385421753,-0.1020606905221939,-0.0970070511102676
2024-12-07 18:07:09.071827700,0.66382763671875,-0.1975570768117904,-0.2068688571453094,-0.0960927903652191
2024-12-07 18:07:09.081801700,0.6738017578125,-0.0850227698683738,-0.2624406516551971,-0.0818350091576576
2024-12-07 18:07:09.091775700,0.683775634765625,0.0055255042389035,-0.2363584637641906,-0.0707701072096824
2024-12-07 18:07:09.101749800,0.693749755859375,0.0143500156700611,-0.1600292026996612,-0.0593416541814804
2024-12-07 18:07:09.111723800,0.703723876953125,-0.005889210384339,-0.0896996557712555,-0.0325422659516334
2024-12-07 18:07:09.121697800,0.71369775390625,-0.0456291101872921,-0.0601953975856304,-0.0269289072602987
2024-12-07 18:07:09.131671600,0.723671630859375,-0.1183978542685508,-0.0523151010274887,-0.0638041049242019
2024-12-07 18:07:09.141645600,0.7336455078125,-0.1313364803791046,-0.0313954800367355,-0.1083866655826568
2024-12-07 18:07:09.151619600,0.74361962890625,-0.1270839422941208,-0.0219708196818828,-0.1791993081569671
2024-12-07 18:07:09.161593600,0.753593505859375,-0.210460677742958,-0.06073734536767,-0.2462519407272339
2024-12-07 18:07:09.171567600,0.763567626953125,-0.370376318693161,-0.1032366082072258,-0.3014371693134308
2024-12-07 18:07:09.181541400,0.773541259765625,-0.534722089767456,-0.1386373490095138,-0.3195788860321045
2024-12-07 18:07:09.191515400,0.783515380859375,-0.6189669370651245,-0.1746044009923935,-0.2862142622470855
2024-12-07 18:07:09.201489400,0.793489501953125,-0.6285957098007202,-0.1798523664474487,-0.2302022278308868
2024-12-07 18:07:09.211463400,0.80346337890625,-0.6186988949775696,-0.137145921587944,-0.1943470239639282
2024-12-07 18:07:09.221437400,0.8134375,-0.6125803589820862,-0.0522975660860538,-0.1693783700466156
2024-12-07 18:07:09.231411500,0.823411376953125,-0.6209368109703064,0.0972738191485405,-0.129504457116127
2024-12-07 18:07:09.241385500,0.833385498046875,-0.6222776770591736,0.3189401030540466,-0.0565761104226112
2024-12-07 18:07:09.251359500,0.843359375,-0.5890456438064575,0.5361339449882507,0.0218513179570436
2024-12-07 18:07:09.261333500,0.85333349609375,-0.5171748399734497,0.6058993935585022,0.0625920370221138
2024-12-07 18:07:09.271307500,0.8633076171875,-0.4682486057281494,0.5299004912376404,0.0441890656948089
2024-12-07 18:07:09.281281500,0.873281494140625,-0.4632834196090698,0.3966651558876037,-0.0130949988961219
2024-12-07 18:07:09.291255600,0.883255615234375,-0.4838190376758575,0.3003830909729004,-0.0753682255744934
2024-12-07 18:07:09.301229600,0.8932294921875,-0.4929432570934295,0.2619317471981048,-0.1035447865724563
2024-12-07 18:07:09.311203600,0.90320361328125,-0.5349586009979248,0.2768401205539703,-0.1113036423921585
2024-12-07 18:07:09.321177600,0.913177490234375,-0.6039709448814392,0.2716395258903503,-0.095021404325962
2024-12-07 18:07:09.331151400,0.9231513671875,-0.700520396232605,0.269163578748703,-0.0954110249876976
2024-12-07 18:07:09.341125400,0.93312548828125,-0.7721892595291138,0.2473296374082565,-0.1104674115777015
2024-12-07 18:07:09.351099400,0.943099365234375,-0.7853386402130127,0.1851909011602401,-0.1063877120614051
2024-12-07 18:07:09.361073400,0.953073486328125,-0.769538402557373,0.1087219640612602,-0.1079627275466919
2024-12-07 18:07:09.371047400,0.96304736328125,-0.7462123036384583,0.0319539494812488,-0.1332076340913772
2024-12-07 18:07:09.381021400,0.973021484375,-0.7052266001701355,-0.0498294569551944,-0.1577803641557693
2024-12-07 18:07:09.390995500,0.982995361328125,-0.6676669716835022,-0.1219963282346725,-0.1593862473964691
2024-12-07 18:07:09.400969500,0.992969482421875,-0.6336292028427124,-0.1451413184404373,-0.1226138770580291
2024-12-07 18:07:09.410943500,1.002943603515625,-0.6085334420204163,-0.1107071712613105,-0.0668435618281364
2024-12-07 18:07:09.420916700,1.012916748046875,-0.5999117493629456,-0.0767688751220703,-0.0213203635066747
2024-12-07 18:07:09.430890800,1.022890869140625,-0.5652192831039429,-0.1599601656198501,-0.0197277944535017
2024-12-07 18:07:09.440864800,1.03286474609375,-0.5544527173042297,-0.3181408643722534,-0.0680956616997718
2024-12-07 18:07:09.450838800,1.0428388671875,-0.5129998326301575,-0.5656179785728455,-0.1625193655490875
2024-12-07 18:07:09.460812800,1.052812744140625,-0.4520421624183655,-0.7352631688117981,-0.2112519443035125
2024-12-07 18:07:09.470786800,1.062786865234375,-0.4061748087406158,-0.6832172870635986,-0.1749738454818725
2024-12-07 18:07:09.480760800,1.0727607421875,-0.3493183851242065,-0.5199737548828125,-0.0890788808465004
2024-12-07 18:07:09.490734800,1.08273486328125,-0.3013686835765838,-0.2962511777877807,-0.0090839173644781
2024-12-07 18:07:09.500708900,1.092708984375,-0.2977052628993988,-0.0712200179696083,0.0282226372510194
2024-12-07 18:07:09.510683000,1.102682861328125,-0.3165255784988403,0.092365451157093,0.0170813016593456
2024-12-07 18:07:09.520657000,1.112656982421875,-0.338430643081665,0.1414974182844162,-0.0023549292236566
2024-12-07 18:07:09.530631000,1.122630859375,-0.3710631430149078,0.1134940087795257,-0.041902869939804
2024-12-07 18:07:09.540605000,1.13260498046875,-0.4133112728595733,0.0456388592720031,-0.0775507390499115
2024-12-07 18:07:09.550579000,1.142578857421875,-0.4391162395477295,-0.010195642709732,-0.1062953025102615
2024-12-07 18:07:09.560553000,1.152552978515625,-0.4572959244251251,-0.0370345972478389,-0.131745770573616
2024-12-07 18:07:09.570526700,1.162526611328125,-0.4537144899368286,-0.0338803492486476,-0.1428146660327911
2024-12-07 18:07:09.580500700,1.172500732421875,-0.4247779846191406,-0.0058955438435077,-0.1249513328075409
2024-12-07 18:07:09.590474800,1.182474853515625,-0.392209380865097,0.0394583530724048,-0.0742929503321647
2024-12-07 18:07:09.600448500,1.192448486328125,-0.343755692243576,0.090497225522995,-0.0123316720128059
2024-12-07 18:07:09.610422500,1.202422607421875,-0.3135546445846557,0.1515571027994156,0.0480778776109218
2024-12-07 18:07:09.620396500,1.212396484375,-0.2933552861213684,0.1787478774785995,0.0783648863434791
2024-12-07 18:07:09.630370600,1.22237060546875,-0.2782317399978637,0.1484075486660003,0.0733472257852554
2024-12-07 18:07:09.640344600,1.232344482421875,-0.2772237956523895,0.0599861480295658,0.0556879192590713
2024-12-07 18:07:09.650318600,1.242318603515625,-0.3076938092708587,-0.0867361798882484,0.0398178771138191
2024-12-07 18:07:09.660292600,1.252292724609375,-0.2976619899272918,-0.2193094044923782,0.0251180306077003
2024-12-07 18:07:09.670266600,1.2622666015625,-0.3120592832565307,-0.3112944364547729,0.0071177240461111
2024-12-07 18:07:09.680240600,1.27224072265625,-0.3077723383903503,-0.3191151916980743,-0.0039919740520417
2024-12-07 18:07:09.690214700,1.282214599609375,-0.3340268433094024,-0.2865364849567413,-0.0081395814195275
2024-12-07 18:07:09.700188700,1.292188720703125,-0.3781532049179077,-0.2797350585460663,-0.0202055424451828
2024-12-07 18:07:09.710162700,1.30216259765625,-0.4482952952384949,-0.254318356513977,-0.0392042659223079
2024-12-07 18:07:09.720136700,1.31213671875,-0.5271059274673462,-0.2428943812847137,-0.0759584754705429
2024-12-07 18:07:09.730110700,1.32211083984375,-0.5923248529434204,-0.2154188156127929,-0.0968096926808357
2024-12-07 18:07:09.740084700,1.332084716796875,-0.605053722858429,-0.1842926889657974,-0.0902338922023773
2024-12-07 18:07:09.750058800,1.342058837890625,-0.6018853783607483,-0.1437404751777649,-0.0773050487041473
2024-12-07 18:07:09.760032800,1.35203271484375,-0.6021084785461426,-0.1394703537225723,-0.0905643701553344
2024-12-07 18:07:09.770006800,1.3620068359375,-0.6008578538894653,-0.1439106464385986,-0.1162489578127861
2024-12-07 18:07:09.779980500,1.37198046875,-0.5955677032470703,-0.152397021651268,-0.1418410092592239
2024-12-07 18:07:09.789954600,1.38195458984375,-0.6267847418785095,-0.1442999392747879,-0.1738048046827316
2024-12-07 18:07:09.799928600,1.391928466796875,-0.65781569480896,-0.1246265470981597,-0.1861321926116943
2024-12-07 18:07:09.809902600,1.401902587890625,-0.6601792573928833,-0.1022887602448463,-0.1740427613258361
2024-12-07 18:07:09.819876600,1.411876708984375,-0.6244049072265625,-0.0679423958063125,-0.1361787170171737
2024-12-07 18:07:09.829850600,1.4218505859375,-0.5611172914505005,-0.0471676029264926,-0.0880191624164581
2024-12-07 18:07:09.839824600,1.43182470703125,-0.463839590549469,-0.013606066815555,-0.0344102382659912
2024-12-07 18:07:09.849797600,1.441797607421875,-0.3303963243961334,0.0127373905852437,0.0062511716969311
2024-12-07 18:07:09.859771600,1.451771728515625,-0.1462792456150055,0.0436805300414562,0.0265335291624069
2024-12-07 18:07:09.869745700,1.46174560546875,0.0109700290486216,0.0677326098084449,0.0304353274405002
2024-12-07 18:07:09.879719700,1.4717197265625,0.1571885198354721,0.1588258594274521,0.0556704513728618
2024-12-07 18:07:09.889693700,1.481693603515625,0.2875015139579773,0.2653906643390655,0.1361090987920761
2024-12-07 18:07:09.899667700,1.491667724609375,0.4314649403095245,0.3180430233478546,0.2984691262245178
2024-12-07 18:07:09.909641700,1.501641845703125,0.5482823252677917,0.348910391330719,0.4632415771484375
2024-12-07 18:07:09.919615700,1.51161572265625,0.5111713409423828,0.3797001838684082,0.564123272895813
2024-12-07 18:07:09.929589800,1.52158984375,0.1379551738500595,0.6282721757888794,0.2114304900169372
2024-12-07 18:07:09.939563800,1.531563720703125,-0.0227481685578823,0.459390640258789,0.02945770137012
2024-12-07 18:07:09.949537800,1.541537841796875,0.0593930408358573,0.1298399120569229,0.0083228554576635
2024-12-07 18:07:09.959511800,1.55151171875,0.1731936782598495,-0.0960471555590629,0.090323731303215
2024-12-07 18:07:09.969485800,1.56148583984375,0.2287802398204803,-0.122564248740673,0.2105249762535095
2024-12-07 18:07:09.979459800,1.5714599609375,0.2243346571922302,0.0003665625117719,0.325086772441864
2024-12-07 18:07:09.989433900,1.581433837890625,0.2203910499811172,0.1469413638114929,0.4170888662338257
2024-12-07 18:07:09.999407900,1.591407958984375,0.238789677619934,0.2765411734580993,0.4789090752601623
2024-12-07 18:07:10.009382000,1.6013818359375,0.2582525908946991,0.3612318336963653,0.5077516436576843
2024-12-07 18:07:10.019355600,1.611355712890625,0.2813808619976043,0.3944801688194275,0.5155086517333984
2024-12-07 18:07:10.029329700,1.62132958984375,0.3078393638134002,0.3802581131458282,0.5005709528923035
2024-12-07 18:07:10.039303700,1.6313037109375,0.3403134644031524,0.3382827937602997,0.4771996736526489
2024-12-07 18:07:10.049277700,1.641277587890625,0.392427533864975,0.2888073623180389,0.4669957756996155
2024-12-07 18:07:10.059251700,1.651251708984375,0.479703426361084,0.2560208141803741,0.4835153222084045
2024-12-07 18:07:10.069225700,1.661225830078125,0.5992471575737,0.296561062335968,0.5319532155990601
2024-12-07 18:07:10.079199700,1.67119970703125,0.6818544268608093,0.3866412043571472,0.5777149200439453
2024-12-07 18:07:10.089173800,1.681173828125,0.7205712199211121,0.4985176920890808,0.5993565917015076
2024-12-07 18:07:10.099147800,1.691147705078125,0.7157273292541504,0.5743845105171204,0.5664569139480591
2024-12-07 18:07:10.109121800,1.701121826171875,0.6779226660728455,0.599518895149231,0.4678366184234619
2024-12-07 18:07:10.119095800,1.711095703125,0.6421873569488525,0.5993029475212097,0.3561851382255554
2024-12-07 18:07:10.129069800,1.72106982421875,0.5992284417152405,0.5664640069007874,0.2505484521389007
2024-12-07 18:07:10.139043800,1.7310439453125,0.5714804530143738,0.4992090165615082,0.1938301622867584
2024-12-07 18:07:10.149017900,1.741017822265625,0.5338432788848877,0.4126093983650207,0.1763829886913299
2024-12-07 18:07:10.158992000,1.750991943359375,0.4956730902194977,0.255749762058258,0.1710716187953949
2024-12-07 18:07:10.168966000,1.7609658203125,0.4719528555870056,0.0826250985264778,0.1668331921100616
2024-12-07 18:07:10.178940000,1.77093994140625,0.4566532373428345,-0.0793976932764053,0.1874256730079651
2024-12-07 18:07:10.188914000,1.780913818359375,0.3984738290309906,-0.2083684504032135,0.1896086633205413
2024-12-07 18:07:10.198888000,1.790887939453125,0.3411891162395477,-0.3094956874847412,0.1510353535413742
2024-12-07 18:07:10.208862000,1.800862060546875,0.3052462935447693,-0.3997963070869446,0.1048992797732353
2024-12-07 18:07:10.218835700,1.810835693359375,0.300873339176178,-0.4133822619915008,0.0343565940856933
2024-12-07 18:07:10.228809700,1.820809814453125,0.3066082000732422,-0.4334947168827057,-0.0214169193059206
2024-12-07 18:07:10.238783700,1.83078369140625,0.3123375177383423,-0.3652211427688598,-0.0860125422477722
2024-12-07 18:07:10.248757800,1.8407578125,0.3019684851169586,-0.2621067762374878,-0.1634644567966461
2024-12-07 18:07:10.258730800,1.850730712890625,0.2928094267845154,-0.1800255924463272,-0.2406354695558548
2024-12-07 18:07:10.268704800,1.860704833984375,0.2804603278636932,-0.1485398411750793,-0.3025976121425628
2024-12-07 18:07:10.278678500,1.870678466796875,0.259129524230957,-0.1685519963502884,-0.3456050753593445
2024-12-07 18:07:10.288652500,1.880652587890625,0.2307905703783035,-0.2305743545293808,-0.3700414299964905
2024-12-07 18:07:10.298626600,1.89062646484375,0.1917217820882797,-0.3122802376747131,-0.3908165395259857
2024-12-07 18:07:10.308600600,1.9006005859375,0.1539791971445083,-0.3896906077861786,-0.4077366888523102
2024-12-07 18:07:10.318574600,1.91057470703125,0.1049797683954238,-0.4586881399154663,-0.4150386452674866
2024-12-07 18:07:10.328548600,1.920548583984375,0.0541061982512474,-0.5238549113273621,-0.4158080220222473
2024-12-07 18:07:10.338522600,1.930522705078125,0.0022614239715039,-0.5349768996238708,-0.4130378663539886
2024-12-07 18:07:10.348496600,1.94049658203125,-0.0360305719077587,-0.5346919298171997,-0.3973499834537506
2024-12-07 18:07:10.358470700,1.950470703125,-0.0495536103844642,-0.5332257151603699,-0.3803819119930267
2024-12-07 18:07:10.368444700,1.960444580078125,-0.045293353497982,-0.5220081806182861,-0.3686134219169616
2024-12-07 18:07:10.378418700,1.970418701171875,-0.0381753221154212,-0.501035749912262,-0.340563029050827
2024-12-07 18:07:10.388392700,1.980392822265625,-0.0352370552718639,-0.4760752618312835,-0.2813625633716583
2024-12-07 18:07:10.398366700,1.99036669921875,-0.0317754074931144,-0.4282884001731872,-0.2277127653360366
2024-12-07 18:07:10.408340700,2.0003408203125,-0.0212039873003959,-0.3738794922828674,-0.2291215658187866
2024-12-07 18:07:10.418314800,2.010314697265625,-0.0031412758398801,-0.3335099220275879,-0.2848759293556213
2024-12-07 18:07:10.428289500,2.02028955078125,0.0230216197669506,-0.330169528722763,-0.3489180505275726
2024-12-07 18:07:10.438263600,2.030263671875,0.066363587975502,-0.3772246241569519,-0.3766378760337829
2024-12-07 18:07:10.448237600,2.040237548828125,0.1156459152698516,-0.4289360046386719,-0.3614493310451507
2024-12-07 18:07:10.458211600,2.050211669921875,0.1488590538501739,-0.4429914951324463,-0.3244948387145996
2024-12-07 18:07:10.468185600,2.060185546875,0.1582139432430267,-0.4386875629425049,-0.3070681691169739
2024-12-07 18:07:10.478159600,2.07015966796875,0.1604145467281341,-0.4208879470825195,-0.316294401884079
2024-12-07 18:07:10.488133600,2.080133544921875,0.1689896583557129,-0.3885110914707184,-0.3517144322395324
2024-12-07 18:07:10.498107600,2.090107666015625,0.1515488475561142,-0.3529326915740967,-0.4062962234020233
2024-12-07 18:07:10.508081700,2.10008154296875,0.1033147349953651,-0.3283333480358124,-0.4468444585800171
2024-12-07 18:07:10.518055700,2.1100556640625,0.0584949553012847,-0.3089179396629333,-0.4410977065563202
2024-12-07 18:07:10.528029700,2.12002978515625,0.0289261415600776,-0.3013726770877838,-0.3836482763290405
2024-12-07 18:07:10.538003700,2.130003662109375,-0.0148448282852768,-0.3483373820781708,-0.334387719631195
2024-12-07 18:07:10.547977700,2.139977783203125,-0.109110340476036,-0.4241410791873932,-0.3383190631866455
2024-12-07 18:07:10.557951700,2.14995166015625,-0.2130325585603714,-0.5232729315757751,-0.3888249397277832
2024-12-07 18:07:10.567925800,2.15992578125,-0.2902708947658539,-0.6340718865394592,-0.4435438513755798
2024-12-07 18:07:10.577899800,2.169899658203125,-0.3379399478435516,-0.6791637539863586,-0.4725909829139709
2024-12-07 18:07:10.587873800,2.179873779296875,-0.3607105314731598,-0.6122113466262817,-0.4489516913890838
2024-12-07 18:07:10.597846800,2.1898466796875,-0.3575783371925354,-0.4144060015678406,-0.3677726089954376
2024-12-07 18:07:10.607820800,2.19982080078125,-0.3343521058559418,-0.137969896197319,-0.2865096926689148
2024-12-07 18:07:10.617794800,2.209794921875,-0.3101523816585541,0.0711495801806449,-0.2394701987504959
2024-12-07 18:07:10.627768800,2.219768798828125,-0.2818677425384521,0.1243377029895782,-0.2222331464290619
2024-12-07 18:07:10.637742800,2.229742919921875,-0.2398039102554321,0.0516275763511657,-0.2204832434654235
2024-12-07 18:07:10.647716900,2.239716796875,-0.1867524087429046,-0.0653198137879371,-0.2289899140596389
2024-12-07 18:07:10.657691000,2.24969091796875,-0.1413579136133194,-0.1013144478201866,-0.2445270419120788
2024-12-07 18:07:10.667664600,2.25966455078125,-0.1347093284130096,-0.1122488528490066,-0.2427882552146911
2024-12-07 18:07:10.677638700,2.269638671875,-0.1144834086298942,-0.1074080243706703,-0.2374076098203659
2024-12-07 18:07:10.687612700,2.27961279296875,-0.1026821434497833,-0.1527656614780426,-0.2410217821598053
2024-12-07 18:07:10.697586700,2.289586669921875,-0.1308547407388687,-0.2276087254285812,-0.2283446341753006
2024-12-07 18:07:10.707560700,2.299560791015625,-0.2035832703113556,-0.24167101085186,-0.1729197204113006
2024-12-07 18:07:10.717534700,2.30953466796875,-0.3245463669300079,-0.1657970398664474,0.0277327094227075
2024-12-07 18:07:10.727508700,2.3195087890625,-0.4045277535915375,-0.0540025904774665,0.2766242921352386
2024-12-07 18:07:10.737482800,2.329482666015625,-0.2908320128917694,-0.1574465036392212,0.262728601694107
2024-12-07 18:07:10.747456800,2.339456787109375,-0.2543650865554809,-0.231295958161354,0.0892758518457412
2024-12-07 18:07:10.757430800,2.3494306640625,-0.2757316529750824,-0.2476153671741485,-0.0427917130291461
2024-12-07 18:07:10.767404800,2.35940478515625,-0.2653506398200989,-0.2842162549495697,-0.0955987349152565
2024-12-07 18:07:10.777378800,2.36937890625,-0.222575843334198,-0.4005157053470611,-0.0931107699871063
2024-12-07 18:07:10.787352800,2.379352783203125,-0.1522436290979385,-0.5549260973930359,-0.0938473939895629
2024-12-07 18:07:10.797326800,2.389326904296875,-0.0838112160563469,-0.7323218584060669,-0.1398842334747314
2024-12-07 18:07:10.807300900,2.39930078125,-0.0442246533930301,-0.9065165519714355,-0.1891308724880218
2024-12-07 18:07:10.817275000,2.40927490234375,-0.0145799703896045,-1.0026549100875854,-0.1959499716758728
2024-12-07 18:07:10.827249000,2.419248779296875,0.0109799839556217,-0.9629684686660768,-0.1769190430641174
2024-12-07 18:07:10.837223000,2.429222900390625,0.0514689572155475,-0.779546320438385,-0.1829971969127655
2024-12-07 18:07:10.847197000,2.439197021484375,0.1258803457021713,-0.5269121527671814,-0.199486956000328
2024-12-07 18:07:10.857171000,2.4491708984375,0.1861203610897064,-0.2804136276245117,-0.2126213014125824
2024-12-07 18:07:10.867144700,2.459144775390625,0.1981767565011978,-0.0490110255777835,-0.2649433612823486
2024-12-07 18:07:10.877118700,2.46911865234375,0.1159645989537239,0.0534737110137939,-0.2838281989097595
2024-12-07 18:07:10.887092700,2.4790927734375,0.0560373440384864,0.0562053173780441,-0.2736170887947082
2024-12-07 18:07:10.897066800,2.489066650390625,0.030546760186553,0.0481331273913383,-0.2579563558101654
2024-12-07 18:07:10.907040800,2.499040771484375,0.0188658703118562,0.0492876060307025,-0.2178499400615692
2024-12-07 18:07:10.917014800,2.509014892578125,0.0202529579401016,0.0101131293922662,-0.154206171631813
2024-12-07 18:07:10.926988800,2.51898876953125,0.0290967840701341,-0.0830780714750289,-0.0998023152351379
2024-12-07 18:07:10.936961500,2.52896142578125,0.0393940657377243,-0.2299937605857849,-0.0615076087415218
2024-12-07 18:07:10.946935600,2.538935546875,0.0279163736850023,-0.3777874708175659,-0.065774530172348
2024-12-07 18:07:10.956909600,2.54890966796875,0.0050854999572038,-0.5272676348686218,-0.1398186832666397
2024-12-07 18:07:10.966883600,2.558883544921875,0.0376386493444442,-0.6961187124252319,-0.231595754623413
2024-12-07 18:07:10.976857600,2.568857666015625,0.0833944603800773,-0.8226650953292847,-0.2761730551719665
2024-12-07 18:07:10.986831600,2.57883154296875,0.1163172572851181,-0.8568741679191589,-0.2776266038417816
2024-12-07 18:07:10.996805600,2.5888056640625,0.1117110922932624,-0.7812405824661255,-0.2682943046092987
2024-12-07 18:07:11.006779600,2.598779541015625,0.0788143947720527,-0.6586454510688782,-0.2558091282844543
2024-12-07 18:07:11.016753700,2.608753662109375,0.0195933859795331,-0.5021421909332275,-0.2323068082332611
2024-12-07 18:07:11.026727700,2.618727783203125,-0.0510147362947464,-0.3250496983528137,-0.1976974308490753
2024-12-07 18:07:11.036701700,2.62870166015625,-0.1037065014243125,-0.1714418828487396,-0.1542833894491195
2024-12-07 18:07:11.046675700,2.63867578125,-0.1378625929355621,-0.055109154433012,-0.120293989777565
2024-12-07 18:07:11.056649700,2.648649658203125,-0.1631637662649154,-0.0058590108528733,-0.1362195163965225
2024-12-07 18:07:11.066623700,2.658623779296875,-0.175634816288948,-0.0219263937324285,-0.1842445731163025
2024-12-07 18:07:11.076597800,2.66859765625,-0.1830106526613235,-0.0773513689637184,-0.2284126728773117
2024-12-07 18:07:11.086571800,2.67857177734375,-0.178714707493782,-0.1939666718244552,-0.2487823963165283
2024-12-07 18:07:11.096545800,2.6885458984375,-0.1556663066148758,-0.3288574814796448,-0.2569402456283569
2024-12-07 18:07:11.106519800,2.698519775390625,-0.1267936527729034,-0.4067645370960235,-0.2580731511116028
2024-12-07 18:07:11.116493800,2.708493896484375,-0.1091929003596305,-0.4074747562408447,-0.2519461214542389
2024-12-07 18:07:11.126467600,2.718467529296875,-0.0844777002930641,-0.3717103600502014,-0.2475185990333557
2024-12-07 18:07:11.136441600,2.728441650390625,-0.0658182725310325,-0.3356756865978241,-0.2579578757286072
2024-12-07 18:07:11.146415600,2.73841552734375,-0.0658177435398101,-0.2807871401309967,-0.2887852787971496
2024-12-07 18:07:11.156389600,2.7483896484375,-0.0925391241908073,-0.2107953578233719,-0.3055124878883362
2024-12-07 18:07:11.166363600,2.75836376953125,-0.117525964975357,-0.1209802404046058,-0.3008269071578979
2024-12-07 18:07:11.176337700,2.768337646484375,-0.1388184577226638,-0.0165917500853538,-0.2502335608005523
2024-12-07 18:07:11.186311700,2.778311767578125,-0.1508956253528595,0.0711879059672355,-0.1725510209798813
2024-12-07 18:07:11.196285700,2.78828564453125,-0.158200591802597,0.1041282266378402,-0.1148362457752227
2024-12-07 18:07:11.206259700,2.798259765625,-0.1650427877902984,0.0819046795368194,-0.0926696881651878
2024-12-07 18:07:11.216233700,2.808233642578125,-0.1703312695026397,0.0335444398224353,-0.1031917631626129
2024-12-07 18:07:11.226207700,2.818207763671875,-0.1713355481624603,-0.0206937659531831,-0.1368037909269333
2024-12-07 18:07:11.236181800,2.828181640625,-0.1799781769514084,-0.0430897697806358,-0.1863225698471069
2024-12-07 18:07:11.246155800,2.83815576171875,-0.1983659714460373,-0.0187902860343456,-0.2415003329515457
2024-12-07 18:07:11.256128800,2.848128662109375,-0.2225435972213745,0.0108210779726505,-0.2685973644256592
2024-12-07 18:07:11.266102800,2.858102783203125,-0.2558829188346863,0.040590688586235,-0.2572839856147766
2024-12-07 18:07:11.276076800,2.868076904296875,-0.2889810800552368,0.0720089226961135,-0.2179746329784393
2024-12-07 18:07:11.286050800,2.87805078125,-0.3160046935081482,0.1125385016202926,-0.1631942093372345
2024-12-07 18:07:11.296024800,2.88802490234375,-0.320137619972229,0.159713327884674,-0.0975613892078399
2024-12-07 18:07:11.305998800,2.897998779296875,-0.3143660128116607,0.2139078676700592,-0.053281545639038
2024-12-07 18:07:11.315972900,2.907972900390625,-0.309017926454544,0.26021808385849,-0.0404658392071723
2024-12-07 18:07:11.325947000,2.91794677734375,-0.3047409057617187,0.2645020484924316,-0.0435415245592594
2024-12-07 18:07:11.335921000,2.9279208984375,-0.2923545241355896,0.232538029551506,-0.0620300471782684
2024-12-07 18:07:11.345895000,2.93789501953125,-0.2873368859291076,0.1884659081697464,-0.0958561897277832
2024-12-07 18:07:11.355869000,2.947868896484375,-0.2816497981548309,0.1455439776182174,-0.120699442923069
2024-12-07 18:07:11.365843000,2.957843017578125,-0.2778529226779938,0.0872721448540687,-0.1289163678884506
2024-12-07 18:07:11.375816700,2.967816650390625,-0.2817046642303467,0.0331002846360206,-0.1103233024477958
2024-12-07 18:07:11.385790700,2.977790771484375,-0.2767437100410461,0.0400785617530345,-0.0782937332987785
2024-12-07 18:07:11.395764700,2.9877646484375,-0.2583508491516113,0.1015153303742408,-0.0619795322418212
2024-12-07 18:07:11.405738800,2.99773876953125,-0.2406661361455917,0.1780913323163986,-0.0550875402987003
2024-12-07 18:07:11.415712800,3.007712646484375,-0.2366030216217041,0.24264957010746,-0.0610501132905483
2024-12-07 18:07:11.425685800,3.017685791015625,-0.2494101673364639,0.2982228100299835,-0.0864036679267883
2024-12-07 18:07:11.435659500,3.027659423828125,-0.253367006778717,0.3301745653152466,-0.1042555570602417
2024-12-07 18:07:11.445633500,3.037633544921875,-0.2238235175609588,0.3308981359004974,-0.0806804522871971
2024-12-07 18:07:11.455607600,3.047607666015625,-0.1864226311445236,0.338727205991745,-0.0350264906883239
2024-12-07 18:07:11.465581600,3.05758154296875,-0.1459220796823501,0.3374835252761841,-0.0075128404423594
2024-12-07 18:07:11.475555600,3.0675556640625,-0.1031178385019302,0.3269290626049042,-0.0018925596959888
2024-12-07 18:07:11.485529600,3.077529541015625,-0.0650096014142036,0.2992478907108307,-0.0095134619623422
2024-12-07 18:07:11.495503600,3.087503662109375,-0.0321037694811821,0.2483976930379867,0.0225233845412731
2024-12-07 18:07:11.505477600,3.0974775390625,-0.0100706396624445,0.2162560075521469,0.0553979761898517
2024-12-07 18:07:11.515451600,3.10745166015625,0.0226208139210939,0.2089080661535263,0.0623222142457962
2024-12-07 18:07:11.525425700,3.11742578125,0.0870061963796615,0.1774571985006332,0.0621073022484779
2024-12-07 18:07:11.535399700,3.127399658203125,0.1525693833827972,0.134561613202095,0.0894338339567184
2024-12-07 18:07:11.545373700,3.137373779296875,0.2332067042589187,0.0821279734373092,0.1579662859439849
2024-12-07 18:07:11.555346700,3.1473466796875,0.3189902305603027,-0.0065256506204605,0.2836934328079223
2024-12-07 18:07:11.565320700,3.15732080078125,0.3969236612319946,-0.0466051585972309,0.4043599367141723
2024-12-07 18:07:11.575294700,3.167294677734375,0.4771787822246551,0.042295292019844,0.5010747909545898
2024-12-07 18:07:11.585268700,3.177268798828125,0.5386224389076233,0.2102850824594497,0.5863662362098694
2024-12-07 18:07:11.595242800,3.18724267578125,0.5631542205810547,0.3763597309589386,0.6951091289520264
2024-12-07 18:07:11.605216800,3.197216796875,0.5547434091567993,0.5201072692871094,0.8524460196495056
2024-12-07 18:07:11.615190800,3.207190673828125,0.5511704087257385,0.6286901831626892,1.0447912216186523
2024-12-07 18:07:11.625164800,3.217164794921875,0.5952659249305725,0.6962060928344727,1.2169413566589355
2024-12-07 18:07:11.635138800,3.227138916015625,0.67083740234375,0.7591235041618347,1.3343026638031006
2024-12-07 18:07:11.645112800,3.23711279296875,0.7551543712615967,0.8604460954666138,1.3825538158416748
2024-12-07 18:07:11.655086800,3.2470869140625,0.8458577990531921,1.014973521232605,1.3780874013900757
2024-12-07 18:07:11.665060900,3.257060791015625,0.94552344083786,1.208723545074463,1.3639262914657593
2024-12-07 18:07:11.675035000,3.267034912109375,1.0240803956985474,1.3534183502197266,1.3694514036178589
2024-12-07 18:07:11.685008600,3.277008544921875,1.0341581106185913,1.3339955806732178,1.4048272371292114
2024-12-07 18:07:11.694982700,3.286982666015625,0.9588331580162048,1.0215080976486206,1.4636904001235962
2024-12-07 18:07:11.704956700,3.296956787109375,0.8238947987556458,0.4885406494140625,1.519888162612915
2024-12-07 18:07:11.714930700,3.3069306640625,0.6589307188987732,0.00646189507097,1.5347133874893188
2024-12-07 18:07:11.724904700,3.31690478515625,0.5118461847305298,-0.2394360154867172,1.4734207391738892
2024-12-07 18:07:11.734878700,3.326878662109375,0.416578859090805,-0.1059329658746719,1.3907020092010498
2024-12-07 18:07:11.744852700,3.336852783203125,0.3707844614982605,0.3347314894199371,1.2851563692092896
2024-12-07 18:07:11.754826800,3.34682666015625,0.3547403514385223,0.8938735723495483,1.1769753694534302
2024-12-07 18:07:11.764800800,3.35680078125,0.3767332732677459,1.473764419555664,1.092798948287964
2024-12-07 18:07:11.774774800,3.36677490234375,0.4312899112701416,1.942512273788452,1.0035473108291626
2024-12-07 18:07:11.784748800,3.376748779296875,0.484828233718872,2.1483254432678223,0.8675270080566406
2024-12-07 18:07:11.794722800,3.386722900390625,0.4800860583782196,2.1357693672180176,0.6536648273468018
2024-12-07 18:07:11.804696800,3.39669677734375,0.4775778949260711,1.8921682834625244,0.4558979272842407
2024-12-07 18:07:11.814670800,3.4066708984375,0.5184881687164307,1.5211281776428225,0.3104928433895111
2024-12-07 18:07:11.824644900,3.416644775390625,0.5744280815124512,1.0421191453933716,0.1730095297098159
2024-12-07 18:07:11.834618600,3.42661865234375,0.566927969455719,0.562345027923584,0.0855082124471664
2024-12-07 18:07:11.844592600,3.436592529296875,0.4964082539081573,0.2165305912494659,0.0529776960611343
2024-12-07 18:07:11.854565600,3.446565673828125,0.4233072400093078,-0.029441637918353,0.0370797142386436
2024-12-07 18:07:11.864539600,3.45653955078125,0.3848682343959808,-0.1903266608715057,0.0090496782213449
2024-12-07 18:07:11.874513700,3.466513671875,0.3966244161128998,-0.2486187517642974,-0.0366285517811775
2024-12-07 18:07:11.884487700,3.47648779296875,0.4329014420509338,-0.2384196370840072,-0.1127523481845855
2024-12-07 18:07:11.894461700,3.486461669921875,0.4533795714378357,-0.2078889012336731,-0.219413012266159
2024-12-07 18:07:11.904435700,3.496435791015625,0.4322561621665954,-0.2158520072698593,-0.3239202499389648
2024-12-07 18:07:11.914409700,3.50640966796875,0.3852584660053253,-0.296620100736618,-0.4193386137485504
2024-12-07 18:07:11.924383700,3.5163837890625,0.3120966553688049,-0.397596538066864,-0.5097332000732422
2024-12-07 18:07:11.934357800,3.526357666015625,0.2075283229351043,-0.4965063631534576,-0.5590642690658569
2024-12-07 18:07:11.944331500,3.53633154296875,0.0835997238755226,-0.5937777757644653,-0.5634433031082153
2024-12-07 18:07:11.954305500,3.546305419921875,-0.0494715273380279,-0.6689452528953552,-0.5587434768676758
2024-12-07 18:07:11.964279600,3.556279541015625,-0.1949072778224945,-0.6849029064178467,-0.5325942039489746
2024-12-07 18:07:11.974253600,3.566253662109375,-0.3399890959262848,-0.6920393705368042,-0.4642664194107055
2024-12-07 18:07:11.984227600,3.5762275390625,-0.4560698866844177,-0.7337612509727478,-0.4088114202022552
2024-12-07 18:07:11.994201600,3.58620166015625,-0.513861358165741,-0.7190897464752197,-0.4145522713661194
2024-12-07 18:07:12.004175600,3.596175537109375,-0.5304416418075562,-0.7747415900230408,-0.4072014093399048
2024-12-07 18:07:12.014149600,3.606149658203125,-0.5295729041099548,-0.8923181295394897,-0.3484710454940796
2024-12-07 18:07:12.024123600,3.61612353515625,-0.5263105034828186,-0.960127294063568,-0.3065377175807953
2024-12-07 18:07:12.034097700,3.62609765625,-0.5042474865913391,-0.956825315952301,-0.2951008677482605
2024-12-07 18:07:12.044071700,3.63607177734375,-0.4574456214904785,-0.8983896970748901,-0.2986519336700439
2024-12-07 18:07:12.054045700,3.646045654296875,-0.3728171288967132,-0.7945578694343567,-0.3172974288463592
2024-12-07 18:07:12.064019700,3.656019775390625,-0.2704819738864898,-0.7278786897659302,-0.3455996513366699
2024-12-07 18:07:12.073993700,3.66599365234375,-0.168532907962799,-0.7260801196098328,-0.3624628782272339
2024-12-07 18:07:12.083967700,3.6759677734375,-0.0782892927527427,-0.7611179947853088,-0.3564803600311279
2024-12-07 18:07:12.093941800,3.685941650390625,0.0027418627869337,-0.8017134666442871,-0.3081874251365661
2024-12-07 18:07:12.103915800,3.695915771484375,0.0698412731289863,-0.775127112865448,-0.237701803445816
2024-12-07 18:07:12.113889800,3.705889892578125,0.1151834949851036,-0.6502714157104492,-0.1679934859275818
2024-12-07 18:07:12.123862800,3.71586279296875,0.1372773498296737,-0.4767549932003021,-0.1271251440048217
2024-12-07 18:07:12.133836800,3.7258369140625,0.1417695581912994,-0.3829954862594604,-0.149090901017189
2024-12-07 18:07:12.143810800,3.735810791015625,0.1284894347190857,-0.3699404001235962,-0.2135439217090606
2024-12-07 18:07:12.153784800,3.745784912109375,0.1080918908119201,-0.3750554025173187,-0.2695525586605072
2024-12-07 18:07:12.163758800,3.7557587890625,0.0820943787693977,-0.3334800004959106,-0.2735355794429779
2024-12-07 18:07:12.173732900,3.76573291015625,0.0677706599235534,-0.268082320690155,-0.2371134310960769
2024-12-07 18:07:12.183707000,3.775706787109375,0.0516444183886051,-0.2164164930582046,-0.2131298035383224
2024-12-07 18:07:12.193680600,3.7856806640625,0.0238847117871046,-0.2257049977779388,-0.2444812059402465
2024-12-07 18:07:12.203654700,3.795654541015625,-0.0102703301236033,-0.3171299695968628,-0.3295252621173858
2024-12-07 18:07:12.213628700,3.805628662109375,-0.0388852506875991,-0.4898646175861358,-0.4113524258136749
2024-12-07 18:07:12.223602700,3.815602783203125,-0.0591497793793678,-0.680060625076294,-0.4409872889518738
2024-12-07 18:07:12.233576700,3.82557666015625,-0.0714643895626068,-0.7952324748039246,-0.4205891788005829
2024-12-07 18:07:12.243550700,3.83555078125,-0.076767548918724,-0.7695934176445007,-0.3645906150341034
2024-12-07 18:07:12.253524700,3.845524658203125,-0.0368186794221401,-0.6483880877494812,-0.2686403095722198
2024-12-07 18:07:12.263498800,3.855498779296875,0.0245610568672418,-0.4981282651424408,-0.1353498697280883
2024-12-07 18:07:12.273472800,3.86547265625,0.0613866373896598,-0.2636440992355346,-0.0549403391778469
2024-12-07 18:07:12.283446800,3.87544677734375,0.0845353677868843,-0.0289583448320627,-0.08063904941082
2024-12-07 18:07:12.293420800,3.8854208984375,0.0770867764949798,0.0949327051639556,-0.1881276965141296
2024-12-07 18:07:12.303394800,3.895394775390625,-0.0091229425743222,0.0033599054440855,-0.2739645540714264
2024-12-07 18:07:12.313368800,3.905368896484375,-0.1539670675992965,-0.2119652777910232,-0.269443154335022
2024-12-07 18:07:12.323342800,3.9153427734375,-0.2941744923591614,-0.3582505881786346,-0.186675027012825
2024-12-07 18:07:12.337057500,3.9290576171875,-0.4515479207038879,-0.3352761566638946,-0.0394443124532699
2024-12-07 18:07:12.347031600,3.939031494140625,-0.5269085168838501,-0.2150847166776657,0.0351368971168994
2024-12-07 18:07:12.357005600,3.949005615234375,-0.5537744760513306,-0.0949351415038108,0.0433460921049118
2024-12-07 18:07:12.366979600,3.9589794921875,-0.5390297770500183,-0.010199362412095,-0.0485172234475612
2024-12-07 18:07:12.376953600,3.96895361328125,-0.5028288960456848,0.0569599643349647,-0.2451495975255966
2024-12-07 18:07:12.386927600,3.978927734375,-0.4174617528915405,0.0412770360708236,-0.4807634949684143
2024-12-07 18:07:12.396901600,3.988901611328125,-0.3101153373718261,-0.1289532780647277,-0.6511645317077637
2024-12-07 18:07:12.406874600,3.99887451171875,-0.2246050834655761,-0.383950263261795,-0.7220432758331299
2024-12-07 18:07:12.416848600,4.0088486328125,-0.178816556930542,-0.5959911346435547,-0.7084211707115173
2024-12-07 18:07:12.426823000,4.018822998046875,-0.1589944511651992,-0.675850510597229,-0.6312687993049622
2024-12-07 18:07:12.436797000,4.028796875,-0.1467641443014145,-0.5996955633163452,-0.5057870149612427
2024-12-07 18:07:12.446771000,4.03877099609375,-0.1380170881748199,-0.4357617795467376,-0.3743641674518585
2024-12-07 18:07:12.456745000,4.048744873046875,-0.1313109844923019,-0.2687477767467499,-0.2656408846378326
2024-12-07 18:07:12.466719000,4.058718994140625,-0.1501353979110717,-0.1005370020866394,-0.2236149609088897
2024-12-07 18:07:12.476693000,4.06869287109375,-0.1870212405920028,0.0070397914387285,-0.2462776601314544
2024-12-07 18:07:12.486667000,4.0786669921875,-0.2328864336013794,0.0691754668951034,-0.2875925898551941
2024-12-07 18:07:12.496641000,4.08864111328125,-0.2779710590839386,0.1359885782003402,-0.3255011141300201
2024-12-07 18:07:12.506615000,4.098614990234375,-0.3159202933311462,0.1940290480852127,-0.3498241305351257
2024-12-07 18:07:12.516588800,4.1085888671875,-0.3179560005664825,0.2261265218257904,-0.3789476752281189
2024-12-07 18:07:12.526562800,4.118562744140625,-0.2923888564109802,0.2246205061674118,-0.3902687728404999
2024-12-07 18:07:12.536536800,4.128536865234375,-0.2385964840650558,0.1568414568901062,-0.3852561712265014
2024-12-07 18:07:12.546510800,4.1385107421875,-0.1790459603071212,0.0637478232383728,-0.3925523459911346
2024-12-07 18:07:12.556484900,4.14848486328125,-0.1255611628293991,-0.0245295763015747,-0.410119354724884
2024-12-07 18:07:12.566459000,4.158458984375,-0.0984352007508277,-0.0741938799619674,-0.3970614373683929
2024-12-07 18:07:12.576433000,4.168432861328125,-0.0764793008565902,-0.1178228482604026,-0.3828518986701965
2024-12-07 18:07:12.586407000,4.178406982421875,-0.0634718909859657,-0.1665336638689041,-0.4136857092380523
2024-12-07 18:07:12.596381000,4.188380859375,-0.0675324127078056,-0.2019947320222854,-0.4628921449184418
2024-12-07 18:07:12.606355000,4.19835498046875,-0.0953898727893829,-0.1898168921470642,-0.471875250339508
2024-12-07 18:07:12.616329000,4.208328857421875,-0.1183841377496719,-0.1755972057580948,-0.456679493188858
2024-12-07 18:07:12.626303000,4.218302978515625,-0.1249300315976142,-0.185819536447525,-0.4330859184265136
2024-12-07 18:07:12.636277000,4.228277099609375,-0.1292605996131897,-0.2255469709634781,-0.408667653799057
2024-12-07 18:07:12.646251000,4.2382509765625,-0.1579023003578186,-0.245430514216423,-0.3545291125774383
2024-12-07 18:07:12.656224000,4.24822412109375,-0.1760171204805374,-0.174523577094078,-0.3159353733062744
2024-12-07 18:07:12.666198000,4.258197998046875,-0.1822052150964737,-0.098578043282032,-0.2854251861572265
2024-12-07 18:07:12.676172000,4.268172119140625,-0.1925824880599975,-0.0338533706963062,-0.2406968772411346
2024-12-07 18:07:12.686146000,4.27814599609375,-0.2006471306085586,-0.0223442241549491,-0.2109342813491821
2024-12-07 18:07:12.696120000,4.2881201171875,-0.2120614349842071,-0.0368030592799186,-0.2231677770614624
2024-12-07 18:07:12.706094000,4.298093994140625,-0.2505326271057129,-0.0403542555868625,-0.2528716027736664
2024-12-07 18:07:12.716068000,4.308068115234375,-0.2867057919502258,-0.0258610658347606,-0.2714453041553497
2024-12-07 18:07:12.726042000,4.3180419921875,-0.3013457059860229,0.0015616691671311,-0.2876426577568054
2024-12-07 18:07:12.736016100,4.32801611328125,-0.2867446541786194,0.03837800770998,-0.3289240598678589
2024-12-07 18:07:12.745990100,4.337990234375,-0.2760809659957886,0.0558132752776145,-0.3656335175037384
2024-12-07 18:07:12.755964200,4.347964111328125,-0.2679753601551056,0.0903249159455299,-0.3907588422298431
2024-12-07 18:07:12.765938000,4.35793798828125,-0.2727944850921631,0.130820021033287,-0.3807264864444732
2024-12-07 18:07:12.775912000,4.367911865234375,-0.2847494184970855,0.175857275724411,-0.3561779856681824
2024-12-07 18:07:12.785886000,4.377885986328125,-0.2831276953220367,0.2063886672258377,-0.331621766090393
2024-12-07 18:07:12.795860000,4.38785986328125,-0.2821114361286163,0.2219183593988418,-0.2983295917510986
2024-12-07 18:07:12.805833000,4.3978330078125,-0.2773347496986389,0.2280716449022293,-0.2656830549240112
2024-12-07 18:07:12.815807000,4.407806884765625,-0.2911328673362732,0.2579334378242492,-0.2447093576192855
2024-12-07 18:07:12.825781000,4.417781005859375,-0.3511762022972107,0.3041646480560303,-0.1871109753847122
2024-12-07 18:07:12.835754800,4.427754638671875,-0.3915297389030456,0.3874139785766601,-0.1265964955091476
2024-12-07 18:07:12.845728800,4.437728759765625,-0.3908045291900635,0.4893327057361603,-0.0740388706326484
2024-12-07 18:07:12.855702800,4.447702880859375,-0.385720819234848,0.6006072759628296,-0.0466594435274601
2024-12-07 18:07:12.865676800,4.4576767578125,-0.3786354959011078,0.6766935586929321,-0.0339787974953651
2024-12-07 18:07:12.875650800,4.46765087890625,-0.358737975358963,0.7059744596481323,-0.0277043916285038
2024-12-07 18:07:12.885624800,4.477624755859375,-0.3164601624011993,0.689260721206665,-0.0205698311328887
2024-12-07 18:07:12.895598800,4.487598876953125,-0.2798204123973846,0.6348340511322021,-0.0128844799473881
2024-12-07 18:07:12.905572900,4.49757275390625,-0.26163250207901,0.532103955745697,0.0045814914628863
2024-12-07 18:07:12.915547000,4.507546875,-0.2599978744983673,0.3966239094734192,0.0242894142866134
2024-12-07 18:07:12.925521000,4.51752099609375,-0.2537130713462829,0.2809020280838012,0.0421332530677318
2024-12-07 18:07:12.935495000,4.527494873046875,-0.244702011346817,0.2172846794128418,0.0580533631145954
2024-12-07 18:07:12.945469000,4.537468994140625,-0.2320556044578552,0.2095113098621368,0.051095888018608
2024-12-07 18:07:12.955443000,4.54744287109375,-0.2224027067422866,0.2447124421596527,0.0101055782288312
2024-12-07 18:07:12.965417000,4.5574169921875,-0.2133741378784179,0.2977644503116607,-0.0430683866143226
2024-12-07 18:07:12.975391000,4.567390869140625,-0.2202536165714264,0.3511866629123688,-0.0848118364810943
2024-12-07 18:07:12.985365000,4.577364990234375,-0.2379098683595657,0.3765063285827636,-0.088295392692089
2024-12-07 18:07:12.995339000,4.587339111328125,-0.2550774216651916,0.3688287138938904,-0.0492654331028461
2024-12-07 18:07:13.005313000,4.59731298828125,-0.2531136870384216,0.3462370932102203,-0.0023972180206328
2024-12-07 18:07:13.015287000,4.607287109375,-0.2307553887367248,0.3286423683166504,0.0181296281516551
2024-12-07 18:07:13.025260800,4.6172607421875,-0.1938028186559677,0.3308164775371551,0.0193858090788126
2024-12-07 18:07:13.035234800,4.62723486328125,-0.1532793492078781,0.3475850522518158,-0.0059666847810149
2024-12-07 18:07:13.045208800,4.637208740234375,-0.0930456444621086,0.3227410316467285,0.0119455885142087
2024-12-07 18:07:13.055182800,4.647182861328125,-0.0132964914664626,0.243814542889595,0.0839651897549629
2024-12-07 18:07:13.065156000,4.657156005859375,0.0915679335594177,0.0963688120245933,0.2200323492288589
2024-12-07 18:07:13.075130000,4.667130126953125,0.1895075589418411,-0.0533556975424289,0.3639615476131439
2024-12-07 18:07:13.085103900,4.677103759765625,0.2989975214004516,-0.1900777071714401,0.4744044542312622
2024-12-07 18:07:13.095078000,4.687077880859375,0.4016050994396209,-0.230321004986763,0.5480717420578003
2024-12-07 18:07:13.105052000,4.697052001953125,0.4859817922115326,-0.1882139444351196,0.5945000648498535
2024-12-07 18:07:13.115026000,4.70702587890625,0.5392237305641174,-0.1255857199430465,0.6355209946632385
2024-12-07 18:07:13.125000000,4.717,0.5564033389091492,-0.0514110997319221,0.7181333303451538
2024-12-07 18:07:13.134974000,4.726973876953125,0.5566691160202026,-0.0066542811691761,0.8276869654655457
2024-12-07 18:07:13.144948000,4.736947998046875,0.5682750344276428,0.0425547212362289,0.9229952692985536
2024-12-07 18:07:13.154922000,4.746921875,0.5889238715171814,0.1663456410169601,1.0022599697113037
2024-12-07 18:07:13.164896000,4.75689599609375,0.6137502193450928,0.3413386046886444,1.0888465642929075
2024-12-07 18:07:13.174870000,4.7668701171875,0.6487330198287964,0.5365296602249146,1.188887119293213
2024-12-07 18:07:13.184844000,4.776843994140625,0.6866318583488464,0.7143703699111938,1.274495244026184
2024-12-07 18:07:13.194818000,4.786818115234375,0.7067792415618896,0.9034505486488342,1.3030775785446167
2024-12-07 18:07:13.204792000,4.7967919921875,0.7025347352027893,1.0704617500305176,1.2408324480056765
2024-12-07 18:07:13.214766000,4.80676611328125,0.6898812651634216,1.1625945568084717,1.1160378456115725
2024-12-07 18:07:13.224740000,4.816739990234375,0.6654572486877441,1.1561589241027832,0.9942534565925598
2024-12-07 18:07:13.234714000,4.826714111328125,0.6328495144844055,1.0553803443908691,0.9442571401596068
2024-12-07 18:07:13.244688100,4.836688232421875,0.5894119143486023,0.9275097846984864,0.9611131548881532
2024-12-07 18:07:13.254662100,4.846662109375,0.5595675110816956,0.8636178970336914,0.9945336580276488
2024-12-07 18:07:13.264636200,4.85663623046875,0.5478827953338623,0.9460585713386536,1.0086137056350708
2024-12-07 18:07:13.274610000,4.86660986328125,0.5373944640159607,1.1077532768249512,0.9999614357948304
2024-12-07 18:07:13.284584000,4.876583984375,0.5469371676445007,1.3175599575042725,0.9714662432670592
2024-12-07 18:07:13.294558000,4.886557861328125,0.5664680004119873,1.5352762937545776,0.9217016100883484
2024-12-07 18:07:13.304532000,4.896531982421875,0.5721681714057922,1.734439730644226,0.8608849048614502
2024-12-07 18:07:13.314506000,4.906506103515625,0.5711449980735779,1.898728847503662,0.7735471129417419
2024-12-07 18:07:13.324479700,4.916479736328125,0.5857605338096619,1.9921022653579712,0.6147911548614502
2024-12-07 18:07:13.334453800,4.926453857421875,0.6306116580963135,1.985816240310669,0.4387551546096802
2024-12-07 18:07:13.344427800,4.936427734375,0.6821797490119934,1.8560415506362915,0.3093098998069763
2024-12-07 18:07:13.354400800,4.94640087890625,0.7017228603363037,1.6297637224197388,0.2258778363466262
2024-12-07 18:07:13.364374800,4.956374755859375,0.683918833732605,1.3064956665039062,0.17514169216156
2024-12-07 18:07:13.374348800,4.966348876953125,0.6495765447616577,0.9586141705513,0.1772075146436691
2024-12-07 18:07:13.384322800,4.97632275390625,0.6070671677589417,0.6006690859794617,0.225933238863945
2024-12-07 18:07:13.394296800,4.986296875,0.5796813368797302,0.269677072763443,0.2622997164726257
2024-12-07 18:07:13.404270800,4.996270751953125,0.5268553495407104,-0.0494997911155223,0.2561908066272735
2024-12-07 18:07:13.414244900,5.006244873046875,0.4650335609912872,-0.35090172290802,0.2319089025259018
2024-12-07 18:07:13.424219000,5.016218994140625,0.4266788065433502,-0.5696829557418823,0.1950625777244568
2024-12-07 18:07:13.434193000,5.02619287109375,0.4056342542171478,-0.6512467861175537,0.1370836943387985
2024-12-07 18:07:13.444167000,5.0361669921875,0.3781601786613464,-0.628273069858551,0.0621099397540092
2024-12-07 18:07:13.454141000,5.046140869140625,0.3416868448257446,-0.5652419328689575,-0.0150783164426684
2024-12-07 18:07:13.464115000,5.056114990234375,0.312825858592987,-0.4888802170753479,-0.1284247934818267
2024-12-07 18:07:13.474089000,5.0660888671875,0.2829523682594299,-0.424954205751419,-0.2667533755302429
2024-12-07 18:07:13.484063000,5.07606298828125,0.2058032900094986,-0.3826288282871246,-0.3980702459812164
2024-12-07 18:07:13.494037000,5.086037109375,0.0693533048033714,-0.3665917813777923,-0.4843833148479461
2024-12-07 18:07:13.504011000,5.096010986328125,-0.0792003571987152,-0.3849613666534424,-0.5166516900062561
2024-12-07 18:07:13.513985000,5.105985107421875,-0.2088078707456588,-0.4346852302551269,-0.5089053511619568
2024-12-07 18:07:13.523959000,5.115958984375,-0.3180516958236694,-0.5032109618186951,-0.4957894682884216
2024-12-07 18:07:13.533932800,5.125932861328125,-0.4053951203823089,-0.553941547870636,-0.4819769859313965
2024-12-07 18:07:13.543906800,5.13590673828125,-0.4641188383102417,-0.6402125358581543,-0.4886868894100189
2024-12-07 18:07:13.553880600,5.145880615234375,-0.5056217908859253,-0.7315115928649902,-0.536745548248291
2024-12-07 18:07:13.563854600,5.1558544921875,-0.554212212562561,-0.8233603835105896,-0.5802205801010132
2024-12-07 18:07:13.573828600,5.16582861328125,-0.588068425655365,-0.8660841584205627,-0.577177882194519
2024-12-07 18:07:13.583802600,5.175802734375,-0.5795700550079346,-0.8183709979057312,-0.5361677408218384
2024-12-07 18:07:13.593776600,5.185776611328125,-0.5081943869590759,-0.722450315952301,-0.4707024991512298
2024-12-07 18:07:13.603750700,5.195750732421875,-0.3944324254989624,-0.6643161177635193,-0.4012539088726043
2024-12-07 18:07:13.613724700,5.205724609375,-0.2497064173221588,-0.6309733390808105,-0.3437362909317016
2024-12-07 18:07:13.623698700,5.21569873046875,-0.0952181667089462,-0.6012642979621887,-0.2888872027397156
2024-12-07 18:07:13.633671700,5.225671630859375,0.0786697417497634,-0.4899055063724518,-0.2269162386655807
2024-12-07 18:07:13.643645700,5.235645751953125,0.265615850687027,-0.2959415912628174,-0.1529531478881836
2024-12-07 18:07:13.653619700,5.24561962890625,0.4652746319770813,-0.150040864944458,-0.084795132279396
2024-12-07 18:07:13.663593700,5.25559375,0.5981908440589905,-0.0884159356355667,-0.0317540951073169
2024-12-07 18:07:13.673567700,5.265567626953125,0.6132774353027344,-0.0561879612505435,-0.0059448685497045
2024-12-07 18:07:13.683541800,5.275541748046875,0.5352161526679993,0.0208518914878368,-0.0053822579793632
2024-12-07 18:07:13.693515800,5.285515869140625,0.4036142230033874,0.1675166934728622,-0.0270870197564363
2024-12-07 18:07:13.703489800,5.29548974609375,0.2547589242458343,0.3142269849777221,-0.0640465095639228
2024-12-07 18:07:13.713463800,5.3054638671875,0.0868778079748153,0.3188856542110443,-0.1245852261781692
2024-12-07 18:07:13.723437800,5.315437744140625,-0.0986600741744041,0.1469368934631347,-0.1718200296163559
2024-12-07 18:07:13.733411800,5.325411865234375,-0.278521716594696,-0.0933801084756851,-0.1394581049680709
2024-12-07 18:07:13.743385900,5.3353857421875,-0.4053734540939331,-0.3419299125671386,-0.0212439950555562
2024-12-07 18:07:13.753360000,5.34535986328125,-0.456179678440094,-0.568374752998352,0.1102037727832794
2024-12-07 18:07:13.763334000,5.355333984375,-0.4444255232810974,-0.7697683572769165,0.1454134285449981
2024-12-07 18:07:13.773308000,5.365307861328125,-0.391260027885437,-0.8980344533920288,0.0492184534668922
2024-12-07 18:07:13.783282000,5.375281982421875,-0.2910824120044708,-0.845116138458252,-0.1124572157859802
2024-12-07 18:07:13.793255700,5.385255615234375,-0.1572662889957428,-0.6715118288993835,-0.2296730428934097
2024-12-07 18:07:13.803229700,5.395229736328125,-0.034586738795042,-0.5062092542648315,-0.2972188889980316
2024-12-07 18:07:13.813203700,5.40520361328125,0.0668655857443809,-0.3464526236057281,-0.3165361285209656
2024-12-07 18:07:13.823177700,5.415177734375,0.1056382432579994,-0.2142211943864822,-0.3444099128246307
2024-12-07 18:07:13.833151700,5.42515185546875,0.124628446996212,-0.1969207674264907,-0.4353105127811432
2024-12-07 18:07:13.843125800,5.435125732421875,0.1875310540199279,-0.3232209384441376,-0.586306095123291
2024-12-07 18:07:13.853099800,5.445099853515625,0.1643506288528442,-0.5871388912200928,-0.7349517345428467
2024-12-07 18:07:13.863073800,5.45507373046875,0.0392693877220153,-0.9211809039115906,-0.7778180837631226
2024-12-07 18:07:13.873047800,5.4650478515625,-0.1279984414577484,-1.117570400238037,-0.7049998044967651
2024-12-07 18:07:13.883021800,5.475021728515625,-0.2989470958709717,-0.9748334288597108,-0.544394850730896
2024-12-07 18:07:13.892995800,5.484995849609375,-0.4383212327957153,-0.6005653142929077,-0.3411096632480621
2024-12-07 18:07:13.902968800,5.49496875,-0.5321637392044067,-0.2468596249818802,-0.1544627100229263
2024-12-07 18:07:13.912942800,5.50494287109375,-0.5989946722984314,-0.0408276319503784,-0.0145663376897573
2024-12-07 18:07:13.922916900,5.514916748046875,-0.6479179263114929,0.0403389707207679,0.0473737567663192
2024-12-07 18:07:13.932891000,5.524890869140625,-0.6752461791038513,0.055007129907608,0.0240335464477539
2024-12-07 18:07:13.942865000,5.534864990234375,-0.6566078662872314,0.025623220950365,-0.0459233149886131
2024-12-07 18:07:13.952839000,5.5448388671875,-0.5782989263534546,-0.0392854698002338,-0.1327732503414154
2024-12-07 18:07:13.962813000,5.55481298828125,-0.4479590058326721,-0.1479867845773697,-0.2051920592784881
2024-12-07 18:07:13.972787000,5.564786865234375,-0.3162521123886108,-0.2770760655403137,-0.2784058153629303
2024-12-07 18:07:13.982761000,5.574760986328125,-0.1968600749969482,-0.3814921081066131,-0.3579618632793426
2024-12-07 18:07:13.992735000,5.58473486328125,-0.0984219089150428,-0.4458678960800171,-0.443558782339096
2024-12-07 18:07:14.002709000,5.594708984375,-0.0412374846637249,-0.4841094017028808,-0.495883584022522
2024-12-07 18:07:14.012683000,5.60468310546875,-0.012002364732325,-0.502325177192688,-0.46678426861763
2024-12-07 18:07:14.022657000,5.614656982421875,-0.0026031688321381,-0.5053147673606873,-0.3724901080131531
2024-12-07 18:07:14.032631000,5.624631103515625,-0.0030625641811639,-0.4694286584854126,-0.2630725502967834
2024-12-07 18:07:14.042604800,5.634604736328125,-0.021923353895545,-0.3876694142818451,-0.1810784786939621
2024-12-07 18:07:14.052578800,5.644578857421875,-0.0586954839527606,-0.2792936563491821,-0.1594261825084686
2024-12-07 18:07:14.062552800,5.654552734375,-0.0787915140390396,-0.1513809263706207,-0.1971936225891113
2024-12-07 18:07:14.072526600,5.664526611328125,-0.1192297488451004,-0.0423513837158679,-0.2530534267425537
2024-12-07 18:07:14.082500600,5.67450048828125,-0.1912129074335098,0.0341461636126041,-0.2818296253681183
2024-12-07 18:07:14.092474600,5.684474609375,-0.2649553120136261,0.1677923798561096,-0.2951728701591491
2024-12-07 18:07:14.102448600,5.69444873046875,-0.2710250318050384,0.3208732008934021,-0.3028263449668884
2024-12-07 18:07:14.112422700,5.704422607421875,-0.2560948133468628,0.4278656840324402,-0.2711898684501648
2024-12-07 18:07:14.122396700,5.714396728515625,-0.2495730072259903,0.4513861835002899,-0.2264567464590072
2024-12-07 18:07:14.132370700,5.72437060546875,-0.2323969602584839,0.3848990499973297,-0.2061623930931091
2024-12-07 18:07:14.142344700,5.7343447265625,-0.1959939748048782,0.2448590099811554,-0.2258118093013763
2024-12-07 18:07:14.152318700,5.744318603515625,-0.1525554209947586,0.0678168535232544,-0.2831592261791229
2024-12-07 18:07:14.162291700,5.754291748046875,-0.1241009831428527,-0.0362880229949951,-0.3571702539920807
2024-12-07 18:07:14.172265700,5.764265625,-0.1194207370281219,-0.0920463651418685,-0.4058467149734497
2024-12-07 18:07:14.182239700,5.77423974609375,-0.1165414452552795,-0.1565980166196823,-0.416671484708786
2024-12-07 18:07:14.192213800,5.7842138671875,-0.113981083035469,-0.2350150495767593,-0.4106365144252777
2024-12-07 18:07:14.202187800,5.794187744140625,-0.1267791986465454,-0.298609584569931,-0.3999525308609009
2024-12-07 18:07:14.212161800,5.804161865234375,-0.134038969874382,-0.3368219435214996,-0.4061590135097503
2024-12-07 18:07:14.222135800,5.8141357421875,-0.1419549733400344,-0.3397397100925445,-0.4303100705146789
2024-12-07 18:07:14.232109800,5.82410986328125,-0.1477587968111038,-0.349188894033432,-0.451338917016983
2024-12-07 18:07:14.242083800,5.834083740234375,-0.1581397950649261,-0.3430010080337524,-0.4533560574054718
2024-12-07 18:07:14.252057900,5.844057861328125,-0.1721871644258499,-0.2936742007732391,-0.4466449022293091
2024-12-07 18:07:14.262032000,5.854031982421875,-0.2023628801107406,-0.2341015934944152,-0.4263739287853241
2024-12-07 18:07:14.272006000,5.864005859375,-0.2396082431077957,-0.1993726342916488,-0.3856962621212005
2024-12-07 18:07:14.281980000,5.87397998046875,-0.267373651266098,-0.1888499110937118,-0.3673250675201416
2024-12-07 18:07:14.291954000,5.883953857421875,-0.2932310700416565,-0.195877194404602,-0.3505516946315765
2024-12-07 18:07:14.301927700,5.893927734375,-0.3086810111999511,-0.2097920924425125,-0.3212941586971283
2024-12-07 18:07:14.311901700,5.903901611328125,-0.2985953688621521,-0.2001535892486572,-0.3228659629821777
2024-12-07 18:07:14.321875700,5.913875732421875,-0.3095129430294037,-0.2238721549510955,-0.3158057630062103
2024-12-07 18:07:14.331849700,5.923849609375,-0.3514130115509033,-0.2103214561939239,-0.3044681549072265
2024-12-07 18:07:14.341823700,5.93382373046875,-0.3633877635002136,-0.1572295725345611,-0.3028109669685364
2024-12-07 18:07:14.351797800,5.9437978515625,-0.3608055710792541,-0.0855045244097709,-0.2978577613830566
2024-12-07 18:07:14.361771800,5.953771728515625,-0.3578514754772186,-0.0372897759079933,-0.2812467217445373
2024-12-07 18:07:14.371745800,5.963745849609375,-0.3519280552864074,0.00055906875059,-0.264493316411972
2024-12-07 18:07:14.381719800,5.9737197265625,-0.3532592356204986,0.052203245460987,-0.2380481511354446
2024-12-07 18:07:14.391693800,5.98369384765625,-0.336683452129364,0.1113786846399307,-0.1950058788061142
2024-12-07 18:07:14.401667800,5.993667724609375,-0.3213060796260834,0.1892106533050537,-0.1630530804395675
2024-12-07 18:07:14.411640800,6.003640869140625,-0.3116670250892639,0.2283639162778854,-0.1386143118143081
2024-12-07 18:07:14.421614800,6.01361474609375,-0.3148369789123535,0.2304460108280182,-0.1220993176102638
2024-12-07 18:07:14.431589600,6.023589599609375,-0.2954928278923034,0.1678052693605423,-0.1007389053702354
2024-12-07 18:07:14.441563600,6.033563720703125,-0.2850268185138702,0.1060710251331329,-0.0746499598026275
2024-12-07 18:07:14.451537700,6.04353759765625,-0.2812139689922333,0.0656735375523567,-0.0393207296729087
2024-12-07 18:07:14.461511700,6.05351171875,-0.2782913446426391,0.0513397604227066,-0.0202695932239294
2024-12-07 18:07:14.471485700,6.063485595703125,-0.25648033618927,0.0495141632854938,-0.0330788679420948
2024-12-07 18:07:14.481459700,6.073459716796875,-0.2577195763587951,0.0532098822295665,-0.0601249448955059
2024-12-07 18:07:14.491433700,6.083433837890625,-0.2935183346271515,0.0535859204828739,-0.0570985302329063
2024-12-07 18:07:14.501407700,6.09340771484375,-0.2828959822654724,0.0876935124397277,-0.0568989738821983
2024-12-07 18:07:14.511381500,6.103381591796875,-0.2594867944717407,0.116548866033554,-0.062312114983797
2024-12-07 18:07:14.521355500,6.11335546875,-0.2349233776330948,0.123701311647892,-0.0665875598788261
2024-12-07 18:07:14.531329500,6.12332958984375,-0.2057052999734878,0.1067819818854332,-0.0853684395551681
2024-12-07 18:07:14.541303600,6.133303466796875,-0.1873810589313507,0.1117576509714126,-0.1206930428743362
2024-12-07 18:07:14.551277600,6.143277587890625,-0.1624101847410202,0.1559893041849136,-0.1365071535110473
2024-12-07 18:07:14.561251600,6.15325146484375,-0.1440700441598892,0.2384522855281829,-0.1300989240407943
2024-12-07 18:07:14.571225600,6.1632255859375,-0.1627047061920166,0.3346238136291504,-0.0700643435120582
2024-12-07 18:07:14.581199600,6.17319970703125,-0.1767679899930954,0.438260406255722,-0.0010670840274542
2024-12-07 18:07:14.591173600,6.183173583984375,-0.1456074118614196,0.48514324426651,0.0748716220259666
2024-12-07 18:07:14.601147600,6.193147705078125,-0.1146416366100311,0.4393743276596069,0.1798358261585235
2024-12-07 18:07:14.611121700,6.20312158203125,-0.0662184432148933,0.340663194656372,0.263711005449295
2024-12-07 18:07:14.621095700,6.213095703125,0.0250887684524059,0.2057682424783706,0.3033803105354309
2024-12-07 18:07:14.631069700,6.223069580078125,0.1270971596240997,0.0813048854470253,0.3055196106433868
2024-12-07 18:07:14.641043700,6.233043701171875,0.2280349284410476,0.0019386243075132,0.3195836544036865
2024-12-07 18:07:14.651016700,6.2430166015625,0.3228418529033661,-0.0139492619782686,0.3798467218875885
2024-12-07 18:07:14.660990700,6.25299072265625,0.4296214282512665,-0.0206587724387645,0.4737893640995025
2024-12-07 18:07:14.670964700,6.26296484375,0.4957322776317596,-0.0493210442364215,0.5990263819694519
2024-12-07 18:07:14.680938800,6.272938720703125,0.5413519144058228,-0.085163690149784,0.7420281767845154
2024-12-07 18:07:14.690912500,6.28291259765625,0.6164442300796509,-0.105954460799694,0.8516521453857422
2024-12-07 18:07:14.700886500,6.292886474609375,0.6043368577957153,-0.0631700977683067,1.0248523950576782
2024-12-07 18:07:14.710860500,6.302860595703125,0.5612985491752625,0.0885469913482666,1.206446647644043
2024-12-07 18:07:14.720834600,6.31283447265625,0.5624589920043945,0.3610819280147552,1.3338100910186768
2024-12-07 18:07:14.730808600,6.32280859375,0.5848484635353088,0.7469689249992371,1.4021589756011963
2024-12-07 18:07:14.740782600,6.332782470703125,0.5976389646530151,1.1592589616775513,1.4117300510406494
2024-12-07 18:07:14.750756600,6.342756591796875,0.6011037230491638,1.5890675783157349,1.3805547952651978
2024-12-07 18:07:14.760730600,6.352730712890625,0.6034243702888489,1.965899348258972,1.332916021347046
2024-12-07 18:07:14.770704400,6.362704345703125,0.6074479222297668,2.1642141342163086,1.2793662548065186
2024-12-07 18:07:14.780678400,6.372678466796875,0.6104349493980408,2.073255777359009,1.222739338874817
2024-12-07 18:07:14.790652400,6.38265234375,0.5964182019233704,1.721845269203186,1.1715142726898191
2024-12-07 18:07:14.800626400,6.39262646484375,0.5660297274589539,1.285330057144165,1.1187225580215454
2024-12-07 18:07:14.810600400,6.402600341796875,0.5427571535110474,0.9122992753982544,1.0719518661499023
2024-12-07 18:07:14.820574500,6.412574462890625,0.5478612184524536,0.6292505860328674,1.0470459461212158
2024-12-07 18:07:14.830548500,6.422548583984375,0.5587847232818604,0.4626040458679199,1.0560133457183838
2024-12-07 18:07:14.840522500,6.4325224609375,0.5427485108375549,0.3893535733222961,1.0648040771484375
2024-12-07 18:07:14.850496500,6.44249658203125,0.5211471319198608,0.4392257928848266,1.0207934379577637
2024-12-07 18:07:14.860470500,6.452470458984375,0.5300772786140442,0.6773059368133545,0.9150378108024596
2024-12-07 18:07:14.870444500,6.462444580078125,0.529785692691803,0.987954080104828,0.7797250151634216
2024-12-07 18:07:14.880418600,6.47241845703125,0.5533865690231323,1.233116626739502,0.6302939653396606
2024-12-07 18:07:14.890392600,6.482392578125,0.5983055830001831,1.4515595436096191,0.4503204524517059
2024-12-07 18:07:14.900365600,6.492365478515625,0.6578328013420105,1.7130306959152222,0.2823493778705597
2024-12-07 18:07:14.910339600,6.502339599609375,0.7384440302848816,1.859700322151184,0.1494917124509811
2024-12-07 18:07:14.920313600,6.512313720703125,0.8006375432014465,1.8059216737747192,0.0158589892089366
2024-12-07 18:07:14.930287600,6.52228759765625,0.8180868029594421,1.527119517326355,-0.1137472093105316
2024-12-07 18:07:14.940261600,6.53226171875,0.7766599655151367,1.0270307064056396,-0.2001394182443618
2024-12-07 18:07:14.950235600,6.542235595703125,0.7035868167877197,0.4094452857971191,-0.239972323179245
2024-12-07 18:07:14.960209700,6.552209716796875,0.6287499666213989,-0.1165051758289337,-0.2270895838737487
2024-12-07 18:07:14.970183700,6.56218359375,0.5700789093971252,-0.4736529290676117,-0.1634688079357147
2024-12-07 18:07:14.980157700,6.57215771484375,0.5488027930259705,-0.6766153573989868,-0.0627881586551666
2024-12-07 18:07:14.990131700,6.582131591796875,0.5379120707511902,-0.7306349277496338,0.0086370185017585
2024-12-07 18:07:15.000105700,6.592105712890625,0.5035877227783203,-0.6659490466117859,0.0281116589903831
2024-12-07 18:07:15.010079700,6.602079833984375,0.4425043761730194,-0.6199490427970886,-0.0272211022675037
2024-12-07 18:07:15.020053500,6.612053466796875,0.3689249753952026,-0.6541206240653992,-0.113448865711689
2024-12-07 18:07:15.030027500,6.622027587890625,0.3097913265228271,-0.6608954668045044,-0.2154604494571685
2024-12-07 18:07:15.040001500,6.63200146484375,0.2532740533351898,-0.6002431511878967,-0.2965673208236694
2024-12-07 18:07:15.049975600,6.6419755859375,0.1610013842582702,-0.4415192902088165,-0.3392902910709381
2024-12-07 18:07:15.059949600,6.651949462890625,0.0253908857703208,-0.2429468780755996,-0.346879631280899
2024-12-07 18:07:15.069923600,6.661923583984375,-0.1324011385440826,-0.0879314616322517,-0.3151238262653351
2024-12-07 18:07:15.079897600,6.671897705078125,-0.2840956747531891,-0.0309651363641023,-0.2497514486312866
2024-12-07 18:07:15.089871600,6.68187158203125,-0.3901305198669433,-0.0434372499585151,-0.1864912509918213
2024-12-07 18:07:15.099845600,6.691845703125,-0.4426138699054718,-0.1064391061663627,-0.1525402516126632
2024-12-07 18:07:15.109819600,6.701819580078125,-0.4419816434383392,-0.1905601024627685,-0.1491844058036804
2024-12-07 18:07:15.119793700,6.711793701171875,-0.4205863773822784,-0.3364016115665436,-0.1418452113866806
2024-12-07 18:07:15.129766700,6.7217666015625,-0.3830102384090423,-0.4879407882690429,-0.1398446410894394
2024-12-07 18:07:15.139740700,6.73174072265625,-0.3231310248374939,-0.5630139708518982,-0.1532480120658874
2024-12-07 18:07:15.149714700,6.741714599609375,-0.2210904061794281,-0.5370191335678101,-0.1825542449951172
2024-12-07 18:07:15.159688700,6.751688720703125,-0.0988466963171958,-0.5010273456573486,-0.1893892884254455
2024-12-07 18:07:15.169662700,6.761662841796875,0.0013731124345213,-0.544122576713562,-0.1814136505126953
2024-12-07 18:07:15.179636700,6.77163671875,0.0452705472707748,-0.642532467842102,-0.182606354355812
2024-12-07 18:07:15.189610800,6.78161083984375,0.0489291995763778,-0.7215279340744019,-0.1641328036785125
2024-12-07 18:07:15.199584500,6.79158447265625,0.0357954949140548,-0.7233198285102844,-0.1147113963961601
2024-12-07 18:07:15.209558500,6.80155859375,0.0204945728182792,-0.6394214630126953,-0.0785294249653816
2024-12-07 18:07:15.219532500,6.811532470703125,0.0055971024557948,-0.5110148191452026,-0.1126481816172599
2024-12-07 18:07:15.229506600,6.821506591796875,-0.0079474681988358,-0.3796051442623138,-0.2336547672748565
2024-12-07 18:07:15.239480600,6.83148046875,-0.0242062527686357,-0.2623371481895447,-0.4087607264518738
2024-12-07 18:07:15.249454600,6.84145458984375,-0.038519412279129,-0.177041158080101,-0.5651553273200989
2024-12-07 18:07:15.259428600,6.8514287109375,-0.0339289456605911,-0.144432932138443,-0.6512781381607056
2024-12-07 18:07:15.269402600,6.861402587890625,-0.0159177221357822,-0.1653792262077331,-0.6459736227989197
2024-12-07 18:07:15.279376400,6.87137646484375,0.0123715074732899,-0.2512561380863189,-0.5542065501213074
2024-12-07 18:07:15.289350400,6.881350341796875,0.0478621236979961,-0.3915219008922577,-0.4227646887302398
2024-12-07 18:07:15.299324400,6.891324462890625,0.0688788965344429,-0.5428919792175293,-0.2963922917842865
2024-12-07 18:07:15.309298400,6.90129833984375,0.0542365685105323,-0.6487467885017395,-0.2182469069957733
2024-12-07 18:07:15.319272400,6.9112724609375,0.0173278991132974,-0.7064051032066345,-0.2048442065715789
2024-12-07 18:07:15.329246500,6.92124658203125,-0.0215252246707677,-0.7464199066162109,-0.2368809729814529
2024-12-07 18:07:15.339220500,6.931220458984375,-0.0599707141518592,-0.779451847076416,-0.3063452243804931
2024-12-07 18:07:15.349193500,6.941193359375,-0.1074961572885513,-0.7902757525444031,-0.4030911922454834
2024-12-07 18:07:15.359167500,6.95116748046875,-0.1488040685653686,-0.747623860836029,-0.482429027557373
2024-12-07 18:07:15.369141500,6.9611416015625,-0.1738308668136596,-0.6684459447860718,-0.5272111296653748
2024-12-07 18:07:15.379115500,6.971115478515625,-0.1796296834945678,-0.5897549986839294,-0.5620191693305969
2024-12-07 18:07:15.389089500,6.981089599609375,-0.1824038922786712,-0.504687488079071,-0.5920004844665527
2024-12-07 18:07:15.399063600,6.9910634765625,-0.1680155843496322,-0.4204115867614746,-0.5629159212112427
2024-12-07 18:07:15.409037600,7.00103759765625,-0.1540398448705673,-0.2956155836582184,-0.3958861827850342
2024-12-07 18:07:15.419011600,7.011011474609375,-0.1575061529874801,-0.1181676983833313,-0.1414829939603805
2024-12-07 18:07:15.428985000,7.020985107421875,-0.1539787948131561,0.0306886211037635,0.0755380094051361
2024-12-07 18:07:15.438959000,7.030958984375,-0.1623786836862564,0.0252000838518142,0.1762982308864593
2024-12-07 18:07:15.448933000,7.04093310546875,-0.2150035500526428,-0.1439846754074096,0.1682789176702499
2024-12-07 18:07:15.458907100,7.0509072265625,-0.3102298974990845,-0.3867866098880768,0.1164273172616958
2024-12-07 18:07:15.468881200,7.060881103515625,-0.4119056761264801,-0.6166911721229553,0.037952221930027
2024-12-07 18:07:15.478855200,7.070855224609375,-0.4965537786483764,-0.7796875238418579,-0.0654793754220008
2024-12-07 18:07:15.488829200,7.0808291015625,-0.5610478520393372,-0.8317411541938782,-0.1613276004791259
2024-12-07 18:07:15.498803200,7.09080322265625,-0.5997257828712463,-0.7838345766067505,-0.2179608792066574
2024-12-07 18:07:15.508777200,7.100777099609375,-0.6025335788726807,-0.6779648661613464,-0.2393668293952942
2024-12-07 18:07:15.518751200,7.110751220703125,-0.545158326625824,-0.5521952509880066,-0.2624974250793457
2024-12-07 18:07:15.528725200,7.120725341796875,-0.422948807477951,-0.4136964976787567,-0.3107568323612213
2024-12-07 18:07:15.538699300,7.13069921875,-0.2710923254489898,-0.3087012767791748,-0.3826567530632019
2024-12-07 18:07:15.548673300,7.14067333984375,-0.1386080384254455,-0.3091796040534973,-0.4474139213562011
2024-12-07 18:07:15.558647000,7.15064697265625,-0.0535185225307941,-0.4559546113014221,-0.4892048835754394
2024-12-07 18:07:15.568620000,7.1606201171875,-0.0180334988981485,-0.6481320261955261,-0.506339430809021
2024-12-07 18:07:15.578594000,7.170593994140625,-0.0095641212537884,-0.7937089204788208,-0.4957605004310608
2024-12-07 18:07:15.588568000,7.180568115234375,-0.0115766720846295,-0.8458200693130493,-0.4412133693695068
2024-12-07 18:07:15.598542000,7.1905419921875,-0.0184266734868288,-0.820820152759552,-0.360530823469162
2024-12-07 18:07:15.608516000,7.20051611328125,-0.0228413958102464,-0.7461879849433899,-0.3035977482795715
2024-12-07 18:07:15.618489900,7.21048974609375,-0.0262029208242893,-0.6589041948318481,-0.2927747070789337
2024-12-07 18:07:15.628463900,7.2204638671875,-0.0104404715821146,-0.6112083196640015,-0.3012858927249908
2024-12-07 18:07:15.638438000,7.23043798828125,-0.0197213497012853,-0.5990774631500244,-0.2988566160202026
2024-12-07 18:07:15.648412000,7.240411865234375,-0.0313210152089595,-0.6030716300010681,-0.2972512543201446
2024-12-07 18:07:15.658386000,7.250385986328125,-0.0338070914149284,-0.5958731770515442,-0.3241257071495056
2024-12-07 18:07:15.668360000,7.26035986328125,-0.03324756026268,-0.5584432482719421,-0.3610509634017944
2024-12-07 18:07:15.678334000,7.270333984375,-0.0261097494512796,-0.4816999733448028,-0.391178548336029
2024-12-07 18:07:15.688308000,7.280307861328125,-0.0267236083745956,-0.3528096377849579,-0.4037508070468902
2024-12-07 18:07:15.698282000,7.290281982421875,-0.023668197914958,-0.2169523388147354,-0.3651618659496307
2024-12-07 18:07:15.708256000,7.300256103515625,-0.0133231487125158,-0.0244585201144218,-0.2975247800350189
2024-12-07 18:07:15.718230000,7.31022998046875,-0.0233504958450794,0.1621696650981903,-0.2479350715875625
2024-12-07 18:07:15.728204000,7.3202041015625,-0.0413446761667728,0.2820374667644501,-0.2273315191268921
2024-12-07 18:07:15.738178000,7.330177978515625,-0.053728137165308,0.3607436418533325,-0.222124844789505
2024-12-07 18:07:15.748152000,7.340152099609375,-0.0570336505770683,0.4229225814342499,-0.2548860013484955
2024-12-07 18:07:15.758126000,7.3501259765625,-0.0685100257396698,0.4272994697093963,-0.2678523361682892
2024-12-07 18:07:15.768100000,7.36010009765625,-0.1131970733404159,0.4081816971302032,-0.2651098072528839
2024-12-07 18:07:15.778074000,7.37007421875,-0.1383973956108093,0.3599452078342438,-0.258145660161972
2024-12-07 18:07:15.788047000,7.380047119140625,-0.1555636078119278,0.2759195268154144,-0.2497519254684448
2024-12-07 18:07:15.798021000,7.390021240234375,-0.1632022708654403,0.1840340197086334,-0.231602057814598
2024-12-07 18:07:15.807995100,7.3999951171875,-0.17757348716259,0.1164475157856941,-0.2101910412311554
2024-12-07 18:07:15.817969200,7.40996923828125,-0.1925296485424041,0.0565098710358142,-0.1855437159538269
2024-12-07 18:07:15.827943200,7.419943115234375,-0.2058909982442855,-0.0264566503465175,-0.1762111932039261
2024-12-07 18:07:15.837917200,7.429917236328125,-0.2135131657123565,-0.1165459081530571,-0.1767958253622055
2024-12-07 18:07:15.847891200,7.43989111328125,-0.2247421145439148,-0.1952361911535263,-0.1921526789665222
2024-12-07 18:07:15.857865200,7.449865234375,-0.1857388317584991,-0.231702983379364,-0.2261676490306854
2024-12-07 18:07:15.867839000,7.4598388671875,-0.1872773468494415,-0.2727556228637695,-0.2478260695934295
2024-12-07 18:07:15.877813000,7.46981298828125,-0.2003909796476364,-0.2697855234146118,-0.278728038072586
2024-12-07 18:07:15.887787000,7.479787109375,-0.1884746551513672,-0.2148365229368209,-0.3378494083881378
2024-12-07 18:07:15.897761000,7.489760986328125,-0.145455315709114,-0.1533532887697219,-0.4007568359375
2024-12-07 18:07:15.907735000,7.499735107421875,-0.1507568806409835,-0.1233394593000412,-0.4158116579055786
2024-12-07 18:07:15.917709000,7.509708984375,-0.1925588846206665,-0.1307515054941177,-0.3706621527671814
2024-12-07 18:07:15.927683000,7.51968310546875,-0.1896118372678756,-0.13599793612957,-0.3168684244155884
2024-12-07 18:07:15.937657000,7.529656982421875,-0.2006245404481887,-0.141332522034645,-0.277403861284256
2024-12-07 18:07:15.947631000,7.539631103515625,-0.2276420146226883,-0.1425082087516784,-0.2589619159698486
2024-12-07 18:07:15.957605000,7.549605224609375,-0.247529461979866,-0.1340967118740081,-0.2769638895988464
2024-12-07 18:07:15.967579100,7.5595791015625,-0.2771214544773102,-0.1240462064743042,-0.3084043860435486
2024-12-07 18:07:15.977553200,7.56955322265625,-0.3057209551334381,-0.0971234887838363,-0.3482109308242798
2024-12-07 18:07:15.987526100,7.579526123046875,-0.3640151619911194,-0.0572732836008071,-0.3649068176746368
2024-12-07 18:07:15.997500000,7.5895,-0.3790179193019867,-0.0142186069861054,-0.3747259378433227
2024-12-07 18:07:16.007474000,7.599473876953125,-0.372075617313385,0.0129688056185841,-0.3757206201553345
2024-12-07 18:07:16.017448000,7.609447998046875,-0.3647117018699646,0.0104854078963398,-0.3600558936595917
2024-12-07 18:07:16.027422000,7.619421875,-0.3579818904399872,-0.0046962080523371,-0.337795615196228
2024-12-07 18:07:16.037396000,7.62939599609375,-0.3507615625858307,-0.0154978204518556,-0.311619222164154
2024-12-07 18:07:16.047370000,7.639369873046875,-0.3349181413650512,-0.0081421714276075,-0.2899695932865143
2024-12-07 18:07:16.057344000,7.649343994140625,-0.3176296651363373,0.0428979024291038,-0.2910560071468353
2024-12-07 18:07:16.067318000,7.659318115234375,-0.3035809695720672,0.091636411845684,-0.275242418050766
2024-12-07 18:07:16.077292000,7.6692919921875,-0.318236768245697,0.1522250175476074,-0.2401221543550491
2024-12-07 18:07:16.087266000,7.67926611328125,-0.3091276884078979,0.2035859376192093,-0.2037782520055771
2024-12-07 18:07:16.097240000,7.689239990234375,-0.2916393876075744,0.2285729348659515,-0.1739018857479095
2024-12-07 18:07:16.107214000,7.699214111328125,-0.2701796293258667,0.2225467264652252,-0.1413556635379791
2024-12-07 18:07:16.117188000,7.70918798828125,-0.2432508468627929,0.1899724304676056,-0.1237425878643989
2024-12-07 18:07:16.127161900,7.719161865234375,-0.2243831604719162,0.1648886501789093,-0.1147192642092704
2024-12-07 18:07:16.137135900,7.729135986328125,-0.2131078541278839,0.1598395556211471,-0.1111298575997352
2024-12-07 18:07:16.147110000,7.73910986328125,-0.2129179686307907,0.194559708237648,-0.1128478646278381
2024-12-07 18:07:16.157084000,7.749083984375,-0.1868797689676284,0.2470435351133346,-0.1140121445059776
2024-12-07 18:07:16.167058000,7.759057861328125,-0.1982956826686859,0.2545528411865234,-0.0511940345168113
2024-12-07 18:07:16.177032000,7.769031982421875,-0.1881240755319595,0.2674306333065033,0.019917543977499
2024-12-07 18:07:16.187006000,7.779005859375,-0.1431083977222442,0.2720192670822143,0.0952117666602134
2024-12-07 18:07:16.196980000,7.78897998046875,-0.065120905637741,0.225972980260849,0.1872758418321609
2024-12-07 18:07:16.206953000,7.798952880859375,0.0226395782083272,0.167279303073883,0.2831515073776245
2024-12-07 18:07:16.216927000,7.808927001953125,0.112087607383728,0.1175865605473518,0.3583373725414276
2024-12-07 18:07:16.226901000,7.81890087890625,0.1998478174209594,0.0729613006114959,0.4190590381622314
2024-12-07 18:07:16.236875000,7.828875,0.2806289792060852,0.0074414741247892,0.4708898961544037
2024-12-07 18:07:16.246849000,7.83884912109375,0.3589019477367401,-0.0630103200674057,0.5209386348724365
2024-12-07 18:07:16.256823000,7.848822998046875,0.4437285959720611,-0.0837890654802322,0.5591443181037903
2024-12-07 18:07:16.266797000,7.858797119140625,0.554949939250946,-0.0363275371491909,0.5747248530387878
2024-12-07 18:07:16.276771000,7.86877099609375,0.6226372718811035,0.0412002280354499,0.6012133359909058
2024-12-07 18:07:16.286745000,7.8787451171875,0.6493285298347473,0.1343344300985336,0.648642361164093
2024-12-07 18:07:16.296719000,7.888718994140625,0.6565840840339661,0.1901871860027313,0.7328045964241028
2024-12-07 18:07:16.306693000,7.898693115234375,0.6536489725112915,0.2005455493927002,0.8895524144172668
2024-12-07 18:07:16.316667100,7.908667236328125,0.669198751449585,0.2531963586807251,1.117804765701294
2024-12-07 18:07:16.326641200,7.91864111328125,0.6826615929603577,0.3255829215049743,1.3328251838684082
2024-12-07 18:07:16.339108900,7.93110888671875,0.6819385886192322,0.4415796101093292,1.4738731384277344
2024-12-07 18:07:16.349083000,7.941082763671875,0.6886268258094788,0.6284163594245911,1.4858070611953735
2024-12-07 18:07:16.359057000,7.951056884765625,0.7098615765571594,1.0077050924301147,1.455264449119568
2024-12-07 18:07:16.369031000,7.961031005859375,0.750084638595581,1.5098483562469482,1.4239510297775269
2024-12-07 18:07:16.379005000,7.9710048828125,0.8221918940544128,1.927064657211304,1.447536587715149
2024-12-07 18:07:16.388979000,7.98097900390625,0.8916633725166321,2.1104660034179688,1.5593593120574951
2024-12-07 18:07:16.398953000,7.990952880859375,0.8975898623466492,1.8755191564559937,1.707447171211243
2024-12-07 18:07:16.408926000,8.000926025390624,0.8492862582206726,1.222387671470642,1.8217982053756712
2024-12-07 18:07:16.418900000,8.01089990234375,0.7487244606018066,0.5109659433364868,1.8463016748428345
2024-12-07 18:07:16.428874000,8.0208740234375,0.622122049331665,0.0261950008571147,1.7543232440948486
2024-12-07 18:07:16.438848300,8.03084814453125,0.5133559107780457,-0.0936101749539375,1.6099417209625244
2024-12-07 18:07:16.448822300,8.040822265625,0.4629622399806976,0.2054100781679153,1.4488588571548462
2024-12-07 18:07:16.458796300,8.05079638671875,0.4627452790737152,0.7975716590881348,1.2657532691955566
2024-12-07 18:07:16.468770300,8.060770263671875,0.4542910754680633,1.424793720245361,1.1006513833999634
2024-12-07 18:07:16.478744300,8.070744384765625,0.4583481848239898,1.8248370885849,0.9218323826789856
2024-12-07 18:07:16.488718300,8.08071826171875,0.5359766483306885,1.996824860572815,0.7521309852600098
2024-12-07 18:07:16.498692400,8.0906923828125,0.5929078459739685,2.0675318241119385,0.6367975473403931
2024-12-07 18:07:16.508666400,8.100666259765624,0.6122112274169922,1.939142107963562,0.5816813111305237
2024-12-07 18:07:16.518640400,8.110640380859374,0.5977455973625183,1.6661380529403689,0.496454119682312
2024-12-07 18:07:16.528614400,8.120614501953124,0.5681235194206238,1.3968719244003296,0.3839906752109527
2024-12-07 18:07:16.538588200,8.130588134765626,0.5525506734848022,1.066770315170288,0.2715076804161072
2024-12-07 18:07:16.548562200,8.140562255859376,0.533506453037262,0.6634367108345032,0.1561174243688583
2024-12-07 18:07:16.558536200,8.1505361328125,0.4694893658161163,0.3427723348140716,0.0698646903038024
2024-12-07 18:07:16.568510200,8.16051025390625,0.4041452407836914,0.0377304106950759,-0.0113105904310941
2024-12-07 18:07:16.578484200,8.170484130859375,0.368239551782608,-0.2399367690086364,-0.094762310385704
2024-12-07 18:07:16.588458200,8.180458251953125,0.3625390529632568,-0.4049952328205108,-0.1592733860015869
2024-12-07 18:07:16.598432300,8.190432373046875,0.3732998073101043,-0.5180560946464539,-0.2084045261144638
2024-12-07 18:07:16.608405200,8.2004052734375,0.3700227737426758,-0.5756237506866455,-0.2717256844043731
2024-12-07 18:07:16.618379300,8.210379150390626,0.3498936593532562,-0.5291063189506531,-0.3545397818088531
2024-12-07 18:07:16.628353300,8.220353271484376,0.3043157756328583,-0.444280058145523,-0.458513855934143
2024-12-07 18:07:16.638327300,8.230327392578126,0.2512815296649933,-0.347739040851593,-0.5759211182594299
2024-12-07 18:07:16.648301300,8.24030126953125,0.1853989362716674,-0.2903404533863067,-0.6794211268424988
2024-12-07 18:07:16.658274300,8.2502744140625,0.1073888093233108,-0.271427571773529,-0.756836473941803
2024-12-07 18:07:16.668248300,8.260248291015625,0.0156570188701152,-0.3039290606975555,-0.8002076745033264
2024-12-07 18:07:16.678222300,8.270222412109375,-0.1011322140693664,-0.3646883368492126,-0.8157011866569519
2024-12-07 18:07:16.688196400,8.2801962890625,-0.2696520090103149,-0.4394469857215881,-0.8065550923347473
2024-12-07 18:07:16.698170400,8.29017041015625,-0.4633330404758453,-0.4743258953094482,-0.7238388657569885
2024-12-07 18:07:16.708144400,8.300144287109376,-0.6392012238502502,-0.5178866982460022,-0.5796550512313843
2024-12-07 18:07:16.718118100,8.3101181640625,-0.7478177547454834,-0.5123265981674194,-0.4655091464519501
2024-12-07 18:07:16.728092200,8.320092041015625,-0.7813352346420288,-0.4801298081874847,-0.3984124064445495
2024-12-07 18:07:16.738066200,8.330066162109375,-0.7487175464630127,-0.5449823141098022,-0.3435178697109222
2024-12-07 18:07:16.748040200,8.340040283203125,-0.6651584506034851,-0.6318367719650269,-0.3194708526134491
2024-12-07 18:07:16.758014200,8.35001416015625,-0.5504817962646484,-0.639763593673706,-0.3332237601280212
2024-12-07 18:07:16.767988200,8.35998828125,-0.4107183218002319,-0.5408908128738403,-0.3271815776824951
2024-12-07 18:07:16.777962200,8.369962158203125,-0.2506985962390899,-0.3439605832099914,-0.305720716714859
2024-12-07 18:07:16.787936300,8.379936279296874,-0.0748002603650093,-0.1649570167064666,-0.2815948724746704
2024-12-07 18:07:16.797910300,8.38991015625,0.0729940831661224,-0.1409310549497604,-0.2497594058513641
2024-12-07 18:07:16.807884300,8.39988427734375,0.162274420261383,-0.2672179043292999,-0.2328829616308212
2024-12-07 18:07:16.817858300,8.4098583984375,0.1854546964168548,-0.4480224847793579,-0.2282242029905319
2024-12-07 18:07:16.827832300,8.419832275390625,0.1553841382265091,-0.5303322076797485,-0.2108838260173797
2024-12-07 18:07:16.837806300,8.429806396484375,0.0991475582122802,-0.4611237049102783,-0.1958956718444824
2024-12-07 18:07:16.847780400,8.4397802734375,0.0386610440909862,-0.3569943606853485,-0.2104032337665558
2024-12-07 18:07:16.857753300,8.44975341796875,-0.0186167638748884,-0.2975506484508514,-0.2548564374446869
2024-12-07 18:07:16.867727400,8.459727294921874,-0.0656923949718475,-0.281600683927536,-0.3229585289955139
2024-12-07 18:07:16.877701400,8.469701416015624,-0.0994027331471443,-0.261490523815155,-0.4111146926879883
2024-12-07 18:07:16.887675400,8.47967529296875,-0.0928004905581474,-0.2274148613214492,-0.4954783022403717
2024-12-07 18:07:16.897649400,8.4896494140625,-0.0374904349446296,-0.1923558562994003,-0.5517044067382812
2024-12-07 18:07:16.907623200,8.499623046875,0.0449626296758651,-0.1821857690811157,-0.5719020962715149
2024-12-07 18:07:16.917597200,8.50959716796875,0.0946894958615303,-0.2372355461120605,-0.5232406258583069
2024-12-07 18:07:16.927571200,8.5195712890625,0.0514370948076248,-0.3691935837268829,-0.3943952918052673
2024-12-07 18:07:16.937545200,8.529545166015625,-0.0611366964876651,-0.4749517440795898,-0.1850030720233917
2024-12-07 18:07:16.947519200,8.539519287109375,-0.1622582525014877,-0.4565556943416595,0.0232577137649059
2024-12-07 18:07:16.957493200,8.5494931640625,-0.2361264824867248,-0.3183916211128235,0.1342029124498367
2024-12-07 18:07:16.967467300,8.55946728515625,-0.2871657013893127,-0.2150777280330658,0.0696715787053108
2024-12-07 18:07:16.977441300,8.569441162109374,-0.3274616003036499,-0.1960740834474563,-0.1425072252750396
2024-12-07 18:07:16.987415300,8.579415283203126,-0.3894144296646118,-0.3151008784770965,-0.3701648712158203
2024-12-07 18:07:16.997389300,8.589389404296876,-0.470520555973053,-0.5148581862449646,-0.4679479300975799
2024-12-07 18:07:17.007363300,8.59936328125,-0.5689632296562195,-0.6538161039352417,-0.3977826833724975
2024-12-07 18:07:17.017337300,8.60933740234375,-0.6841485500335693,-0.6499572396278381,-0.2253337800502777
2024-12-07 18:07:17.027311400,8.619311279296875,-0.8019721508026123,-0.5242528319358826,-0.0538461878895759
2024-12-07 18:07:17.037285400,8.629285400390625,-0.8706601858139038,-0.3425429761409759,0.0379317216575145
2024-12-07 18:07:17.047259400,8.63925927734375,-0.8457873463630676,-0.1611670702695846,0.0030461740680038
2024-12-07 18:07:17.057233400,8.6492333984375,-0.7562437057495117,-0.0052995607256889,-0.1423802971839904
2024-12-07 18:07:17.067206400,8.659206298828124,-0.615892767906189,0.0554689802229404,-0.3621214628219604
2024-12-07 18:07:17.077180400,8.669180419921876,-0.4407609403133392,-0.030174434185028,-0.5644297003746033
2024-12-07 18:07:17.087154400,8.679154541015626,-0.2588694393634796,-0.2439668774604797,-0.6470726728439331
2024-12-07 18:07:17.097128400,8.68912841796875,-0.1085742190480232,-0.5059774518013,-0.6125578284263611
2024-12-07 18:07:17.107102500,8.6991025390625,-0.0088422950357198,-0.7263085246086121,-0.5354979038238525
2024-12-07 18:07:17.117076500,8.709076416015625,0.0129031222313642,-0.8203617930412292,-0.4756569564342499
2024-12-07 18:07:17.127050500,8.719050537109375,-0.0007021694909781,-0.8146037459373474,-0.4569085538387298
2024-12-07 18:07:17.137024500,8.7290244140625,-0.0264896173030138,-0.7429841160774231,-0.4449359476566314
2024-12-07 18:07:17.146998500,8.73899853515625,-0.0700288414955139,-0.6582620143890381,-0.4195605516433716
2024-12-07 18:07:17.156972300,8.74897216796875,-0.1109807938337326,-0.5831151008605957,-0.3696183264255523
2024-12-07 18:07:17.166946300,8.7589462890625,-0.139100044965744,-0.5262278318405151,-0.2905575931072235
2024-12-07 18:07:17.176920300,8.76892041015625,-0.1505966484546661,-0.4607774019241333,-0.2080475687980651
2024-12-07 18:07:17.186894300,8.778894287109376,-0.1534036099910736,-0.3429620862007141,-0.15396249294281
2024-12-07 18:07:17.196868400,8.788868408203125,-0.1599782109260559,-0.20224130153656,-0.1349992007017135
2024-12-07 18:07:17.206842400,8.79884228515625,-0.1753941923379898,-0.1004784628748893,-0.1248490959405899
2024-12-07 18:07:17.216816400,8.80881640625,-0.1795274764299392,-0.0214658975601196,-0.1154309138655662
2024-12-07 18:07:17.226790400,8.818790283203125,-0.1682029068470001,0.0832288190722465,-0.1183119192719459
2024-12-07 18:07:17.236764200,8.82876416015625,-0.1322520226240158,0.1933422684669494,-0.1557287871837616
2024-12-07 18:07:17.246738200,8.83873828125,-0.1392907500267028,0.2658300399780273,-0.1885868608951568
2024-12-07 18:07:17.256712200,8.848712158203124,-0.1352203041315078,0.2897702157497406,-0.2336919456720352
2024-12-07 18:07:17.266686200,8.858686279296874,-0.1011217236518859,0.2193202972412109,-0.2846954762935638
2024-12-07 18:07:17.276659200,8.8686591796875,-0.0826441645622253,0.1005651727318763,-0.3195459246635437
2024-12-07 18:07:17.286633200,8.87863330078125,-0.0616715066134929,-0.0019795759581029,-0.3442067801952362
2024-12-07 18:07:17.296607200,8.888607177734375,-0.0330725461244583,-0.0636919811367988,-0.3534356355667114
2024-12-07 18:07:17.306581200,8.898581298828125,-0.0083112735301256,-0.1130621954798698,-0.3490528762340545
2024-12-07 18:07:17.316555300,8.90855517578125,-0.0290449932217597,-0.1662474870681762,-0.3291505873203277
2024-12-07 18:07:17.326529300,8.918529296875,-0.0585581436753273,-0.2013503462076187,-0.3192028701305389
2024-12-07 18:07:17.336503300,8.92850341796875,-0.0820222347974777,-0.2254624813795089,-0.334016740322113
2024-12-07 18:07:17.346477300,8.938477294921874,-0.1053422093391418,-0.2351814210414886,-0.3457458317279815
2024-12-07 18:07:17.356451300,8.948451416015626,-0.125608205795288,-0.2069555222988128,-0.3527208864688873
2024-12-07 18:07:17.366425300,8.95842529296875,-0.1792349517345428,-0.1505204737186432,-0.3337056338787079
2024-12-07 18:07:17.376399400,8.9683994140625,-0.2043207436800003,-0.0902400389313697,-0.3187432885169983
2024-12-07 18:07:17.386373400,8.978373291015625,-0.2192525565624237,-0.0811669155955314,-0.3079055547714233
2024-12-07 18:07:17.396347400,8.988347412109375,-0.2159857302904129,-0.0625878274440765,-0.3018355667591095
2024-12-07 18:07:17.406321400,8.9983212890625,-0.2132834196090698,-0.0408385880291461,-0.2846360802650451
2024-12-07 18:07:17.416295200,9.008295166015625,-0.2307325899600982,-0.0305935852229595,-0.2544583678245544
2024-12-07 18:07:17.426269200,9.018269287109376,-0.2080605626106262,-0.0319909453392028,-0.2506332695484161
2024-12-07 18:07:17.436243000,9.028242919921874,-0.1889468282461166,-0.0192044079303741,-0.2469371557235717
2024-12-07 18:07:17.446217000,9.038217041015624,-0.1844847053289413,0.0066684670746326,-0.2439019531011581
2024-12-07 18:07:17.456191000,9.04819091796875,-0.1900312006473541,0.04102773219347,-0.2508497834205627
2024-12-07 18:07:17.466165000,9.0581650390625,-0.2041704654693603,0.0843435153365135,-0.2535251975059509
2024-12-07 18:07:17.476139000,9.068138916015624,-0.2080973088741302,0.1091065853834152,-0.2490669339895248
2024-12-07 18:07:17.486112000,9.078112060546877,-0.1919452250003814,0.1296432912349701,-0.2658964991569519
2024-12-07 18:07:17.496086000,9.0880859375,-0.2364952713251114,0.10112065076828,-0.2441138923168182
2024-12-07 18:07:17.506060000,9.09806005859375,-0.2575813829898834,0.0855792462825775,-0.2324548363685608
2024-12-07 18:07:17.516034000,9.108033935546874,-0.2946437895298004,0.0627109706401825,-0.1883862465620041
2024-12-07 18:07:17.526008000,9.118008056640624,-0.3083422780036926,0.0596241056919097,-0.1517792344093322
2024-12-07 18:07:17.535982000,9.127982177734374,-0.3012802898883819,0.063541367650032,-0.1172503307461738
2024-12-07 18:07:17.545956000,9.1379560546875,-0.2945347726345062,0.0714861080050468,-0.0852167606353759
2024-12-07 18:07:17.555930000,9.14793017578125,-0.2772758305072784,0.1009559780359268,-0.0752530694007873
2024-12-07 18:07:17.565904100,9.157904052734375,-0.2498021423816681,0.1128813475370407,-0.0906200408935546
2024-12-07 18:07:17.575878100,9.167878173828123,-0.2246855646371841,0.1019212380051612,-0.1173533722758293
2024-12-07 18:07:17.585852200,9.17785205078125,-0.2119159698486328,0.0779136419296264,-0.1331693530082702
2024-12-07 18:07:17.595826200,9.187826171875,-0.2067525535821914,0.0567382723093032,-0.1338078826665878
2024-12-07 18:07:17.605800200,9.19780029296875,-0.2095376849174499,0.0448075756430625,-0.1230393946170806
2024-12-07 18:07:17.615774200,9.207774169921874,-0.2204797118902206,0.0206588804721832,-0.0969589054584503
2024-12-07 18:07:17.625748200,9.217748291015624,-0.2272523939609527,0.0005056757945567,-0.0856806859374046
2024-12-07 18:07:17.635722200,9.22772216796875,-0.216799721121788,0.0298338439315557,-0.1087275967001915
2024-12-07 18:07:17.645696300,9.2376962890625,-0.1764368563890457,0.0597672425210475,-0.153415709733963
2024-12-07 18:07:17.655670300,9.247670166015626,-0.1808178424835205,0.0689077377319336,-0.1436587125062942
2024-12-07 18:07:17.665644300,9.257644287109375,-0.1776534765958786,0.1080876365303993,-0.1261042207479477
2024-12-07 18:07:17.675618000,9.2676181640625,-0.1670931875705719,0.1821334958076477,-0.0859677046537399
2024-12-07 18:07:17.685591000,9.277591064453125,-0.1566410809755325,0.3097737431526184,-0.0290405098348855
2024-12-07 18:07:17.695565000,9.28756494140625,-0.1114026606082916,0.4056273400783539,0.0326509773731231
2024-12-07 18:07:17.705539000,9.2975390625,-0.0811400935053825,0.4235064685344696,0.1150406524538993
2024-12-07 18:07:17.715513000,9.30751318359375,-0.038549069315195,0.4193452298641205,0.1536097377538681
2024-12-07 18:07:17.725487000,9.317487060546876,-0.0003106051590293,0.3972282111644745,0.1586481630802154
2024-12-07 18:07:17.735461000,9.327461181640626,0.0483591631054878,0.3300642371177673,0.1779816299676895
2024-12-07 18:07:17.745435000,9.337434814453124,0.1015478149056434,0.217397078871727,0.2356486618518829
2024-12-07 18:07:17.755409000,9.347408935546875,0.1627546101808548,0.1398833692073822,0.3128140866756439
2024-12-07 18:07:17.765383000,9.3573828125,0.2538509666919708,0.1109569072723388,0.4016592502593994
2024-12-07 18:07:17.775357000,9.36735693359375,0.3586578369140625,0.1273186653852462,0.4635655581951141
2024-12-07 18:07:17.785331000,9.3773310546875,0.4627549350261688,0.1749828606843948,0.4956249594688415
2024-12-07 18:07:17.795305000,9.387304931640625,0.5349688529968262,0.2244408577680587,0.5317738056182861
2024-12-07 18:07:17.805279000,9.397279052734374,0.5560405850410461,0.2548677623271942,0.6183976531028748
2024-12-07 18:07:17.815253000,9.4072529296875,0.5504374504089355,0.2468441277742386,0.7663462162017822
2024-12-07 18:07:17.825227000,9.41722705078125,0.5431901812553406,0.2141327857971191,0.9402719140052797
2024-12-07 18:07:17.835201000,9.427200927734376,0.5490571856498718,0.2150369435548782,1.1005345582962036
2024-12-07 18:07:17.845175000,9.437175048828124,0.560761034488678,0.3109142184257507,1.2349128723144531
2024-12-07 18:07:17.855149000,9.447149169921875,0.5791113376617432,0.4961037933826446,1.347630262374878
2024-12-07 18:07:17.865123000,9.457123046875,0.6125486493110657,0.6967793703079224,1.4211111068725586
2024-12-07 18:07:17.875097000,9.46709716796875,0.6430485248565674,0.9047861099243164,1.4449230432510376
2024-12-07 18:07:17.885071000,9.477071044921876,0.6621399521827698,1.1567909717559814,1.4281387329101562
2024-12-07 18:07:17.895044000,9.487044189453124,0.667790412902832,1.4030457735061646,1.3941940069198608
2024-12-07 18:07:17.905018000,9.49701806640625,0.6588746905326843,1.559106469154358,1.3486521244049072
2024-12-07 18:07:17.914992000,9.5069921875,0.6353728175163269,1.634379267692566,1.3031041622161863
2024-12-07 18:07:17.924966100,9.516966064453126,0.5884894728660583,1.694309949874878,1.2556171417236328
2024-12-07 18:07:17.934940200,9.526940185546875,0.5311510562896729,1.7503337860107422,1.191158890724182
2024-12-07 18:07:17.944914200,9.5369140625,0.4766609370708465,1.7550488710403442,1.112929344177246
2024-12-07 18:07:17.954888200,9.54688818359375,0.4287131726741791,1.6883304119110107,1.0242613554000854
2024-12-07 18:07:17.964862200,9.5568623046875,0.4013481140136719,1.4957356452941897,0.9424057602882384
2024-12-07 18:07:17.974836200,9.566836181640625,0.3706821203231811,1.2444322109222412,0.8897241353988647
2024-12-07 18:07:17.984810200,9.576810302734376,0.3443540930747986,1.0353466272354126,0.8560023903846741
2024-12-07 18:07:17.994784000,9.586783935546874,0.3380127847194671,0.8987780809402466,0.8154899477958679
2024-12-07 18:07:18.004758000,9.596758056640626,0.3431356549263,0.8405083417892456,0.7582186460494995
2024-12-07 18:07:18.014732000,9.60673193359375,0.354943037033081,0.8513302803039551,0.6593930721282959
2024-12-07 18:07:18.024706000,9.6167060546875,0.3804132640361786,0.8915863633155823,0.4910674393177032
2024-12-07 18:07:18.034680000,9.62668017578125,0.4303081333637237,0.9586723446846008,0.3221307098865509
2024-12-07 18:07:18.044654000,9.636654052734375,0.4705849885940552,1.0132125616073608,0.1889193803071975
2024-12-07 18:07:18.054628000,9.646628173828123,0.4847002327442169,1.0301601886749268,0.0855601578950882
2024-12-07 18:07:18.064602000,9.65660205078125,0.4735383987426758,0.955037534236908,-0.0051684118807315
2024-12-07 18:07:18.074576100,9.666576171875,0.4394477605819702,0.772554874420166,-0.1107299402356147
2024-12-07 18:07:18.084550100,9.676550048828124,0.3876040279865265,0.4989164471626282,-0.2131657749414444
2024-12-07 18:07:18.094523000,9.68652294921875,0.3360843658447265,0.2398297935724258,-0.2856775820255279
2024-12-07 18:07:18.104497000,9.696496826171876,0.3019666075706482,-0.0007985238917171,-0.2921410799026489
2024-12-07 18:07:18.114471000,9.706470947265624,0.2660997807979584,-0.1816595643758773,-0.2583047151565552
2024-12-07 18:07:18.124445000,9.71644482421875,0.2182840704917907,-0.3000996708869934,-0.2180403918027877
2024-12-07 18:07:18.134419000,9.7264189453125,0.1734800040721893,-0.3200638592243194,-0.200772538781166
2024-12-07 18:07:18.144393000,9.73639306640625,0.1387606263160705,-0.283268541097641,-0.1974587738513946
2024-12-07 18:07:18.154367000,9.746366943359376,0.1141305416822433,-0.2659852802753448,-0.2184507101774215
2024-12-07 18:07:18.164341000,9.756341064453125,0.0709918588399887,-0.28943732380867,-0.265811562538147
2024-12-07 18:07:18.174315000,9.76631494140625,-0.0193009357899427,-0.3017683029174804,-0.326181948184967
2024-12-07 18:07:18.184289000,9.7762890625,-0.1270380467176437,-0.2461316883563995,-0.3682993054389953
2024-12-07 18:07:18.194263000,9.786262939453126,-0.2460501492023468,-0.1342098116874694,-0.3974100351333618
2024-12-07 18:07:18.204237000,9.796237060546876,-0.3798050284385681,-0.0210419800132513,-0.3963519632816314
2024-12-07 18:07:18.214211000,9.806211181640624,-0.5016369223594666,-0.0086519196629524,-0.3447126746177673
2024-12-07 18:07:18.224185000,9.81618505859375,-0.590008556842804,-0.0184084102511405,-0.3016679883003235
2024-12-07 18:07:18.234159000,9.8261591796875,-0.6463061571121216,-0.0731478631496429,-0.255623459815979
2024-12-07 18:07:18.244133000,9.836133056640625,-0.6778896450996399,-0.1976389288902282,-0.1836744248867035
2024-12-07 18:07:18.254107000,9.84610693359375,-0.6779463887214661,-0.2751973569393158,-0.1362184882164001
2024-12-07 18:07:18.264081000,9.856080810546874,-0.6337912082672119,-0.3269761502742767,-0.1201034486293792
2024-12-07 18:07:18.274055000,9.866054931640624,-0.5687823295593262,-0.3817679584026336,-0.1262549459934234
2024-12-07 18:07:18.284028200,9.876028076171876,-0.4903042614459991,-0.407034695148468,-0.1536974906921386
2024-12-07 18:07:18.294002200,9.886002197265626,-0.3836553692817688,-0.3302127122879028,-0.1950322091579437
2024-12-07 18:07:18.303976000,9.895975830078124,-0.2497233897447586,-0.1700512617826461,-0.2463353425264358
2024-12-07 18:07:18.313950000,9.905949951171875,-0.1028204411268234,-0.0370775833725929,-0.266923576593399
2024-12-07 18:07:18.323924000,9.915924072265623,0.0504117235541343,-0.0205039344727993,-0.2400461435317993
2024-12-07 18:07:18.333898000,9.92589794921875,0.1811729371547699,-0.1456109434366226,-0.2019062787294387
2024-12-07 18:07:18.343872000,9.9358720703125,0.2469064146280288,-0.3024442493915558,-0.2109604924917221
2024-12-07 18:07:18.353846000,9.945845947265624,0.2374384552240371,-0.4287193119525909,-0.2843075394630432
2024-12-07 18:07:18.363820000,9.955820068359374,0.1972050070762634,-0.5493485331535339,-0.3878770768642425
2024-12-07 18:07:18.373794000,9.9657939453125,0.1492563337087631,-0.598465621471405,-0.4852019548416137
2024-12-07 18:07:18.383768000,9.97576806640625,0.1178757920861244,-0.5667247176170349,-0.5324463844299316
2024-12-07 18:07:18.393742000,9.9857421875,0.1047770977020263,-0.4779514968395233,-0.4809112548828125
2024-12-07 18:07:18.403716000,9.995716064453124,0.1086413487792015,-0.3753122091293335,-0.3300122916698456
2024-12-07 18:07:18.413690000,10.005690185546875,0.1409599184989929,-0.2375883013010025,-0.1229885220527648
2024-12-07 18:07:18.423664000,10.0156640625,0.1948234140872955,-0.1027961298823356,0.0259711313992738
2024-12-07 18:07:18.433638400,10.025638427734377,0.2187914997339248,-0.0509534627199173,0.0356826595962047
2024-12-07 18:07:18.443612400,10.0356123046875,0.1708607226610183,-0.095451682806015,-0.0621759928762912
2024-12-07 18:07:18.453586400,10.04558642578125,0.062302753329277,-0.2503376007080078,-0.1833022981882095
2024-12-07 18:07:18.463560400,10.055560546875,-0.0772937536239624,-0.5321295857429504,-0.2738737463951111
2024-12-07 18:07:18.473533400,10.065533447265626,-0.2208103686571121,-0.8740558624267578,-0.2901706099510193
2024-12-07 18:07:18.483507500,10.075507568359376,-0.3450089991092682,-1.113006591796875,-0.2149395048618316
2024-12-07 18:07:18.493481500,10.0854814453125,-0.4074547886848449,-1.1785815954208374,-0.0873485952615737
2024-12-07 18:07:18.503455500,10.09545556640625,-0.3895743191242218,-1.081472873687744,0.0094985943287611
2024-12-07 18:07:18.513429500,10.105429443359377,-0.3130002915859222,-0.8852671384811401,0.0018515782430768
2024-12-07 18:07:18.523403500,10.115403564453125,-0.2157467156648636,-0.7064552903175354,-0.1662183851003646
2024-12-07 18:07:18.533377500,10.12537744140625,-0.1006825044751167,-0.5703573226928711,-0.4441102743148803
2024-12-07 18:07:18.543351300,10.135351318359374,0.0031834375113248,-0.4644618332386017,-0.6832131743431091
2024-12-07 18:07:18.553325300,10.1453251953125,0.0289088711142539,-0.4607680141925812,-0.7331240177154541
2024-12-07 18:07:18.563299300,10.15529931640625,-0.0064206235110759,-0.5458772778511047,-0.605742335319519
2024-12-07 18:07:18.573273300,10.1652734375,-0.1007999926805496,-0.6387118101119995,-0.3884912431240082
2024-12-07 18:07:18.583247400,10.175247314453124,-0.239858016371727,-0.6572998762130737,-0.160635694861412
2024-12-07 18:07:18.593221400,10.185221435546875,-0.3798362910747528,-0.582521915435791,-0.0025735367089509
2024-12-07 18:07:18.603195400,10.1951953125,-0.4894389510154724,-0.4290468990802765,0.079046219587326
2024-12-07 18:07:18.613169400,10.20516943359375,-0.563383936882019,-0.2676708400249481,0.0998240262269973
2024-12-07 18:07:18.623143400,10.215143310546877,-0.61359703540802,-0.1188560500741005,0.0741396993398666
2024-12-07 18:07:18.633117400,10.225117431640625,-0.6363665461540222,-0.0184048302471637,0.0228454302996397
2024-12-07 18:07:18.643091500,10.235091552734374,-0.615746259689331,0.002625620458275,-0.034907080233097
2024-12-07 18:07:18.653065500,10.2450654296875,-0.539174497127533,-0.0725219994783401,-0.1220438629388809
2024-12-07 18:07:18.663038500,10.25503857421875,-0.4250378608703613,-0.218551367521286,-0.2491144686937332
2024-12-07 18:07:18.673012500,10.265012451171875,-0.3024574220180511,-0.3617849349975586,-0.423431247472763
2024-12-07 18:07:18.682986500,10.274986572265624,-0.1626510471105575,-0.483279138803482,-0.5744546055793762
2024-12-07 18:07:18.692960500,10.28496044921875,-0.0005145313334651,-0.6096304655075073,-0.6512632369995117
2024-12-07 18:07:18.702934500,10.2949345703125,0.1320488303899765,-0.7098912596702576,-0.6582928895950317
2024-12-07 18:07:18.712908500,10.304908447265625,0.2084183990955352,-0.7544152140617371,-0.6302399039268494
2024-12-07 18:07:18.722882600,10.314882568359376,0.2508236169815063,-0.7315418720245361,-0.5969213843345642
2024-12-07 18:07:18.732856600,10.324856689453124,0.2588382959365845,-0.6455980539321899,-0.570405900478363
2024-12-07 18:07:18.742830600,10.33483056640625,0.2143845409154892,-0.5341751575469971,-0.5252605676651001
2024-12-07 18:07:18.752804600,10.3448046875,0.1299206912517547,-0.4338312149047851,-0.4326083064079284
2024-12-07 18:07:18.762778600,10.354778564453126,0.0186261273920536,-0.3488313555717468,-0.3122936189174652
2024-12-07 18:07:18.772752600,10.364752685546875,-0.1010606214404106,-0.2439692467451095,-0.18826924264431
2024-12-07 18:07:18.782726400,10.374726318359375,-0.1996548324823379,-0.1294218897819519,-0.0986512005329132
2024-12-07 18:07:18.792700400,10.384700439453123,-0.290522038936615,-0.0341342091560363,-0.0572804361581802
2024-12-07 18:07:18.802674400,10.39467431640625,-0.3370157778263092,0.0468578450381755,-0.0660283863544464
2024-12-07 18:07:18.812648400,10.4046484375,-0.3299027383327484,0.0978547558188438,-0.1042093932628631
2024-12-07 18:07:18.822622500,10.41462255859375,-0.2965077459812164,0.125451773405075,-0.1650972366333007
2024-12-07 18:07:18.832596500,10.424596435546874,-0.2732981443405151,0.1160314008593559,-0.2371100038290023
2024-12-07 18:07:18.842569500,10.434569580078126,-0.2327467054128646,0.0494134947657585,-0.3168522417545318
2024-12-07 18:07:18.852543200,10.444543212890624,-0.1693558245897293,-0.0679402872920036,-0.3903781175613403
2024-12-07 18:07:18.862517200,10.454517333984375,-0.1074285507202148,-0.2040672451257705,-0.451586365699768
2024-12-07 18:07:18.872491300,10.4644912109375,-0.0665134862065315,-0.3368938863277435,-0.4971992969512939
2024-12-07 18:07:18.882465300,10.47446533203125,-0.0438478626310825,-0.4408117830753326,-0.5217586755752563
2024-12-07 18:07:18.892439300,10.484439208984377,-0.0462367758154869,-0.5028111338615417,-0.5254356265068054
2024-12-07 18:07:18.902413300,10.494413330078125,-0.0583805255591869,-0.5521882772445679,-0.500359296798706
2024-12-07 18:07:18.912387300,10.50438720703125,-0.0627777278423309,-0.5755805969238281,-0.4699733555316925
2024-12-07 18:07:18.922361300,10.514361328125,-0.1209462285041809,-0.564916729927063,-0.4141857326030731
2024-12-07 18:07:18.932335400,10.52433544921875,-0.1627730727195739,-0.5057331919670105,-0.3613814413547516
2024-12-07 18:07:18.942309400,10.534309326171876,-0.2110612392425537,-0.4220249354839325,-0.3107374608516693
2024-12-07 18:07:18.952283400,10.544283447265624,-0.2253625988960266,-0.316305011510849,-0.2877462208271026
2024-12-07 18:07:18.962257400,10.55425732421875,-0.2317584604024887,-0.2026130408048629,-0.3067164719104767
2024-12-07 18:07:18.972231400,10.5642314453125,-0.2816527187824249,-0.1116811484098434,-0.3137296140193939
2024-12-07 18:07:18.982205400,10.574205322265623,-0.3017571866512298,-0.0109444176778197,-0.3401143252849579
2024-12-07 18:07:18.992179500,10.584179443359377,-0.3487912714481354,0.0600361451506614,-0.3583524525165558
2024-12-07 18:07:19.002153500,10.594153564453125,-0.3898630738258362,0.0797235593199729,-0.3727335333824157
2024-12-07 18:07:19.012127500,10.60412744140625,-0.4151900708675384,0.0850370824337005,-0.3657227158546448
2024-12-07 18:07:19.022101500,10.6141015625,-0.45616015791893,0.0913477092981338,-0.3408136367797851
2024-12-07 18:07:19.032074500,10.624074462890626,-0.4947066903114319,0.1114901527762413,-0.3000241816043854
2024-12-07 18:07:19.042048500,10.634048583984375,-0.5176130533218384,0.1556906253099441,-0.2542667984962463
2024-12-07 18:07:19.052022500,10.6440224609375,-0.5283756852149963,0.2401653677225113,-0.2302108705043792
2024-12-07 18:07:19.061996500,10.65399658203125,-0.5326287746429443,0.3471498787403106,-0.2312265932559967
2024-12-07 18:07:19.071970600,10.663970458984377,-0.53157639503479,0.4760510325431824,-0.2539410889148712
2024-12-07 18:07:19.081944600,10.673944580078125,-0.5107424855232239,0.5635356307029724,-0.2491910606622696
2024-12-07 18:07:19.091918600,10.683918701171876,-0.4748636186122894,0.5876885056495667,-0.1924420893192291
2024-12-07 18:07:19.101892400,10.693892333984374,-0.4190621376037597,0.5231484174728394,-0.0780148431658744
2024-12-07 18:07:19.111866400,10.703866455078124,-0.3583966493606567,0.4361672401428222,0.0053941523656249
2024-12-07 18:07:19.121840400,10.71384033203125,-0.3011655807495117,0.336626797914505,0.0386967174708843
2024-12-07 18:07:19.131814400,10.723814453125,-0.2306787669658661,0.1908284425735473,0.0341744422912597
2024-12-07 18:07:19.141788400,10.733788330078124,-0.1515130996704101,-0.0026478031650185,0.0081614833325147
2024-12-07 18:07:19.151762400,10.743762451171875,-0.0721032097935676,-0.1658763736486435,-0.0248676389455795
2024-12-07 18:07:19.161736400,10.753736328125,0.0031894107814878,-0.2332652658224105,-0.0343101434409618
2024-12-07 18:07:19.171710500,10.76371044921875,0.0963304042816162,-0.1692512929439544,-0.0314781069755554
2024-12-07 18:07:19.181684500,10.7736845703125,0.1614811718463897,-0.027427302673459,-0.009353095665574
2024-12-07 18:07:19.191658500,10.783658447265625,0.1549549549818039,0.1134974434971809,0.0820852369070053
2024-12-07 18:07:19.201632500,10.793632568359374,0.1642954647541046,0.2373746484518051,0.2029623985290527
2024-12-07 18:07:19.211605500,10.80360546875,0.2097057998180389,0.2949420213699341,0.3360923528671264
2024-12-07 18:07:19.221579500,10.81357958984375,0.3007816672325134,0.3090586364269256,0.369491845369339
2024-12-07 18:07:19.231553300,10.82355322265625,0.3870770037174225,0.1473408043384552,0.4791182577610016
2024-12-07 18:07:19.241527300,10.83352734375,0.4060855805873871,0.0569126419723033,0.5489128232002258
2024-12-07 18:07:19.251501300,10.843501220703123,0.4106681644916534,0.065417930483818,0.5472145080566406
2024-12-07 18:07:19.261475300,10.853475341796877,0.4604775607585907,0.1032571867108345,0.5024675726890564
2024-12-07 18:07:19.271449300,10.863449462890625,0.4785028398036957,0.08658217638731,0.5196892023086548
2024-12-07 18:07:19.281423400,10.87342333984375,0.4997996091842651,0.0109510663896799,0.6241602301597595
2024-12-07 18:07:19.291397400,10.8833974609375,0.5326250791549683,-0.1059033349156379,0.8081454634666443
2024-12-07 18:07:19.301371400,10.893371337890626,0.5601888298988342,-0.1879233568906784,1.017688512802124
2024-12-07 18:07:19.311345400,10.903345458984376,0.5831320285797119,-0.1944571435451507,1.203895926475525
2024-12-07 18:07:19.321319400,10.9133193359375,0.6101394295692444,-0.1004678010940551,1.3470035791397097
2024-12-07 18:07:19.331293400,10.92329345703125,0.637244462966919,0.1120535284280777,1.441311955451965
2024-12-07 18:07:19.341267500,10.933267333984375,0.6697800755500793,0.4562085270881653,1.4943333864212036
2024-12-07 18:07:19.351241500,10.943241455078123,0.718783974647522,0.8877588510513306,1.5259183645248413
2024-12-07 18:07:19.361215200,10.95321533203125,0.7884435057640076,1.3169728517532349,1.531000733375549
2024-12-07 18:07:19.371189200,10.963189208984376,0.8613036870956421,1.6860307455062866,1.520796298980713
2024-12-07 18:07:19.381162500,10.97316259765625,0.8896299004554749,1.9562348127365112,1.5153850317001345
2024-12-07 18:07:19.391136500,10.983136474609376,0.8548071384429932,1.944608449935913,1.5154064893722534
2024-12-07 18:07:19.401110500,10.993110595703126,0.7794764041900635,1.5748538970947266,1.5245720148086548
2024-12-07 18:07:19.411084300,11.003084228515624,0.6836140751838684,1.0428779125213623,1.5231488943099976
2024-12-07 18:07:19.421058300,11.013058349609375,0.5939304828643799,0.5984322428703308,1.4922258853912354
2024-12-07 18:07:19.431032300,11.0230322265625,0.5509777665138245,0.4096660017967224,1.4134571552276611
2024-12-07 18:07:19.441006300,11.03300634765625,0.5501590967178345,0.5134512782096863,1.2798333168029783
2024-12-07 18:07:19.450980400,11.04298046875,0.5571699142456055,0.8174824118614197,1.1093544960021973
2024-12-07 18:07:19.460954400,11.052954345703125,0.4131416380405426,1.5104361772537231,0.6178885698318481
2024-12-07 18:07:19.470928400,11.062928466796874,0.3692710995674133,2.417181491851806,0.0432053133845329
2024-12-07 18:07:19.480902400,11.07290234375,0.6626622676849365,2.442291021347046,0.2482303529977798
2024-12-07 18:07:19.490876400,11.08287646484375,0.8752979636192322,2.114067792892456,0.6731947660446167
2024-12-07 18:07:19.500850400,11.092850341796876,0.91057151556015,1.7527755498886108,0.9105327129364014
2024-12-07 18:07:19.510824400,11.102824462890624,0.8430306911468506,1.365481972694397,0.8804326057434082
2024-12-07 18:07:19.520798500,11.112798583984375,0.7297150492668152,1.0054689645767212,0.646582305431366
2024-12-07 18:07:19.530772500,11.1227724609375,0.6314511299133301,0.6470438838005066,0.3244231045246124
2024-12-07 18:07:19.540746500,11.13274658203125,0.561385452747345,0.3101372420787811,0.0402725934982299
2024-12-07 18:07:19.550719500,11.142719482421874,0.5022848844528198,0.0771129801869392,-0.1515880674123764
2024-12-07 18:07:19.560693500,11.152693603515624,0.470456063747406,-0.0937407836318016,-0.2558212578296661
2024-12-07 18:07:19.570667500,11.16266748046875,0.4790463149547577,-0.2331483662128448,-0.2849436700344085
2024-12-07 18:07:19.580641500,11.1726416015625,0.5109432339668274,-0.3120333552360534,-0.2618426084518432
2024-12-07 18:07:19.590615600,11.182615478515626,0.5144650340080261,-0.3768920302391052,-0.212607279419899
2024-12-07 18:07:19.600589600,11.192589599609375,0.473554402589798,-0.4331334829330444,-0.2059272676706314
2024-12-07 18:07:19.610563600,11.2025634765625,0.4072644710540771,-0.4970521926879883,-0.2507628202438354
2024-12-07 18:07:19.620537600,11.21253759765625,0.3257301747798919,-0.5878502726554871,-0.3269955515861511
2024-12-07 18:07:19.630511600,11.22251171875,0.2642915844917297,-0.6479772329330444,-0.4252824783325195
2024-12-07 18:07:19.640485600,11.232485595703125,0.2361632883548736,-0.6559706926345825,-0.5473846793174744
2024-12-07 18:07:19.650459600,11.242459716796876,0.2141528129577636,-0.6337853670120239,-0.6573771834373474
2024-12-07 18:07:19.660433400,11.252433349609374,0.1480875164270401,-0.5573809146881104,-0.7400869727134705
2024-12-07 18:07:19.670407400,11.262407470703126,0.0387150980532169,-0.4429005086421966,-0.7747019529342651
2024-12-07 18:07:19.680381400,11.27238134765625,-0.0967686995863914,-0.3252511024475097,-0.7661628127098083
2024-12-07 18:07:19.690355500,11.28235546875,-0.2556690573692322,-0.2145233750343322,-0.7211447954177856
2024-12-07 18:07:19.700329500,11.29232958984375,-0.4215664267539978,-0.147184818983078,-0.6173041462898254
2024-12-07 18:07:19.710303500,11.302303466796875,-0.5723572373390198,-0.2103379219770431,-0.489704966545105
2024-12-07 18:07:19.720276500,11.3122763671875,-0.6782245635986328,-0.2598511278629303,-0.4408136010169983
2024-12-07 18:07:19.730250200,11.322250244140625,-0.7462016344070435,-0.2609980702400207,-0.4596092700958252
2024-12-07 18:07:19.740224300,11.332224365234374,-0.790831446647644,-0.3068521022796631,-0.4418326914310455
