time,seconds_elapsed,z,y,x
2024-12-07 17:55:49.091079700,0.03607958984375,0.3014184534549713,-0.0832783803343772,-0.3498321175575256
2024-12-07 17:55:49.101052700,0.046052734375,0.3728713393211365,-0.1533211171627044,-0.3898296058177948
2024-12-07 17:55:49.111026700,0.056026611328125,0.4569690227508545,-0.2359454482793808,-0.4382431209087372
2024-12-07 17:55:49.120999700,0.065999755859375,0.5353647470474243,-0.3631236255168915,-0.4318669736385345
2024-12-07 17:55:49.130972700,0.07597265625,0.6124911904335022,-0.4443083703517914,-0.5171515345573425
2024-12-07 17:55:49.140945700,0.085945556640625,0.7184141278266907,-0.4367319345474243,-0.7125937342643738
2024-12-07 17:55:49.150918700,0.095918701171875,0.8022748827934265,-0.3743700981140136,-0.9014362692832948
2024-12-07 17:55:49.160891600,0.1058916015625,0.8499047160148621,-0.3305451273918152,-1.0293362140655518
2024-12-07 17:55:49.170865700,0.11586572265625,0.8818761706352234,-0.333564430475235,-1.1421140432357788
2024-12-07 17:55:49.180838700,0.125838623046875,0.9714481234550476,-0.5392968058586121,-1.2918241024017334
2024-12-07 17:55:49.190811600,0.135811767578125,1.1213337182998655,-0.9552847146987916,-1.4580111503601074
2024-12-07 17:55:49.200784600,0.14578466796875,1.2424860000610352,-1.353216528892517,-1.5829485654830933
2024-12-07 17:55:49.210757600,0.155757568359375,1.4628959894180298,-1.7425154447555542,-1.5658258199691772
2024-12-07 17:55:49.220731000,0.16573095703125,1.9087663888931272,-2.307071685791016,-1.554779887199402
2024-12-07 17:55:49.230703600,0.17570361328125,2.472954750061035,-2.807365655899048,-1.4696236848831177
2024-12-07 17:55:49.240677600,0.185677734375,3.1406617164611816,-2.8426754474639893,-1.2159613370895386
2024-12-07 17:55:49.250650600,0.195650634765625,3.806046962738037,-2.163391590118408,-1.3084478378295898
2024-12-07 17:55:49.260623600,0.20562353515625,4.280759334564209,-0.6142496466636658,-1.4892706871032717
2024-12-07 17:55:49.270596900,0.215596923828125,4.552818298339844,0.8417461514472961,-1.277085781097412
2024-12-07 17:55:49.280569900,0.22556982421875,4.8297882080078125,1.2514551877975464,-0.6846198439598083
2024-12-07 17:55:49.290542600,0.23554248046875,5.083330154418945,1.1413137912750244,-0.0289003569632768
2024-12-07 17:55:49.300516600,0.2455166015625,5.215500354766846,1.0106124877929688,0.5013312697410583
2024-12-07 17:55:49.310488800,0.25548876953125,5.162702083587647,0.8643857836723328,0.9711605310440063
2024-12-07 17:55:49.320462000,0.265462158203125,4.80502986907959,0.7882982492446899,1.2206127643585205
2024-12-07 17:55:49.330435000,0.27543505859375,4.303001880645752,0.6561242938041687,1.340301513671875
2024-12-07 17:55:49.340408000,0.285407958984375,3.614596128463745,0.4861725270748138,1.2873411178588867
2024-12-07 17:55:49.350380800,0.295380859375,2.9598617553710938,0.3381772041320801,1.202265381813049
2024-12-07 17:55:49.360354800,0.305354736328125,2.327457904815674,0.0132735464721918,1.0731016397476196
2024-12-07 17:55:49.370328000,0.315328125,1.7230193614959717,-0.3987650275230407,1.0231800079345703
2024-12-07 17:55:49.380301000,0.325301025390625,1.24508535861969,-0.9247153401374816,0.9414870738983154
2024-12-07 17:55:49.390274000,0.335274169921875,0.6944822669029236,-1.7965636253356934,0.7032287120819092
2024-12-07 17:55:49.400246800,0.345246826171875,0.1164107024669647,-2.795588493347168,0.2660849392414093
2024-12-07 17:55:49.410220000,0.355219970703125,-0.3266621828079223,-3.336055517196656,-0.1151234209537506
2024-12-07 17:55:49.420193000,0.365193115234375,-0.507434070110321,-3.02675199508667,-0.1938403397798538
2024-12-07 17:55:49.430167000,0.3751669921875,-0.3033631145954132,-1.627860188484192,0.0610540807247161
2024-12-07 17:55:49.440140000,0.38514013671875,0.0939482823014259,0.1709796339273452,0.2989942133426666
2024-12-07 17:55:49.450113000,0.395113037109375,0.3380963206291199,1.4810117483139038,0.1595033109188079
2024-12-07 17:55:49.460085800,0.405085693359375,0.5223769545555115,2.0801000595092773,-0.2255271822214126
2024-12-07 17:55:49.470059000,0.41505908203125,0.5914062261581421,2.043060302734375,-0.6245070099830627
2024-12-07 17:55:49.480032000,0.425031982421875,0.4258715808391571,1.5203033685684204,-0.8445898294448853
2024-12-07 17:55:49.490006000,0.435006103515625,0.0807798728346824,0.6975780129432678,-0.8394291996955872
2024-12-07 17:55:49.499979000,0.44497900390625,-0.2329005450010299,-0.0557093396782875,-0.6730777621269226
2024-12-07 17:55:49.509952000,0.454951904296875,-0.3467925190925598,-0.497334748506546,-0.4542425870895386
2024-12-07 17:55:49.519925000,0.464925048828125,-0.3187137246131897,-0.6723095178604126,-0.2966856956481933
2024-12-07 17:55:49.529898000,0.47489794921875,-0.2455380856990814,-0.6182367205619812,-0.2431966662406921
2024-12-07 17:55:49.539871000,0.48487109375,-0.2047882676124572,-0.4205324351787567,-0.2898203730583191
2024-12-07 17:55:49.549844000,0.494843994140625,-0.2264966517686844,-0.1803332418203354,-0.4084484875202179
2024-12-07 17:55:49.559818000,0.50481787109375,-0.2978816330432892,0.1003341004252433,-0.5827521085739136
2024-12-07 17:55:49.569791000,0.514791015625,-0.383609801530838,0.3941058814525604,-0.7885676026344299
2024-12-07 17:55:49.579764000,0.524763916015625,-0.4387681186199188,0.6820827722549438,-0.9492654204368592
2024-12-07 17:55:49.589737000,0.534737060546875,-0.4612195193767547,0.9425410628318788,-1.029090404510498
2024-12-07 17:55:49.599710000,0.5447099609375,-0.451747715473175,1.1467220783233645,-1.0342217683792114
2024-12-07 17:55:49.609683000,0.554682861328125,-0.4246719777584076,1.2155311107635498,-0.996966540813446
2024-12-07 17:55:49.619657000,0.564656982421875,-0.390273243188858,1.1070637702941897,-0.9759214520454408
2024-12-07 17:55:49.629630000,0.5746298828125,-0.3365180790424347,0.8765237331390381,-0.9858798980712892
2024-12-07 17:55:49.639603000,0.58460302734375,-0.2703350484371185,0.6302234530448914,-0.9965759515762328
2024-12-07 17:55:49.649576000,0.594575927734375,-0.2130971997976303,0.456719309091568,-0.9771716594696044
2024-12-07 17:55:49.659549000,0.604548828125,-0.163080096244812,0.3699551224708557,-0.9103044867515564
2024-12-07 17:55:49.669522000,0.61452197265625,-0.125336691737175,0.3666161596775055,-0.8031178116798401
2024-12-07 17:55:49.679496000,0.624495849609375,-0.1156174838542938,0.4746723473072052,-0.6775457859039307
2024-12-07 17:55:49.689469000,0.634468994140625,-0.1209004819393158,0.6583460569381714,-0.5702887773513794
2024-12-07 17:55:49.699442000,0.64444189453125,-0.1237993314862251,0.8463311791419983,-0.4640435576438904
2024-12-07 17:55:49.709415000,0.654414794921875,-0.1442740112543106,0.99672931432724,-0.3408001959323883
2024-12-07 17:55:49.719388000,0.664387939453125,-0.1777672618627548,1.0868886709213257,-0.2195784300565719
2024-12-07 17:55:49.729361200,0.674361083984375,-0.2233004570007324,1.1139767169952393,-0.1098281741142273
2024-12-07 17:55:49.739335200,0.684335205078125,-0.2890392541885376,1.1003296375274658,0.0008562617003917
2024-12-07 17:55:49.749308000,0.694307861328125,-0.3457594811916351,1.0725822448730469,0.1098348945379257
2024-12-07 17:55:49.759281000,0.704281005859375,-0.3719569742679596,1.0374727249145508,0.2220991104841232
2024-12-07 17:55:49.769254000,0.71425390625,-0.3936404883861542,0.934519588947296,0.2938266098499298
2024-12-07 17:55:49.779227100,0.72422705078125,-0.4092676639556885,0.7718896865844727,0.330536425113678
2024-12-07 17:55:49.789200100,0.7342001953125,-0.4217435419559479,0.5835445523262024,0.3442734777927398
2024-12-07 17:55:49.799172900,0.7441728515625,-0.4284073114395141,0.3835917711257934,0.3327883183956146
2024-12-07 17:55:49.809147000,0.75414697265625,-0.4167387187480926,0.1759054958820343,0.2940452694892883
2024-12-07 17:55:49.819119900,0.764119873046875,-0.3847605288028717,-0.0539825707674026,0.2482264041900634
2024-12-07 17:55:49.829092900,0.7740927734375,-0.3289976119995117,-0.2752592265605926,0.232728898525238
2024-12-07 17:55:49.839066000,0.784066162109375,-0.2687438726425171,-0.4174286425113678,0.2501949667930603
2024-12-07 17:55:49.849039000,0.7940390625,-0.2234374433755874,-0.4859620630741119,0.2647975981235504
2024-12-07 17:55:49.859011800,0.80401171875,-0.1775514483451843,-0.5383073091506958,0.2518711388111114
2024-12-07 17:55:49.868985900,0.81398583984375,-0.1550072878599167,-0.5983235836029053,0.2387318611145019
2024-12-07 17:55:49.878958800,0.823958740234375,-0.1443197578191757,-0.6343020796775818,0.2600041329860687
2024-12-07 17:55:49.888932000,0.83393212890625,-0.1269110441207885,-0.6125004887580872,0.3264587819576263
2024-12-07 17:55:49.898905000,0.843905029296875,-0.112992025911808,-0.5655423402786255,0.3865628838539123
2024-12-07 17:55:49.908877800,0.8538779296875,-0.1041928082704544,-0.5280845165252686,0.3964272439479828
2024-12-07 17:55:49.918850800,0.863850830078125,-0.1126193106174469,-0.4770625829696655,0.3842358291149139
2024-12-07 17:55:49.928824800,0.873824951171875,-0.1061231046915054,-0.4718397259712219,0.3910900056362152
2024-12-07 17:55:49.938797800,0.8837978515625,-0.0490094833076,-0.5430422425270081,0.4166824519634247
2024-12-07 17:55:49.948771000,0.89377099609375,0.0198756400495767,-0.6385123133659363,0.4413086771965027
2024-12-07 17:55:49.958744000,0.903744140625,0.0556695908308029,-0.676565945148468,0.4674436151981354
2024-12-07 17:55:49.968716800,0.913716796875,0.0609412863850593,-0.671744704246521,0.4989501535892486
2024-12-07 17:55:49.978689800,0.923689697265625,0.038510013371706,-0.6792215704917908,0.5144997835159302
2024-12-07 17:55:49.988663000,0.9336630859375,0.0185544546693563,-0.7117506861686707,0.5104715824127197
2024-12-07 17:55:49.998637000,0.943636962890625,0.0148830208927392,-0.7308349013328552,0.4952369630336761
2024-12-07 17:55:50.008610000,0.953610107421875,0.035299964249134,-0.6964201331138611,0.5021174550056458
2024-12-07 17:55:50.018583000,0.9635830078125,0.0601368732750415,-0.635678768157959,0.5224549174308777
2024-12-07 17:55:50.028555800,0.9735556640625,0.0854729562997818,-0.5942870378494263,0.5399540066719055
2024-12-07 17:55:50.038529000,0.983529052734375,0.1044471859931945,-0.6063085198402405,0.5297275185585022
2024-12-07 17:55:50.048502000,0.993501953125,0.1232863217592239,-0.6305988430976868,0.4883098006248474
2024-12-07 17:55:50.058476000,1.00347607421875,0.1407137811183929,-0.6180419921875,0.4355698823928833
2024-12-07 17:55:50.068449000,1.013448974609375,0.1482136249542236,-0.5712642669677734,0.3957891464233398
2024-12-07 17:55:50.078422000,1.023422119140625,0.1414606571197509,-0.5119019150733948,0.3715458512306213
2024-12-07 17:55:50.088395000,1.03339501953125,0.1225384771823883,-0.4307557940483093,0.3456026613712311
2024-12-07 17:55:50.098368000,1.043367919921875,0.0984935909509658,-0.2626956701278686,0.3216736316680908
2024-12-07 17:55:50.108341000,1.053341064453125,0.0745309069752693,-0.0049120392650365,0.2938995659351349
2024-12-07 17:55:50.118315000,1.06331494140625,0.0652966648340225,0.2464357614517212,0.2569655179977417
2024-12-07 17:55:50.128288000,1.0732880859375,0.0764268040657043,0.4148392379283905,0.2181406021118164
2024-12-07 17:55:50.138261000,1.083260986328125,0.1115722730755806,0.4696649312973022,0.1866801530122757
2024-12-07 17:55:50.148234000,1.09323388671875,0.1581664979457855,0.4120513498783111,0.1831469237804412
2024-12-07 17:55:50.158207000,1.10320703125,0.2025408893823623,0.2771984338760376,0.2003522664308548
2024-12-07 17:55:50.168180000,1.113179931640625,0.2433496713638305,0.1408744752407074,0.2134715616703033
2024-12-07 17:55:50.178154000,1.123154052734375,0.2732293009757995,0.0329165831208229,0.2396451234817505
2024-12-07 17:55:50.188127000,1.133126953125,0.2779222130775451,-0.0116062639281153,0.2753782570362091
2024-12-07 17:55:50.198100000,1.143099853515625,0.2609336674213409,-0.0119359632954001,0.301528126001358
2024-12-07 17:55:50.208073000,1.153072998046875,0.2321917712688446,-0.0065287463366985,0.3173113763332367
2024-12-07 17:55:50.218046000,1.1630458984375,0.2021566331386566,-0.0535481870174407,0.330924391746521
2024-12-07 17:55:50.228019000,1.17301904296875,0.1741781681776046,-0.1982022225856781,0.3457424938678741
2024-12-07 17:55:50.237992000,1.182991943359375,0.146109253168106,-0.3823970854282379,0.3487108647823334
2024-12-07 17:55:50.247966000,1.192966064453125,0.1367055177688598,-0.4969955384731293,0.3150042295455932
2024-12-07 17:55:50.257939000,1.20293896484375,0.1426672637462616,-0.5188009738922119,0.2260799407958984
2024-12-07 17:55:50.267912000,1.212911865234375,0.1645535081624984,-0.4304201900959015,0.1075530797243118
2024-12-07 17:55:50.277885000,1.222885009765625,0.1843884587287902,-0.2845503389835357,-0.0124409655109047
2024-12-07 17:55:50.287858000,1.23285791015625,0.1904941201210022,-0.1280661076307296,-0.1045849919319152
2024-12-07 17:55:50.297831200,1.2428310546875,0.1804236471652984,-0.0068810824304819,-0.1546753197908401
2024-12-07 17:55:50.307805200,1.25280517578125,0.1480856835842132,0.0760875716805458,-0.167024940252304
2024-12-07 17:55:50.317778400,1.2627783203125,0.104721687734127,0.1403741389513015,-0.1412639170885086
2024-12-07 17:55:50.327751400,1.27275146484375,0.0626082345843315,0.17619688808918,-0.0694666355848312
2024-12-07 17:55:50.337724200,1.28272412109375,0.0315557718276977,0.1480419486761093,0.0378017574548721
2024-12-07 17:55:50.347697200,1.292697265625,-0.0049947211518883,0.0597090013325214,0.1699072867631912
2024-12-07 17:55:50.357670400,1.30267041015625,-0.0441045723855495,-0.0681573525071144,0.3027036786079407
2024-12-07 17:55:50.367644400,1.31264453125,-0.0680165961384773,-0.2241456657648086,0.3991303145885467
2024-12-07 17:55:50.377617400,1.322617431640625,-0.0764015614986419,-0.3812016248703003,0.4166637659072876
2024-12-07 17:55:50.387590400,1.33259033203125,-0.0739121288061142,-0.5210270881652832,0.3857839405536651
2024-12-07 17:55:50.397563100,1.342563232421875,-0.0624642707407474,-0.594412624835968,0.3453134596347809
2024-12-07 17:55:50.407536400,1.352536376953125,-0.0408663749694824,-0.5796573162078857,0.3123818635940552
2024-12-07 17:55:50.417509400,1.36250927734375,-0.0251795537769794,-0.505142867565155,0.3012048304080963
2024-12-07 17:55:50.427482400,1.372482421875,-0.0223203841596841,-0.4102610945701599,0.2877718508243561
2024-12-07 17:55:50.437456400,1.382456298828125,-0.0302376970648765,-0.3319372832775116,0.2585111558437347
2024-12-07 17:55:50.447429400,1.392429443359375,-0.0307789742946624,-0.3116073906421661,0.2113213390111923
2024-12-07 17:55:50.457402000,1.402402099609375,-0.0331872701644897,-0.3273064494132995,0.1675062179565429
2024-12-07 17:55:50.467375400,1.412375244140625,-0.0411883778870105,-0.3465952575206756,0.1499945670366287
2024-12-07 17:55:50.477348400,1.422348388671875,-0.0463935248553752,-0.3452727198600769,0.1750133633613586
2024-12-07 17:55:50.487321300,1.4323212890625,-0.0477155148983001,-0.3193290531635284,0.2389926463365554
2024-12-07 17:55:50.497295400,1.44229541015625,-0.0337403081357479,-0.2836581468582153,0.3039804100990295
2024-12-07 17:55:50.507268000,1.45226806640625,-0.0047701196745038,-0.2487245500087738,0.3509050011634826
2024-12-07 17:55:50.517241300,1.462241455078125,0.0342899337410926,-0.2253060489892959,0.3661811649799347
2024-12-07 17:55:50.527214300,1.47221435546875,0.0634263828396797,-0.2261050939559936,0.3536978960037231
2024-12-07 17:55:50.537187300,1.482187255859375,0.0732947289943695,-0.2321746945381164,0.3350560367107391
2024-12-07 17:55:50.547160300,1.492160400390625,0.0760192051529884,-0.2229641228914261,0.3426622748374939
2024-12-07 17:55:50.557134300,1.50213427734375,0.0852728933095932,-0.2155754417181015,0.3892343044281006
2024-12-07 17:55:50.567107300,1.512107421875,0.0927526131272316,-0.1851319074630737,0.4582852721214294
2024-12-07 17:55:50.577080300,1.522080322265625,0.0945960581302642,-0.1296835541725158,0.5321773290634155
2024-12-07 17:55:50.587053300,1.53205322265625,0.1012400984764099,-0.0529809929430484,0.5747048258781433
2024-12-07 17:55:50.597026300,1.5420263671875,0.1087169274687767,0.0225385315716266,0.5742952227592468
2024-12-07 17:55:50.606999300,1.551999267578125,0.1242442056536674,0.0831301882863044,0.532430112361908
2024-12-07 17:55:50.616973300,1.561973388671875,0.1509554386138916,0.1096560731530189,0.4687637984752655
2024-12-07 17:55:50.626946300,1.5719462890625,0.1778174340724945,0.1002346575260162,0.4002538919448852
2024-12-07 17:55:50.636919300,1.581919189453125,0.2015203684568405,0.0616904608905315,0.3535308539867401
2024-12-07 17:55:50.646892300,1.591892333984375,0.2193653732538223,0.0166144706308841,0.3447331190109253
2024-12-07 17:55:50.656865300,1.601865234375,0.2367568910121917,-0.0021781246177852,0.3794559240341186
2024-12-07 17:55:50.666838500,1.611838623046875,0.2506140470504761,0.0186282396316528,0.4423784911632538
2024-12-07 17:55:50.676811300,1.621811279296875,0.2578405439853668,0.0798710882663726,0.4937838912010193
2024-12-07 17:55:50.686785300,1.631785400390625,0.2639279961585998,0.1660256832838058,0.4857842922210693
2024-12-07 17:55:50.696758300,1.64175830078125,0.2605489790439605,0.2644521296024322,0.4175258874893188
2024-12-07 17:55:50.706731300,1.651731201171875,0.2461839765310287,0.3639788925647735,0.3114838302135467
2024-12-07 17:55:50.716704300,1.661704345703125,0.2316457778215408,0.4688395261764526,0.2004473507404327
2024-12-07 17:55:50.726677500,1.671677490234375,0.2285950630903244,0.5620955228805542,0.1164349615573883
2024-12-07 17:55:50.736650200,1.681650146484375,0.2374644577503204,0.6311523914337158,0.0659166574478149
2024-12-07 17:55:50.746624300,1.691624267578125,0.2337904721498489,0.6590913534164429,0.0553332455456256
2024-12-07 17:55:50.756597200,1.70159716796875,0.2135440558195114,0.6359138488769531,0.0727804079651832
2024-12-07 17:55:50.766570200,1.7115703125,0.1865334659814834,0.5634806752204895,0.0871679261326789
2024-12-07 17:55:50.776543500,1.72154345703125,0.1657464355230331,0.4674936830997467,0.080952376127243
2024-12-07 17:55:50.786516200,1.73151611328125,0.1418853104114532,0.3933302462100982,0.0570760741829872
2024-12-07 17:55:50.796489200,1.7414892578125,0.1194060966372489,0.3591443002223968,0.0106068402528762
2024-12-07 17:55:50.806463200,1.751463134765625,0.0959198698401451,0.3485604524612427,-0.0664514973759651
2024-12-07 17:55:50.816436200,1.761436279296875,0.0649989768862724,0.3431518375873565,-0.1683365851640701
2024-12-07 17:55:50.826409200,1.7714091796875,0.0216903518885374,0.3341190218925476,-0.2710544168949127
2024-12-07 17:55:50.836382500,1.781382568359375,-0.042620725929737,0.3198798894882202,-0.3635222911834717
2024-12-07 17:55:50.846355200,1.791355224609375,-0.1372866481542587,0.2912817597389221,-0.4364846348762512
2024-12-07 17:55:50.856328200,1.801328125,-0.254919022321701,0.2673716247081756,-0.4766552150249481
2024-12-07 17:55:50.866301200,1.81130126953125,-0.3767604827880859,0.2688378989696502,-0.4820340275764465
2024-12-07 17:55:50.876275200,1.821275146484375,-0.4749259054660797,0.3120820224285126,-0.474155068397522
2024-12-07 17:55:50.886248400,1.83124853515625,-0.5286532044410706,0.3884413838386535,-0.5166045427322388
2024-12-07 17:55:50.896221400,1.841221435546875,-0.5442585349082947,0.4652863442897796,-0.6639953255653381
2024-12-07 17:55:50.906194200,1.851194091796875,-0.545283317565918,0.4938929677009582,-0.9472142457962036
2024-12-07 17:55:50.916167200,1.861167236328125,-0.5527859926223755,0.4934428930282593,-1.329915165901184
2024-12-07 17:55:50.926140400,1.871140380859375,-0.5959185361862183,0.5433887243270874,-1.7320926189422607
2024-12-07 17:55:50.936114400,1.881114501953125,-0.6714287400245667,0.6880713105201721,-2.1070117950439453
2024-12-07 17:55:50.946087400,1.89108740234375,-0.7326869964599609,0.8726232647895813,-2.429924726486206
2024-12-07 17:55:50.956060400,1.901060302734375,-0.6958927512168884,0.963131070137024,-2.630654811859131
2024-12-07 17:55:50.966033200,1.911033203125,-0.5275832414627075,0.8394575119018555,-2.6679086685180664
2024-12-07 17:55:50.976006100,1.921006103515625,-0.2827396988868713,0.4510623812675476,-2.5206527709960938
2024-12-07 17:55:50.985979400,1.9309794921875,-0.0824069455265998,0.0964722782373428,-2.2318596839904785
2024-12-07 17:55:50.995953400,1.940953369140625,0.0003643622621893,0.0180927868932485,-1.8820918798446653
2024-12-07 17:55:51.005926400,1.950926513671875,-0.0665708035230636,0.1975707411766052,-1.5368199348449707
2024-12-07 17:55:51.015899400,1.9608994140625,-0.2569263577461242,0.6147794127464294,-1.2765196561813354
2024-12-07 17:55:51.025872100,1.9708720703125,-0.5264074802398682,1.1691324710845947,-1.216519474983215
2024-12-07 17:55:51.035845400,1.980845458984375,-0.7449355125427246,1.789085030555725,-1.368491768836975
2024-12-07 17:55:51.045818400,1.990818359375,-0.8546035289764404,2.390016794204712,-1.5741232633590698
2024-12-07 17:55:51.055791400,2.000791259765625,-0.802928626537323,2.7673227787017822,-1.6147058010101318
2024-12-07 17:55:51.065765400,2.010765380859375,-0.6351096630096436,2.8649990558624268,-1.418136477470398
2024-12-07 17:55:51.075738000,2.020738037109375,-0.4618449509143829,2.691869735717773,-1.0588366985321045
2024-12-07 17:55:51.085711400,2.03071142578125,-0.396474540233612,2.2019705772399902,-0.6402642130851746
2024-12-07 17:55:51.095684400,2.040684326171875,-0.4610439538955688,1.728220820426941,-0.2603048682212829
2024-12-07 17:55:51.105657300,2.0506572265625,-0.5546224117279053,1.3012001514434814,0.0114382151514291
2024-12-07 17:55:51.115630300,2.06063037109375,-0.6565360426902771,0.9875789284706116,0.207445815205574
2024-12-07 17:55:51.125604400,2.070604248046875,-0.7569361925125122,0.8091056942939758,0.3279716968536377
2024-12-07 17:55:51.135577000,2.0805771484375,-0.7960202097892761,0.7125839591026306,0.3628934621810913
2024-12-07 17:55:51.145550300,2.09055029296875,-0.7814466953277588,0.5920617580413818,0.3021515309810638
2024-12-07 17:55:51.155523300,2.1005234375,-0.7113541960716248,0.4240621030330658,0.2010858803987503
2024-12-07 17:55:51.165496300,2.110496337890625,-0.5938332080841064,0.2247183173894882,0.1289618611335754
2024-12-07 17:55:51.175469300,2.12046923828125,-0.4439864456653595,-0.0155352959409356,0.1273562461137771
2024-12-07 17:55:51.185443300,2.130443359375,-0.2834295630455017,-0.2646215260028839,0.199696809053421
2024-12-07 17:55:51.195416300,2.140416259765625,-0.1553139239549636,-0.491194486618042,0.3302960693836212
2024-12-07 17:55:51.205389300,2.150389404296875,-0.0678616538643837,-0.6827387809753418,0.4749917089939117
2024-12-07 17:55:51.215362300,2.1603623046875,0.0322694778442382,-0.8679643273353577,0.5384154915809631
2024-12-07 17:55:51.225335300,2.170335205078125,0.135412186384201,-1.069679617881775,0.5107258558273315
2024-12-07 17:55:51.235308300,2.180308349609375,0.2230722606182098,-1.2021353244781494,0.4554191827774048
2024-12-07 17:55:51.245281300,2.19028125,0.2934337854385376,-1.2631431818008425,0.393553078174591
2024-12-07 17:55:51.255255300,2.20025537109375,0.3356944024562835,-1.250217318534851,0.3443149626255035
2024-12-07 17:55:51.265228300,2.210228271484375,0.345200628042221,-1.1498069763183594,0.3145714700222015
2024-12-07 17:55:51.275201300,2.220201171875,0.3302352726459503,-1.0189741849899292,0.2892666459083557
2024-12-07 17:55:51.285174300,2.23017431640625,0.3043760061264038,-0.932870090007782,0.2699803113937378
2024-12-07 17:55:51.295147500,2.2401474609375,0.2982720136642456,-0.9410819411277772,0.2623849809169769
2024-12-07 17:55:51.305120300,2.250120361328125,0.3087090849876404,-1.0226093530654907,0.2763300538063049
2024-12-07 17:55:51.315094500,2.260094482421875,0.3112790286540985,-1.1110719442367554,0.3084421753883362
2024-12-07 17:55:51.325067500,2.270067626953125,0.2957072556018829,-1.1410197019577026,0.3509710133075714
2024-12-07 17:55:51.335040500,2.28004052734375,0.2442496418952942,-1.0748672485351562,0.417464017868042
2024-12-07 17:55:51.345013500,2.290013427734375,0.1859457641839981,-0.905826210975647,0.4938056766986847
2024-12-07 17:55:51.354986800,2.29998681640625,0.1203241422772407,-0.6845934391021729,0.5314640998840332
2024-12-07 17:55:51.364959500,2.30995947265625,0.031779658049345,-0.5202646851539612,0.5044684410095215
2024-12-07 17:55:51.374932500,2.319932373046875,-0.0930980890989303,-0.5044452548027039,0.3840338885784149
2024-12-07 17:55:51.384906500,2.329906494140625,-0.2122347503900528,-0.6030452847480774,0.2174051702022552
2024-12-07 17:55:51.394879500,2.33987939453125,-0.2781769931316376,-0.7049029469490051,0.0823165848851203
2024-12-07 17:55:51.404852700,2.349852783203125,-0.2892134189605713,-0.735327422618866,0.0207830071449279
2024-12-07 17:55:51.414825500,2.359825439453125,-0.2641975581645965,-0.7091930508613586,0.0129306772723793
2024-12-07 17:55:51.424798500,2.369798583984375,-0.2185558825731277,-0.675946831703186,0.0458792969584465
2024-12-07 17:55:51.434771500,2.379771484375,-0.1614955216646194,-0.6648076176643372,0.094389833509922
2024-12-07 17:55:51.444745500,2.389745361328125,-0.1036888808012008,-0.6289494633674622,0.1262785345315933
2024-12-07 17:55:51.454718500,2.399718505859375,-0.0372283644974231,-0.4842889606952667,0.1400784999132156
2024-12-07 17:55:51.464691700,2.409691650390625,0.0116351470351219,-0.2735952138900757,0.119062416255474
2024-12-07 17:55:51.474664400,2.41966455078125,0.0370624773204326,-0.1208168342709541,0.0623400136828422
2024-12-07 17:55:51.484637400,2.429637451171875,0.0795390829443931,-0.0511545427143573,0.0074676508083939
2024-12-07 17:55:51.494610400,2.4396103515625,0.174910619854927,-0.0435461588203907,0.0069840205833315
2024-12-07 17:55:51.504584400,2.44958447265625,0.2941009998321533,-0.1249908506870269,0.0671858564019203
2024-12-07 17:55:51.514557700,2.4595576171875,0.3853270709514618,-0.3166169822216034,0.1588848829269409
2024-12-07 17:55:51.524530700,2.46953076171875,0.4223919212818146,-0.5321047306060791,0.2717556059360504
2024-12-07 17:55:51.534503400,2.47950341796875,0.3976410329341888,-0.6116434931755066,0.397535890340805
2024-12-07 17:55:51.544476400,2.489476318359375,0.3367506265640259,-0.3637192249298095,0.4888951182365417
2024-12-07 17:55:51.554449700,2.49944970703125,0.2630372643470764,0.1319025009870529,0.520709216594696
2024-12-07 17:55:51.564423700,2.509423583984375,0.191192626953125,0.6032158136367798,0.5253130197525024
2024-12-07 17:55:51.574396700,2.519396728515625,0.1627412736415863,0.8582091927528381,0.5284180045127869
2024-12-07 17:55:51.584369700,2.52936962890625,0.1716139167547226,0.7984088063240051,0.5614576935768127
2024-12-07 17:55:51.594342400,2.53934228515625,0.2245048284530639,0.4385475814342499,0.5857270359992981
2024-12-07 17:55:51.604315400,2.5493154296875,0.3395311534404754,0.0869182124733924,0.505777895450592
2024-12-07 17:55:51.614288600,2.55928857421875,0.4943670630455017,-0.08197733014822,0.3073894679546356
2024-12-07 17:55:51.624261600,2.56926171875,0.6211300492286682,-0.1330961734056472,0.0524123013019561
2024-12-07 17:55:51.634235600,2.579235595703125,0.6998571157455444,-0.1629752367734909,-0.1787769794464111
2024-12-07 17:55:51.644208600,2.589208740234375,0.7295185327529907,-0.2411275058984756,-0.3246333301067352
2024-12-07 17:55:51.654181400,2.599181396484375,0.7275286316871643,-0.4071500301361084,-0.3424456119537353
2024-12-07 17:55:51.664154600,2.609154541015625,0.7051286101341248,-0.6189821362495422,-0.2172519564628601
2024-12-07 17:55:51.674127600,2.619127685546875,0.6511545777320862,-0.8181352019309998,0.0362567454576492
2024-12-07 17:55:51.684100600,2.6291005859375,0.5362886786460876,-0.9305917620658876,0.336889237165451
2024-12-07 17:55:51.694074600,2.63907470703125,0.3728116154670715,-0.9110127091407776,0.5985578894615173
2024-12-07 17:55:51.704047400,2.64904736328125,0.1965805292129516,-0.7596799731254578,0.8217470645904541
2024-12-07 17:55:51.714020600,2.6590205078125,0.0356363840401172,-0.551422119140625,0.9980869293212892
2024-12-07 17:55:51.723993600,2.66899365234375,-0.0676335021853447,-0.3448361754417419,1.104785680770874
2024-12-07 17:55:51.733966600,2.678966552734375,-0.1013587117195129,-0.1608772575855255,1.144850254058838
2024-12-07 17:55:51.743939600,2.688939697265625,-0.104622758924961,0.0209811031818389,1.1350538730621338
2024-12-07 17:55:51.753913600,2.69891357421875,-0.085306316614151,0.1921389997005462,1.0857975482940674
2024-12-07 17:55:51.763886300,2.70888623046875,-0.0385941378772258,0.3169554769992828,0.9857596755027772
2024-12-07 17:55:51.773859600,2.718859619140625,0.0322949476540088,0.3595958948135376,0.8309445381164551
2024-12-07 17:55:51.783832600,2.72883251953125,0.1160438358783721,0.3404715061187744,0.6577815413475037
2024-12-07 17:55:51.793805600,2.7388056640625,0.1820952892303466,0.3083684146404266,0.4870734214782715
2024-12-07 17:55:51.803778600,2.748778564453125,0.2072796821594238,0.2651190757751465,0.338325023651123
2024-12-07 17:55:51.813752600,2.758752685546875,0.201805830001831,0.2056682854890823,0.2581574618816376
2024-12-07 17:55:51.823725600,2.7687255859375,0.1675621569156646,0.1293055117130279,0.2452937960624694
2024-12-07 17:55:51.833698600,2.778698486328125,0.1106101796030998,0.0375851802527904,0.2786743640899658
2024-12-07 17:55:51.843671600,2.788671630859375,0.0616003684699535,-0.0663582757115364,0.3566645383834839
2024-12-07 17:55:51.853644500,2.79864453125,0.0424698144197464,-0.1697448492050171,0.4623129367828369
2024-12-07 17:55:51.863617500,2.808617431640625,0.0427525416016578,-0.2101320624351501,0.560494065284729
2024-12-07 17:55:51.873591600,2.818591552734375,0.0356189981102943,-0.2143893986940384,0.6410408616065979
2024-12-07 17:55:51.883564500,2.828564453125,0.0233158953487873,-0.2208024561405182,0.6942750215530396
2024-12-07 17:55:51.893537500,2.83853759765625,0.0362002700567245,-0.2293959408998489,0.7032882571220398
2024-12-07 17:55:51.903510500,2.848510498046875,0.0601566992700099,-0.2358457297086715,0.6732328534126282
2024-12-07 17:55:51.913483500,2.8584833984375,0.0736687779426574,-0.2311614900827407,0.6143251061439514
2024-12-07 17:55:51.923456800,2.868456787109375,0.0869094803929328,-0.2302812486886978,0.5318523049354553
2024-12-07 17:55:51.933430500,2.878430419921875,0.1050314977765083,-0.2542891204357147,0.4546326100826263
2024-12-07 17:55:51.943403500,2.888403564453125,0.1486802697181701,-0.2404660731554031,0.4125378727912903
2024-12-07 17:55:51.953376500,2.89837646484375,0.2002076357603073,-0.1884393543004989,0.423609972000122
2024-12-07 17:55:51.963349500,2.908349609375,0.2294758856296539,-0.1536563038825988,0.4484477043151855
2024-12-07 17:55:51.973322800,2.91832275390625,0.2425288408994674,-0.1412118822336197,0.4463153481483459
2024-12-07 17:55:51.983295500,2.92829541015625,0.2508999109268188,-0.1367927491664886,0.398541659116745
2024-12-07 17:55:51.993269500,2.93826953125,0.2590276300907135,-0.1448032706975937,0.3128230273723602
2024-12-07 17:55:52.003242500,2.948242431640625,0.266798734664917,-0.1429020464420318,0.2340600490570068
2024-12-07 17:55:52.013215500,2.958215576171875,0.26862832903862,-0.1006834805011749,0.2127201408147812
2024-12-07 17:55:52.023188500,2.9681884765625,0.2787292301654815,-0.0095083881169557,0.2619569003582001
2024-12-07 17:55:52.033161700,2.97816162109375,0.293188601732254,0.1062525659799575,0.3570264279842376
2024-12-07 17:55:52.043134500,2.988134521484375,0.2947647273540497,0.2252702862024307,0.4808357357978821
2024-12-07 17:55:52.053108500,2.9981083984375,0.2827320396900177,0.3426576256752014,0.6019262075424194
2024-12-07 17:55:52.063081500,3.00808154296875,0.2696759402751922,0.4720072746276855,0.6644100546836853
2024-12-07 17:55:52.073054500,3.018054443359375,0.2722291052341461,0.57822585105896,0.6117463111877441
2024-12-07 17:55:52.083027700,3.02802783203125,0.2903925776481628,0.605683445930481,0.4269221127033233
2024-12-07 17:55:52.093000700,3.038000732421875,0.2898993790149688,0.5499892830848694,0.1814915686845779
2024-12-07 17:55:52.102973400,3.047973388671875,0.2671332359313965,0.5011732578277588,-0.0143700307235121
2024-12-07 17:55:52.112947500,3.057947509765625,0.2397077530622482,0.5240527391433716,-0.0868607386946678
2024-12-07 17:55:52.122920400,3.06792041015625,0.2151570618152618,0.5806662440299988,-0.0328081659972667
2024-12-07 17:55:52.132893400,3.0778935546875,0.1900788694620132,0.5989150404930115,0.0831607803702354
2024-12-07 17:55:52.142866700,3.08786669921875,0.1750061064958572,0.5397753715515137,0.186845064163208
2024-12-07 17:55:52.152839700,3.097839599609375,0.1684169024229049,0.4454714655876159,0.2559490203857422
2024-12-07 17:55:52.162812400,3.1078125,0.16337551176548,0.3772182166576385,0.3116442859172821
2024-12-07 17:55:52.172786400,3.117786376953125,0.1650634258985519,0.334776222705841,0.3442144691944122
2024-12-07 17:55:52.182759400,3.127759521484375,0.1650660932064056,0.3492636084556579,0.3395893275737762
2024-12-07 17:55:52.192732700,3.137732666015625,0.155641421675682,0.417890340089798,0.3085669577121734
2024-12-07 17:55:52.202705700,3.14770556640625,0.1227491647005081,0.510103166103363,0.2514466941356659
2024-12-07 17:55:52.212678700,3.1576787109375,0.0675703287124633,0.5739026665687561,0.1575750708580017
2024-12-07 17:55:52.222651400,3.1676513671875,0.007831772789359,0.5986757874488831,0.0398394279181957
2024-12-07 17:55:52.232625400,3.17762548828125,-0.0542023032903671,0.5640259385108948,-0.0943551287055015
2024-12-07 17:55:52.242598700,3.1875986328125,-0.1251536756753921,0.4294664859771728,-0.2578977346420288
2024-12-07 17:55:52.252571600,3.197571533203125,-0.2020484656095504,0.2079024016857147,-0.431070864200592
2024-12-07 17:55:52.262544600,3.207544677734375,-0.270253449678421,-0.0132832834497094,-0.5692880153656006
2024-12-07 17:55:52.272517400,3.217517333984375,-0.3337442576885223,-0.1444535553455352,-0.6591915488243103
2024-12-07 17:55:52.282490400,3.227490478515625,-0.4107520580291748,-0.1866374015808105,-0.7281859517097473
2024-12-07 17:55:52.292464400,3.23746435546875,-0.5024223327636719,-0.1816439777612686,-0.8200119733810425
2024-12-07 17:55:52.302437600,3.247437744140625,-0.5692324638366699,-0.1021017655730247,-0.9790043234825134
2024-12-07 17:55:52.312410000,3.25741015625,-0.602394700050354,0.0126229543238878,-1.208425521850586
2024-12-07 17:55:52.322383000,3.267383056640625,-0.6132004261016846,0.1579680889844894,-1.4979771375656128
2024-12-07 17:55:52.332356000,3.277356201171875,-0.5926256775856018,0.3108987808227539,-1.854636788368225
2024-12-07 17:55:52.342329000,3.2873291015625,-0.5203047394752502,0.3884875774383545,-2.230218410491944
2024-12-07 17:55:52.352303000,3.29730322265625,-0.3763757646083832,0.2937954068183899,-2.50801944732666
2024-12-07 17:55:52.362276000,3.307276123046875,-0.2028274834156036,0.0359779968857765,-2.582972764968872
2024-12-07 17:55:52.372249000,3.3172490234375,-0.0814054608345031,-0.1861908882856369,-2.4665260314941406
2024-12-07 17:55:52.382221800,3.327221923828125,-0.0543425679206848,-0.2414465248584747,-2.23667311668396
2024-12-07 17:55:52.392195000,3.337195068359375,-0.1269389986991882,-0.0585416890680789,-1.976219654083252
2024-12-07 17:55:52.402168000,3.34716796875,-0.3281113803386688,0.3426794111728668,-1.7517998218536377
2024-12-07 17:55:52.412142000,3.35714208984375,-0.640468180179596,0.9308257699012756,-1.5861510038375854
2024-12-07 17:55:52.422115000,3.367114990234375,-0.928705394268036,1.633216142654419,-1.4870188236236572
2024-12-07 17:55:52.432088000,3.377088134765625,-1.0976642370224,2.317216634750366,-1.472492814064026
2024-12-07 17:55:52.442061000,3.38706103515625,-1.1297286748886108,2.879775285720825,-1.503566026687622
2024-12-07 17:55:52.452034000,3.397033935546875,-1.0400536060333252,3.216550350189209,-1.48046612739563
2024-12-07 17:55:52.462008000,3.407008056640625,-0.9009192585945128,3.3082492351531982,-1.367655873298645
2024-12-07 17:55:52.471981000,3.41698095703125,-0.756483256816864,3.0321044921875,-1.1986207962036133
2024-12-07 17:55:52.481954000,3.4269541015625,-0.6484310626983643,2.4946367740631104,-0.9741286635398864
2024-12-07 17:55:52.491927000,3.436927001953125,-0.6052125096321106,1.912686944007873,-0.7318862080574036
2024-12-07 17:55:52.501900000,3.446900146484375,-0.6160233616828918,1.419303059577942,-0.504294216632843
2024-12-07 17:55:52.511873000,3.456873046875,-0.6749873161315918,1.0317237377166748,-0.3228421509265899
2024-12-07 17:55:52.521847000,3.466846923828125,-0.7660052180290222,0.646591305732727,-0.1903520375490188
2024-12-07 17:55:52.531820000,3.476820068359375,-0.8598941564559937,0.2772380411624908,-0.096676155924797
2024-12-07 17:55:52.541793000,3.48679296875,-0.8904094099998474,-0.0891803130507469,-0.1188656687736511
2024-12-07 17:55:52.551766300,3.496766357421875,-0.8431481719017029,-0.3962377309799194,-0.193498894572258
2024-12-07 17:55:52.561739000,3.506739013671875,-0.7186793088912964,-0.5664147138595581,-0.2408975809812545
2024-12-07 17:55:52.571712000,3.5167119140625,-0.5931445956230164,-0.5943850874900818,-0.2458177655935287
2024-12-07 17:55:52.581686000,3.52668603515625,-0.4485582411289215,-0.6026031970977783,-0.2001873254776001
2024-12-07 17:55:52.591659000,3.536658935546875,-0.3123703002929687,-0.6258558034896851,-0.0883532091975212
2024-12-07 17:55:52.601632000,3.546632080078125,-0.1903763264417648,-0.6738401651382446,0.0712835490703582
2024-12-07 17:55:52.611605200,3.556605224609375,-0.0892427936196327,-0.7591491937637329,0.224437415599823
2024-12-07 17:55:52.621578000,3.566577880859375,-0.0047947093844413,-0.8349270224571228,0.3312701880931854
2024-12-07 17:55:52.631551000,3.576551025390625,0.0737685412168502,-0.8484689593315125,0.3700428605079651
2024-12-07 17:55:52.641525000,3.58652490234375,0.1351458728313446,-0.7718299627304077,0.3721107542514801
2024-12-07 17:55:52.651498000,3.596498046875,0.1669655889272689,-0.6370641589164734,0.3671985566616058
2024-12-07 17:55:52.661471200,3.60647119140625,0.203837975859642,-0.5318535566329956,0.3639484345912933
2024-12-07 17:55:52.671444000,3.61644384765625,0.2784498929977417,-0.5083063840866089,0.3776719868183136
2024-12-07 17:55:52.681417000,3.6264169921875,0.3729182779788971,-0.5642236471176147,0.4046455323696136
2024-12-07 17:55:52.691391000,3.636390869140625,0.4191392958164215,-0.6267999410629272,0.4264120757579803
2024-12-07 17:55:52.701364000,3.646364013671875,0.4078934490680694,-0.6651982665061951,0.4334744811058044
2024-12-07 17:55:52.711337200,3.656337158203125,0.367543876171112,-0.7582759857177734,0.4340696930885315
2024-12-07 17:55:52.721310200,3.666310302734375,0.332234650850296,-0.9583978056907654,0.4518974423408508
2024-12-07 17:55:52.731283000,3.676282958984375,0.3295488655567169,-1.149261474609375,0.4855171740055084
2024-12-07 17:55:52.741256000,3.686255859375,0.3469730913639068,-1.2205687761306765,0.4973219335079193
2024-12-07 17:55:52.751230000,3.69622998046875,0.3417751491069793,-1.1373170614242554,0.468644231557846
2024-12-07 17:55:52.761203000,3.706202880859375,0.2708988189697265,-0.9401512742042542,0.4083243906497955
2024-12-07 17:55:52.771176200,3.71617626953125,0.1296836584806442,-0.7299737930297852,0.3504629731178283
2024-12-07 17:55:52.781149200,3.726149169921875,-0.0580656751990318,-0.6214734315872192,0.2887577712535858
2024-12-07 17:55:52.791122000,3.736121826171875,-0.2289902716875076,-0.622236967086792,0.1808150708675384
2024-12-07 17:55:52.801096000,3.746095947265625,-0.3645713925361633,-0.6204531788825989,0.0616508871316909
2024-12-07 17:55:52.811069000,3.75606884765625,-0.4260605871677398,-0.5561362504959106,-0.0025624558329582
2024-12-07 17:55:52.821042200,3.766042236328125,-0.4083421230316162,-0.503667414188385,0.0259988736361265
2024-12-07 17:55:52.831015200,3.77601513671875,-0.3468987345695495,-0.5090584754943848,0.1135771945118904
2024-12-07 17:55:52.840988200,3.78598828125,-0.2831701934337616,-0.6017934679985046,0.1964570879936218
2024-12-07 17:55:52.850961000,3.7959609375,-0.230142667889595,-0.7478350400924683,0.243606761097908
2024-12-07 17:55:52.860935000,3.805934814453125,-0.1687446385622024,-0.8459416031837463,0.261602520942688
2024-12-07 17:55:52.870908000,3.815907958984375,-0.0884015932679176,-0.8044074773788452,0.2823182046413421
2024-12-07 17:55:52.880881200,3.825881103515625,-0.0138104371726512,-0.6516923904418945,0.2963674664497375
2024-12-07 17:55:52.890854100,3.835854248046875,0.0359547212719917,-0.5188674926757812,0.2914153337478637
2024-12-07 17:55:52.900827100,3.8458271484375,0.0636243671178817,-0.4773014187812805,0.2725402116775512
2024-12-07 17:55:52.913295000,3.858295166015625,0.0736109614372253,-0.4746491909027099,0.2910121381282806
2024-12-07 17:55:52.923268000,3.86826806640625,0.0703513696789741,-0.451333612203598,0.3590981960296631
2024-12-07 17:55:52.933241000,3.878240966796875,0.0719790980219841,-0.3557685017585754,0.4864391088485718
2024-12-07 17:55:52.943213800,3.8882138671875,0.0697773545980453,-0.1015906557440757,0.6407306790351868
2024-12-07 17:55:52.953187000,3.89818701171875,0.0770424604415893,0.252310961484909,0.7690228819847107
2024-12-07 17:55:52.963160000,3.90816015625,0.1134430021047592,0.5345595479011536,0.8110870718955994
2024-12-07 17:55:52.973134000,3.918134033203125,0.1665147393941879,0.6685948967933655,0.7520623803138733
2024-12-07 17:55:52.983107000,3.928107177734375,0.2453240752220153,0.6290518045425415,0.6229879260063171
2024-12-07 17:55:52.993080000,3.938080078125,0.3477846682071686,0.546083927154541,0.4487756192684173
2024-12-07 17:55:53.003053000,3.948052978515625,0.4853825271129608,0.480646550655365,0.2518417537212372
2024-12-07 17:55:53.013026000,3.958026123046875,0.6178238987922668,0.3957124650478363,0.0457301437854766
2024-12-07 17:55:53.023000000,3.968,0.7362174391746521,0.2614308893680572,-0.1208084747195243
2024-12-07 17:55:53.032973000,3.97797314453125,0.8430839776992798,0.051399890333414,-0.2302755713462829
2024-12-07 17:55:53.042946000,3.987946044921875,0.8877399563789368,-0.273930549621582,-0.266455739736557
2024-12-07 17:55:53.052919000,3.9979189453125,0.8701830506324768,-0.6772740483283997,-0.2041279077529907
2024-12-07 17:55:53.062892000,4.00789208984375,0.8183938264846802,-1.0676013231277466,-0.0093665979802608
2024-12-07 17:55:53.072866000,4.017865966796875,0.7132924199104309,-1.3524179458618164,0.2872664034366607
2024-12-07 17:55:53.082839000,4.027839111328125,0.5457102656364441,-1.4285600185394287,0.5823358297348022
2024-12-07 17:55:53.092812000,4.03781201171875,0.3567320704460144,-1.298440933227539,0.7947532534599304
2024-12-07 17:55:53.102785000,4.047784912109375,0.1977872103452682,-1.0157102346420288,0.9387009143829346
2024-12-07 17:55:53.112758300,4.05775830078125,0.0861802548170089,-0.6917113661766052,1.0475469827651978
2024-12-07 17:55:53.122731000,4.06773095703125,0.0055676088668406,-0.3739505112171173,1.1456609964370728
2024-12-07 17:55:53.132705000,4.077705078125,-0.0339214764535427,-0.0813308954238891,1.224255919456482
2024-12-07 17:55:53.142678000,4.087677978515625,-0.0513508543372154,0.1666734665632248,1.2639535665512085
2024-12-07 17:55:53.152651000,4.097651123046875,-0.0704244151711463,0.3813610076904297,1.2522475719451904
2024-12-07 17:55:53.162624000,4.1076240234375,-0.0744217932224273,0.5465802550315857,1.1637550592422483
2024-12-07 17:55:53.172597200,4.11759716796875,-0.0332032479345798,0.6184688210487366,0.998530387878418
2024-12-07 17:55:53.182571000,4.127571044921875,0.042411882430315,0.5800665616989136,0.7948736548423767
2024-12-07 17:55:53.192544000,4.1375439453125,0.1013524308800697,0.4519464373588562,0.6110526919364929
2024-12-07 17:55:53.202517000,4.14751708984375,0.1204463541507721,0.298095166683197,0.4749357998371124
2024-12-07 17:55:53.212490000,4.157489990234375,0.1245817095041275,0.1528663337230682,0.387287974357605
2024-12-07 17:55:53.222463200,4.167463134765625,0.1159705370664596,0.0344570241868495,0.3572650849819183
2024-12-07 17:55:53.232436000,4.17743603515625,0.1045186817646026,-0.0292665585875511,0.3972138464450836
2024-12-07 17:55:53.242409000,4.187408935546875,0.1007884666323661,-0.0609486736357212,0.4753060042858124
2024-12-07 17:55:53.252382000,4.1973818359375,0.0921638235449791,-0.1321522891521453,0.5538948774337769
2024-12-07 17:55:53.262355200,4.207355224609375,0.0820122137665748,-0.2070460617542266,0.6029358506202698
2024-12-07 17:55:53.272329200,4.2173291015625,0.0862991064786911,-0.2146869301795959,0.6345603466033936
2024-12-07 17:55:53.282302200,4.22730224609375,0.1079424694180488,-0.1677225083112716,0.656216025352478
2024-12-07 17:55:53.292275000,4.23727490234375,0.1392069160938263,-0.1105862557888031,0.6663738489151001
2024-12-07 17:55:53.302248000,4.247248046875,0.1682220548391342,-0.0507317818701267,0.6664884686470032
2024-12-07 17:55:53.312221200,4.25722119140625,0.2014114409685135,-0.0320848599076271,0.6558536291122437
2024-12-07 17:55:53.322195200,4.2671953125,0.229171022772789,-0.0175767224282026,0.637895405292511
2024-12-07 17:55:53.332168200,4.277168212890625,0.2390356361865997,0.031137553974986,0.6112741827964783
2024-12-07 17:55:53.342141200,4.28714111328125,0.224166139960289,0.0894129872322082,0.5939629673957825
2024-12-07 17:55:53.352114200,4.2971142578125,0.2180059850215912,0.1539078205823898,0.5947624444961548
2024-12-07 17:55:53.362087200,4.307087158203125,0.229865550994873,0.2084943652153015,0.5833714604377747
2024-12-07 17:55:53.372061200,4.317061279296875,0.2571672201156616,0.2384458780288696,0.5619958639144897
2024-12-07 17:55:53.382034200,4.3270341796875,0.2943162024021148,0.2450271993875503,0.5099436044692993
2024-12-07 17:55:53.392007200,4.337007080078125,0.3339128792285919,0.2436873614788055,0.4327049553394317
2024-12-07 17:55:53.401980200,4.346980224609375,0.3673411011695862,0.2502516806125641,0.3398368656635284
2024-12-07 17:55:53.411953200,4.356953125,0.3921670913696289,0.288845956325531,0.2598330974578857
2024-12-07 17:55:53.421927200,4.36692724609375,0.406627357006073,0.345000147819519,0.1909671872854232
2024-12-07 17:55:53.431900200,4.376900146484375,0.4237251281738281,0.3812143206596374,0.1082267612218856
2024-12-07 17:55:53.441873200,4.386873046875,0.4440365731716156,0.385436087846756,0.0218058563768863
2024-12-07 17:55:53.451846100,4.39684619140625,0.4568487703800201,0.3831979632377624,-0.0244545824825763
2024-12-07 17:55:53.461819100,4.406819091796875,0.4520531594753265,0.3880890607833862,-0.0122695919126272
2024-12-07 17:55:53.471792000,4.416792236328125,0.4190744459629059,0.3785922229290008,0.0474691055715084
2024-12-07 17:55:53.481766100,4.42676611328125,0.3675707578659057,0.3268419504165649,0.119575522840023
2024-12-07 17:55:53.491739400,4.436739501953125,0.3265176117420196,0.2362199127674102,0.1678833961486816
2024-12-07 17:55:53.501712100,4.446712158203125,0.2905050814151764,0.1193253025412559,0.1978559345006942
2024-12-07 17:55:53.511685000,4.45668505859375,0.2508303523063659,0.0200359988957643,0.2549591660499573
2024-12-07 17:55:53.521658000,4.466658203125,0.205624520778656,0.0171749740839004,0.3469802141189575
2024-12-07 17:55:53.531632000,4.476632080078125,0.1677541136741638,0.0674935355782508,0.4033260643482208
2024-12-07 17:55:53.541605000,4.486605224609375,0.1443976908922195,0.1021811217069625,0.3730479478836059
2024-12-07 17:55:53.551578400,4.496578369140625,0.1320739090442657,0.1470577865839004,0.2724108397960663
2024-12-07 17:55:53.561551000,4.506551025390625,0.1191638335585594,0.2494171559810638,0.1624196916818618
2024-12-07 17:55:53.571525000,4.516525146484375,0.1106534376740455,0.3852261304855346,0.0672966316342353
2024-12-07 17:55:53.581498000,4.526498046875,0.1071210727095604,0.4738131165504455,-0.0329908803105354
2024-12-07 17:55:53.591471000,4.53647119140625,0.1189998388290405,0.4860173165798187,-0.1439959704875946
2024-12-07 17:55:53.601444400,4.5464443359375,0.1172884553670883,0.4568733870983124,-0.2458895742893219
2024-12-07 17:55:53.611417300,4.556417236328125,0.0951128453016281,0.4160452783107757,-0.3236251175403595
2024-12-07 17:55:53.621391000,4.56639111328125,0.0428503006696701,0.3559308648109436,-0.384815514087677
2024-12-07 17:55:53.631364000,4.576364013671875,-0.0284587666392326,0.2476720064878463,-0.4657745361328125
2024-12-07 17:55:53.641337000,4.586337158203125,-0.1056664362549781,0.0936090722680091,-0.5833610892295837
2024-12-07 17:55:53.651310000,4.59631005859375,-0.1816924810409546,-0.0552485845983028,-0.7270612716674805
2024-12-07 17:55:53.661283300,4.606283447265625,-0.2685910761356354,-0.1571245044469833,-0.8850074410438538
2024-12-07 17:55:53.671257300,4.61625732421875,-0.3770232498645782,-0.1896803081035614,-1.0658819675445557
2024-12-07 17:55:53.681230000,4.62622998046875,-0.514875054359436,-0.1094025373458862,-1.2632660865783691
2024-12-07 17:55:53.691203000,4.636203125,-0.6563805341720581,0.0205104481428861,-1.5054374933242798
2024-12-07 17:55:53.701176000,4.646176025390625,-0.7646535038948059,0.0943558365106582,-1.789057731628418
2024-12-07 17:55:53.711149300,4.6561494140625,-0.7968699932098389,0.0704100281000137,-2.051351547241211
2024-12-07 17:55:53.721123300,4.666123291015625,-0.7315136790275574,-0.011797547340393,-2.240354537963867
2024-12-07 17:55:53.731096300,4.676096435546875,-0.5687202215194702,-0.1009734943509101,-2.33924412727356
2024-12-07 17:55:53.741069000,4.686069091796875,-0.4140324294567108,-0.2541670203208923,-2.3194851875305176
2024-12-07 17:55:53.751042000,4.6960419921875,-0.3477687239646911,-0.3018860816955566,-2.1746628284454346
2024-12-07 17:55:53.761015300,4.706015380859375,-0.3483051657676697,-0.2213468253612518,-1.9102025032043457
2024-12-07 17:55:53.770989000,4.715989013671875,-0.4186243116855621,0.0423114523291587,-1.606518268585205
2024-12-07 17:55:53.780962300,4.72596240234375,-0.5690072178840637,0.4819356501102447,-1.3622466325759888
2024-12-07 17:55:53.790935300,4.735935302734375,-0.774072527885437,1.16756010055542,-1.2124162912368774
2024-12-07 17:55:53.800908000,4.745907958984375,-0.971927046775818,1.9449719190597536,-1.2025092840194702
2024-12-07 17:55:53.810881000,4.755881103515625,-1.1147775650024414,2.718309164047241,-1.2962599992752075
2024-12-07 17:55:53.820855000,4.76585498046875,-1.167727828025818,3.366701602935791,-1.400775909423828
2024-12-07 17:55:53.830828300,4.775828369140625,-1.118312120437622,3.658831834793091,-1.4147326946258545
2024-12-07 17:55:53.840801300,4.78580126953125,-0.9849649667739868,3.43613862991333,-1.2896790504455566
2024-12-07 17:55:53.850774300,4.795774169921875,-0.8147311806678772,2.769911766052246,-1.070114254951477
2024-12-07 17:55:53.860748300,4.805748291015625,-0.6889075040817261,1.903285026550293,-0.797895610332489
2024-12-07 17:55:53.870721000,4.815720947265625,-0.6428827047348022,1.041657328605652,-0.5284465551376343
2024-12-07 17:55:53.880694300,4.8256943359375,-0.6582579016685486,0.3936167359352112,-0.3564976155757904
2024-12-07 17:55:53.890667300,4.835667236328125,-0.7301384806632996,0.1004871428012847,-0.2452611178159713
2024-12-07 17:55:53.900640300,4.84564013671875,-0.8114499449729919,0.0913341268897056,-0.1945030689239502
2024-12-07 17:55:53.910614300,4.8556142578125,-0.8574594855308533,0.205873504281044,-0.211960881948471
2024-12-07 17:55:53.920587000,4.8655869140625,-0.8454864621162415,0.3149495124816894,-0.2304960191249847
2024-12-07 17:55:53.930560000,4.87556005859375,-0.7566537857055664,0.2654397487640381,-0.2700950801372528
2024-12-07 17:55:53.940533200,4.885533203125,-0.6354200839996338,0.1203014925122261,-0.2983911037445068
2024-12-07 17:55:53.950506200,4.89550634765625,-0.5299307107925415,-0.0865534171462059,-0.2913712859153747
2024-12-07 17:55:53.960480300,4.905480224609375,-0.4271876513957977,-0.3328427374362945,-0.2473295778036117
2024-12-07 17:55:53.970453200,4.915453369140625,-0.3058505952358246,-0.5664371252059937,-0.1602010577917099
2024-12-07 17:55:53.980426000,4.925426025390625,-0.2040629088878631,-0.7329626679420471,-0.0319453254342079
2024-12-07 17:55:53.990399200,4.935399169921875,-0.1549100130796432,-0.8510165810585022,0.1372136026620865
2024-12-07 17:55:54.000372200,4.945372314453125,-0.1807330697774887,-0.899918258190155,0.3032706379890442
2024-12-07 17:55:54.010346200,4.95534619140625,-0.2020056098699569,-0.8666830658912659,0.4133753180503845
2024-12-07 17:55:54.020319200,4.9653193359375,-0.1668148040771484,-0.7432814836502075,0.4461486935615539
2024-12-07 17:55:54.030292200,4.975292236328125,-0.0876821726560592,-0.5734919309616089,0.4257494211196899
2024-12-07 17:55:54.040265000,4.985264892578125,0.0017064291751012,-0.4165482223033905,0.4041512906551361
2024-12-07 17:55:54.050239000,4.995239013671875,0.0826223120093345,-0.3444556593894958,0.4276688396930694
2024-12-07 17:55:54.060212200,5.005212158203125,0.1784208267927169,-0.3638890087604522,0.4943056106567383
2024-12-07 17:55:54.070185200,5.015185302734375,0.2859827280044555,-0.4697936177253723,0.5470498204231262
2024-12-07 17:55:54.080158200,5.025158203125,0.372749924659729,-0.5759301781654358,0.5722407102584839
2024-12-07 17:55:54.090131200,5.035131103515625,0.4121383428573608,-0.6337215304374695,0.5725717544555664
2024-12-07 17:55:54.100105200,5.045105224609375,0.4226616621017456,-0.657721757888794,0.5433469414710999
2024-12-07 17:55:54.110078200,5.055078125,0.4246315956115722,-0.7217063307762146,0.4885098040103912
2024-12-07 17:55:54.120051200,5.06505126953125,0.4246956408023834,-0.8042567372322083,0.4345757365226745
2024-12-07 17:55:54.130024200,5.075024169921875,0.4318542182445526,-0.8644521236419678,0.4045331478118896
2024-12-07 17:55:54.139997200,5.0849970703125,0.4515335857868194,-0.9419959783554076,0.3802634179592132
2024-12-07 17:55:54.149971200,5.09497119140625,0.4433435499668121,-1.0320228338241575,0.363200306892395
2024-12-07 17:55:54.159944200,5.104944091796875,0.3557931184768677,-1.0512665510177612,0.3793337345123291
2024-12-07 17:55:54.169917200,5.114917236328125,0.174260601401329,-0.9677461981773376,0.398214191198349
2024-12-07 17:55:54.179890200,5.12489013671875,-0.0476062521338462,-0.8081843852996826,0.3857002854347229
2024-12-07 17:55:54.189864200,5.1348642578125,-0.2455502301454544,-0.6458519101142883,0.3145123720169067
2024-12-07 17:55:54.199837200,5.144837158203125,-0.3921300172805786,-0.4374121725559234,0.2424834817647934
2024-12-07 17:55:54.209810200,5.15481005859375,-0.5037484169006348,-0.1933555752038955,0.2133793830871582
2024-12-07 17:55:54.219783200,5.164783203125,-0.5810015201568604,-0.0099119283258914,0.2092030644416809
2024-12-07 17:55:54.229756200,5.174756103515625,-0.5982838869094849,0.0503500774502754,0.2165235579013824
2024-12-07 17:55:54.239730200,5.184730224609375,-0.568764865398407,-0.0438131727278232,0.2475094497203827
2024-12-07 17:55:54.249703200,5.194703125,-0.4832704663276672,-0.237156793475151,0.283170223236084
2024-12-07 17:55:54.259676200,5.20467626953125,-0.3375970721244812,-0.4004465043544769,0.309434562921524
2024-12-07 17:55:54.269649200,5.214649169921875,-0.1622257679700851,-0.4731491804122925,0.3446727097034454
2024-12-07 17:55:54.279623200,5.224623046875,-0.0039767273701727,-0.5244203805923462,0.3642274439334869
2024-12-07 17:55:54.289596200,5.23459619140625,0.1454354077577591,-0.6263775825500488,0.346212238073349
2024-12-07 17:55:54.299569200,5.244569091796875,0.3014820218086242,-0.7720937132835388,0.2932587563991546
2024-12-07 17:55:54.309542100,5.254542236328125,0.4677799344062805,-0.8437122702598572,0.2295397222042083
2024-12-07 17:55:54.319516000,5.264515869140625,0.6241547465324402,-0.8980410695075989,0.1798526048660278
2024-12-07 17:55:54.329490000,5.274489990234375,0.7568217515945435,-1.1478285789489746,0.2302582561969757
2024-12-07 17:55:54.339462700,5.284462646484375,0.8155637383460999,-1.5062140226364136,0.4364950358867645
2024-12-07 17:55:54.349436000,5.294435791015625,0.6529806852340698,-1.3272322416305542,0.6441941857337952
2024-12-07 17:55:54.359409000,5.304408935546875,0.3553171455860138,-0.344634473323822,0.713796079158783
2024-12-07 17:55:54.369383000,5.3143828125,0.1479474604129791,0.7474617958068848,0.6685053110122681
2024-12-07 17:55:54.379356000,5.32435595703125,0.0640731155872345,1.3716620206832886,0.5167539715766907
2024-12-07 17:55:54.389329000,5.334328857421875,0.0867043882608413,1.461124300956726,0.318772405385971
2024-12-07 17:55:54.399302000,5.344302001953125,0.1776137799024582,1.2408679723739624,0.1479444354772567
2024-12-07 17:55:54.409275000,5.35427490234375,0.2878468036651611,0.8613021373748779,0.0158886685967445
2024-12-07 17:55:54.419249000,5.364248779296875,0.4174549877643585,0.4211400151252746,-0.0878811478614807
2024-12-07 17:55:54.429222000,5.374221923828125,0.5535207390785217,0.0257767103612422,-0.1981490701436996
2024-12-07 17:55:54.439195000,5.38419482421875,0.6991604566574097,-0.2470024824142456,-0.3294233977794647
2024-12-07 17:55:54.449167600,5.394167724609375,0.8035255074501038,-0.4893722534179687,-0.4573355615139007
2024-12-07 17:55:54.459141600,5.4041416015625,0.8446216583251953,-0.776245653629303,-0.506727397441864
2024-12-07 17:55:54.469115000,5.414114990234375,0.8198361992835999,-1.0739258527755735,-0.3544939458370209
2024-12-07 17:55:54.479087900,5.424087890625,0.7644328474998474,-1.2817745208740234,0.0945299193263053
2024-12-07 17:55:54.489060900,5.434060791015625,0.6413534879684448,-1.318630337715149,0.6274369359016418
2024-12-07 17:55:54.499033900,5.444033935546875,0.4520080983638763,-1.2139500379562378,0.9490087628364564
2024-12-07 17:55:54.509008000,5.4540078125,0.2863560318946838,-1.0002022981643677,1.061551570892334
2024-12-07 17:55:54.518980900,5.46398095703125,0.1452110111713409,-0.6687653064727783,1.091245412826538
2024-12-07 17:55:54.528953900,5.473953857421875,0.0235285274684429,-0.3449150025844574,1.115508198738098
2024-12-07 17:55:54.538926800,5.4839267578125,-0.0581143014132976,-0.1218464151024818,1.1724464893341064
2024-12-07 17:55:54.548900900,5.49390087890625,-0.1077769249677658,0.0206811781972646,1.243605613708496
2024-12-07 17:55:54.558873900,5.503873779296875,-0.1511120349168777,0.1246106773614883,1.2624876499176023
2024-12-07 17:55:54.568846800,5.513846923828125,-0.1805551499128341,0.2066072672605514,1.1857649087905884
2024-12-07 17:55:54.578819800,5.52381982421875,-0.1797989159822464,0.2642392516136169,0.9888052344322203
2024-12-07 17:55:54.588792800,5.533792724609375,-0.1500966846942901,0.2838153541088104,0.6731774806976318
2024-12-07 17:55:54.598766800,5.543766845703125,-0.1000043004751205,0.2773987352848053,0.3198738396167755
2024-12-07 17:55:54.608739800,5.55373974609375,-0.0307479929178953,0.2678947150707245,0.0397044830024242
2024-12-07 17:55:54.618712800,5.563712890625,0.0358248874545097,0.251060426235199,-0.1017761826515197
2024-12-07 17:55:54.628685800,5.573685791015625,0.0910228937864303,0.2458502054214477,-0.1049991399049758
2024-12-07 17:55:54.638659800,5.583659912109375,0.1251105666160583,0.2475093454122543,-0.0134434588253498
2024-12-07 17:55:54.648632800,5.5936328125,0.1354473680257797,0.2024918049573898,0.1107613146305084
2024-12-07 17:55:54.658605800,5.603605712890625,0.1380194276571273,0.1216470301151275,0.225131094455719
2024-12-07 17:55:54.668578800,5.613578857421875,0.1471157222986221,0.0201576892286539,0.304550290107727
2024-12-07 17:55:54.678551800,5.6235517578125,0.1448436677455902,-0.1298973709344864,0.3802601099014282
2024-12-07 17:55:54.688525800,5.63352587890625,0.1305723190307617,-0.2776791155338287,0.4899948835372925
2024-12-07 17:55:54.698498800,5.643498779296875,0.1323312371969223,-0.3422217965126037,0.6267013549804688
2024-12-07 17:55:54.708471800,5.653471923828125,0.1336353868246078,-0.3478626310825348,0.7655181288719177
2024-12-07 17:55:54.718444800,5.66344482421875,0.1439164876937866,-0.3280580639839172,0.8847065567970276
2024-12-07 17:55:54.728418800,5.673418701171875,0.1317229270935058,-0.2524722218513489,0.95497727394104
2024-12-07 17:55:54.738391800,5.683391845703125,0.1135944575071334,-0.1404591500759124,0.9683130383491516
2024-12-07 17:55:54.748364800,5.69336474609375,0.1134959235787391,0.0029954914934933,0.9280322194099426
2024-12-07 17:55:54.758337800,5.703337890625,0.1312691122293472,0.1580532938241958,0.8323700428009033
2024-12-07 17:55:54.768311800,5.713311767578125,0.1536846756935119,0.2675877809524536,0.6945837140083313
2024-12-07 17:55:54.778284800,5.723284912109375,0.1881759017705917,0.3209848701953888,0.5726405382156372
2024-12-07 17:55:54.788257800,5.7332578125,0.2385485172271728,0.3419618010520935,0.4638887643814087
2024-12-07 17:55:54.798230800,5.743230712890625,0.2947184443473816,0.3225087821483612,0.3541180193424225
2024-12-07 17:55:54.808204000,5.7532041015625,0.3421607911586761,0.273179829120636,0.2437654286623001
2024-12-07 17:55:54.818178000,5.763177978515625,0.3789055943489074,0.2371604293584823,0.151995837688446
2024-12-07 17:55:54.828150800,5.77315087890625,0.4115040004253387,0.2745094001293182,0.107162058353424
2024-12-07 17:55:54.838123800,5.783123779296875,0.4504089057445526,0.3674612641334533,0.1089362651109695
2024-12-07 17:55:54.848096800,5.7930966796875,0.4883464574813843,0.4610061347484588,0.1210491210222244
2024-12-07 17:55:54.858070800,5.80307080078125,0.5105787515640259,0.5280508399009705,0.1309094130992889
2024-12-07 17:55:54.868043800,5.813043701171875,0.5065712332725525,0.5522643327713013,0.124973215162754
2024-12-07 17:55:54.878017000,5.82301708984375,0.4810309708118438,0.5213966369628906,0.1103038340806961
2024-12-07 17:55:54.887989800,5.83298974609375,0.4394201636314392,0.4438693225383758,0.1142642199993133
2024-12-07 17:55:54.897963800,5.8429638671875,0.3889499008655548,0.3304670751094818,0.1442077457904815
2024-12-07 17:55:54.907936800,5.852936767578125,0.3383376002311706,0.1984944194555282,0.1805907934904098
2024-12-07 17:55:54.917909800,5.86290966796875,0.2905938029289245,0.0712003633379936,0.2073770612478256
2024-12-07 17:55:54.927883000,5.872883056640625,0.2445192486047744,-0.009256930090487,0.2297337651252746
2024-12-07 17:55:54.937856000,5.88285595703125,0.2036053240299224,-0.063279204070568,0.2509482502937317
2024-12-07 17:55:54.947830000,5.892830078125,0.1659900397062301,-0.130351185798645,0.2631412744522095
2024-12-07 17:55:54.957802800,5.902802734375,0.1351983100175857,-0.2020243108272552,0.268948495388031
2024-12-07 17:55:54.967775700,5.912775634765625,0.128396600484848,-0.2259285748004913,0.2715871632099151
2024-12-07 17:55:54.977749000,5.9227490234375,0.1364242732524871,-0.148536741733551,0.2788823843002319
2024-12-07 17:55:54.987722800,5.93272265625,0.1460334807634353,3.22263222187e-05,0.2724053263664245
2024-12-07 17:55:54.997696000,5.942696044921875,0.1505856662988662,0.1564453989267349,0.2225114554166793
2024-12-07 17:55:55.007668700,5.952668701171875,0.1453743875026703,0.2747805714607239,0.1290605962276458
2024-12-07 17:55:55.017641700,5.962641845703125,0.1309818029403686,0.3207536041736603,0.007098305504769
2024-12-07 17:55:55.027615700,5.97261572265625,0.1057385057210922,0.3019388914108276,-0.1065739318728447
2024-12-07 17:55:55.037588700,5.982588623046875,0.0758718326687812,0.2247537821531295,-0.2072297483682632
2024-12-07 17:55:55.047562000,5.99256201171875,0.0401207618415355,0.0792937949299812,-0.3135924041271209
2024-12-07 17:55:55.057535000,6.002534912109375,-0.0097376191988587,-0.0915077701210975,-0.42515429854393
2024-12-07 17:55:55.067507700,6.0125078125,-0.0764125213027,-0.1996265202760696,-0.5199588537216187
2024-12-07 17:55:55.077481700,6.022481689453125,-0.1670961827039718,-0.1976555585861206,-0.5839376449584961
2024-12-07 17:55:55.087454700,6.032454833984375,-0.2796847820281982,-0.1383741348981857,-0.6536030173301697
2024-12-07 17:55:55.097428000,6.042427978515625,-0.4012708365917206,-0.0915927812457084,-0.7802610397338867
2024-12-07 17:55:55.107401000,6.05240087890625,-0.5047966241836548,-0.0693958699703216,-0.9909639954566956
2024-12-07 17:55:55.117375000,6.062375,-0.5768502950668335,-0.0770238414406776,-1.2638764381408691
2024-12-07 17:55:55.127348000,6.072347900390625,-0.6224462389945984,-0.106837660074234,-1.5541986227035522
2024-12-07 17:55:55.137320700,6.08232080078125,-0.6134684085845947,-0.1201110184192657,-1.8348329067230225
2024-12-07 17:55:55.147293700,6.092293701171875,-0.5240887403488159,-0.0763305127620697,-2.070219278335572
2024-12-07 17:55:55.157267700,6.102267822265625,-0.3627809882164001,-0.0050923018716275,-2.220978260040283
2024-12-07 17:55:55.167241000,6.112240966796875,-0.1846048533916473,0.0429356768727302,-2.3083596229553223
2024-12-07 17:55:55.177214000,6.1222138671875,-0.0672183781862258,0.0815195068717002,-2.302971363067627
2024-12-07 17:55:55.187187000,6.13218701171875,-0.1098449304699897,0.2127526253461837,-2.202120542526245
2024-12-07 17:55:55.197161000,6.142160888671875,-0.2721476554870605,0.4982316792011261,-2.020357370376587
2024-12-07 17:55:55.207133700,6.1521337890625,-0.4869699478149414,0.8177284598350525,-1.8143987655639648
2024-12-07 17:55:55.217107000,6.16210693359375,-0.6735950112342834,1.147499442100525,-1.5827282667160034
2024-12-07 17:55:55.227080000,6.172079833984375,-0.761260986328125,1.4671351909637451,-1.3817147016525269
2024-12-07 17:55:55.237053000,6.182052978515625,-0.7594327926635742,1.7006133794784546,-1.28032124042511
2024-12-07 17:55:55.247027000,6.19202685546875,-0.7223696112632751,1.883931040763855,-1.2613097429275513
2024-12-07 17:55:55.256999700,6.201999755859375,-0.6807478666305542,1.9682525396347048,-1.273884654045105
2024-12-07 17:55:55.266972700,6.21197265625,-0.6518006324768066,2.012025833129883,-1.2306824922561646
2024-12-07 17:55:55.276946000,6.22194580078125,-0.6417246460914612,1.9905755519866943,-1.1338460445404053
2024-12-07 17:55:55.286920000,6.231919921875,-0.6125118732452393,1.8057188987731936,-1.0245200395584106
2024-12-07 17:55:55.296893000,6.241892822265625,-0.5818873643875122,1.533157229423523,-0.8789574503898621
2024-12-07 17:55:55.306866000,6.251865966796875,-0.5603299140930176,1.2602851390838623,-0.6876139044761658
2024-12-07 17:55:55.316838400,6.26183837890625,-0.5507402420043945,0.9683281183242798,-0.4892398416996002
2024-12-07 17:55:55.326812400,6.2718125,-0.5653524398803711,0.726961076259613,-0.3131303191184997
2024-12-07 17:55:55.336785400,6.281785400390625,-0.6196807622909546,0.6038179397583008,-0.1704499870538711
2024-12-07 17:55:55.346758400,6.29175830078125,-0.6755272746086121,0.5600067973136902,-0.0600670166313648
2024-12-07 17:55:55.356731400,6.3017314453125,-0.6854397058486938,0.5140033960342407,-0.010250886902213
2024-12-07 17:55:55.366705400,6.311705322265625,-0.6468031406402588,0.4219549596309662,0.002814847510308
2024-12-07 17:55:55.376678400,6.321678466796875,-0.5792911052703857,0.2225688099861145,0.0116905439645051
2024-12-07 17:55:55.386651400,6.3316513671875,-0.497008740901947,-0.0439387895166873,0.0281022731214761
2024-12-07 17:55:55.396624400,6.341624267578125,-0.4050290882587433,-0.3112704157829284,0.0494147166609764
2024-12-07 17:55:55.406598400,6.351598388671875,-0.3301985263824463,-0.5083059668540955,0.0888047292828559
2024-12-07 17:55:55.416571400,6.3615712890625,-0.278834581375122,-0.6039806008338928,0.1385820060968399
2024-12-07 17:55:55.426544400,6.37154443359375,-0.2311365902423858,-0.5934286117553711,0.2001556307077407
2024-12-07 17:55:55.436517400,6.381517333984375,-0.1916786134243011,-0.4957611262798309,0.2734788060188293
2024-12-07 17:55:55.446490600,6.39149072265625,-0.1570207625627517,-0.3737385272979736,0.3440954685211181
2024-12-07 17:55:55.456464600,6.401464599609375,-0.0844282731413841,-0.2778084278106689,0.4140209555625915
2024-12-07 17:55:55.466437400,6.411437255859375,0.0223804619163274,-0.2168755680322647,0.4889236986637115
2024-12-07 17:55:55.476410400,6.421410400390625,0.1260677129030227,-0.2172801792621612,0.5635330080986023
2024-12-07 17:55:55.486383400,6.43138330078125,0.2294295281171798,-0.2715980112552643,0.6325908899307251
2024-12-07 17:55:55.496357400,6.441357421875,0.3568488955497741,-0.3593063950538635,0.6529917120933533
2024-12-07 17:55:55.506330400,6.451330322265625,0.4582767188549042,-0.477020263671875,0.6433590650558472
2024-12-07 17:55:55.516303600,6.4613037109375,0.5122414231300354,-0.5579406023025513,0.6341211795806885
2024-12-07 17:55:55.526276400,6.4712763671875,0.5599162578582764,-0.640535295009613,0.614060640335083
2024-12-07 17:55:55.536250400,6.48125048828125,0.6078765988349915,-0.7419852614402771,0.5643460750579834
2024-12-07 17:55:55.546223400,6.491223388671875,0.6360504627227783,-0.8312605023384094,0.4930047690868377
2024-12-07 17:55:55.556196400,6.5011962890625,0.649684488773346,-0.8876994252204895,0.4143451452255249
2024-12-07 17:55:55.566169600,6.511169677734375,0.638848066329956,-0.9475600719451904,0.3400528132915497
2024-12-07 17:55:55.576143600,6.5211435546875,0.5692498087882996,-0.98021399974823,0.299536794424057
2024-12-07 17:55:55.586116400,6.531116455078125,0.4083977937698364,-0.8761376738548279,0.2761912643909454
2024-12-07 17:55:55.596089300,6.54108935546875,0.1493256688117981,-0.6409603953361511,0.218896210193634
2024-12-07 17:55:55.606062300,6.551062255859375,-0.1679263263940811,-0.3429926633834839,0.1012646555900573
2024-12-07 17:55:55.616036400,6.561036376953125,-0.4702197313308716,-0.0186037421226501,-0.0356481410562992
2024-12-07 17:55:55.626009300,6.57100927734375,-0.6795572638511658,0.2132409363985061,-0.1368176341056823
2024-12-07 17:55:55.635982600,6.580982666015625,-0.7835144400596619,0.3289618492126465,-0.1266443878412246
2024-12-07 17:55:55.645955300,6.590955322265625,-0.8176479339599609,0.4089578986167907,0.0120149664580821
2024-12-07 17:55:55.655929300,6.600929443359375,-0.7917239665985107,0.4617235064506531,0.1731814742088318
2024-12-07 17:55:55.665902300,6.61090234375,-0.6778187155723572,0.4536328315734863,0.2885072529315948
2024-12-07 17:55:55.675875300,6.620875244140625,-0.4984690845012665,0.4289508759975433,0.3691032528877258
2024-12-07 17:55:55.685848600,6.6308486328125,-0.2874394059181213,0.3802395462989807,0.4007399976253509
2024-12-07 17:55:55.695822600,6.640822509765625,-0.041436206549406,0.2341946959495544,0.3915491998195648
2024-12-07 17:55:55.705795600,6.650795654296875,0.2250175774097442,-0.0836090967059135,0.3750692903995514
2024-12-07 17:55:55.715768300,6.660768310546875,0.450955182313919,-0.5723854899406433,0.3355578482151031
2024-12-07 17:55:55.725741300,6.6707412109375,0.6111466884613037,-1.0673549175262451,0.215757131576538
2024-12-07 17:55:55.735715300,6.68071533203125,0.7229844927787781,-1.431230902671814,0.1051618382334709
2024-12-07 17:55:55.745688300,6.690688232421875,0.7939177751541138,-1.8185104131698608,0.1950576305389404
2024-12-07 17:55:55.755661600,6.70066162109375,0.8054938316345215,-2.226829290390014,0.5701091289520264
2024-12-07 17:55:55.765634600,6.710634521484375,0.6416025757789612,-2.100261688232422,0.9621900916099548
2024-12-07 17:55:55.775607300,6.720607177734375,0.3649829924106598,-1.3324449062347412,1.1382454633712769
2024-12-07 17:55:55.785581300,6.730581298828125,0.0987883359193801,-0.3372373282909393,1.0510170459747314
2024-12-07 17:55:55.795554300,6.74055419921875,-0.0505076870322227,0.3455447256565094,0.7462713122367859
2024-12-07 17:55:55.805527600,6.750527587890625,-0.0637590438127517,0.5710859894752502,0.3843158185482025
2024-12-07 17:55:55.815500500,6.76050048828125,0.0679521262645721,0.6277926564216614,0.0791164264082908
2024-12-07 17:55:55.825474600,6.770474609375,0.2794438600540161,0.6597700119018555,-0.1256399154663086
2024-12-07 17:55:55.835447300,6.780447265625,0.4591901302337646,0.6048497557640076,-0.2038816213607788
2024-12-07 17:55:55.845420300,6.790420166015625,0.5641245245933533,0.3375080525875091,-0.1473083645105362
2024-12-07 17:55:55.855393500,6.8003935546875,0.6145930290222168,-0.0903505459427833,-0.0264009535312652
2024-12-07 17:55:55.865367300,6.8103671875,0.646770715713501,-0.5325233936309814,0.0490581169724464
2024-12-07 17:55:55.875340500,6.820340576171875,0.6196613311767578,-0.8990266919136047,0.0740452706813812
2024-12-07 17:55:55.885313500,6.8303134765625,0.533935546875,-1.1358386278152466,0.1122770756483078
2024-12-07 17:55:55.895286300,6.840286376953125,0.4262910783290863,-1.1925851106643677,0.2368640154600143
2024-12-07 17:55:55.905260300,6.85026025390625,0.3180197477340698,-1.080397129058838,0.4925945997238159
2024-12-07 17:55:55.915233300,6.8602333984375,0.205541118979454,-0.8270612955093384,0.8059333562850952
2024-12-07 17:55:55.925206500,6.87020654296875,0.0973094627261161,-0.51687091588974,1.0125207901000977
2024-12-07 17:55:55.935179500,6.880179443359375,0.0113183977082371,-0.2064782381057739,1.0531681776046753
2024-12-07 17:55:55.945153500,6.890153564453125,-0.0512722805142402,0.0586980395019054,0.9463085532188416
2024-12-07 17:55:55.955126500,6.90012646484375,-0.0862824991345405,0.2527243793010711,0.7366357445716858
2024-12-07 17:55:55.965099300,6.910099365234375,-0.0852324143052101,0.3819777071475982,0.4825856685638428
2024-12-07 17:55:55.975072300,6.920072265625,-0.0417318679392337,0.4266831278800964,0.2528237402439117
2024-12-07 17:55:55.985046300,6.93004638671875,0.039530761539936,0.4107103049755096,0.0948253348469734
2024-12-07 17:55:55.995019500,6.94001953125,0.1139136254787445,0.375542014837265,0.0416575521230697
2024-12-07 17:55:56.004992500,6.949992431640625,0.1461533159017563,0.3475758731365204,0.0683070048689842
2024-12-07 17:55:56.014965500,6.959965576171875,0.1457637548446655,0.2824105024337768,0.1244761794805526
2024-12-07 17:55:56.024939500,6.969939453125,0.121757224202156,0.1461131125688552,0.1773535013198852
2024-12-07 17:55:56.034912300,6.979912353515625,0.0943873822689056,-0.0194374937564134,0.2261035293340683
2024-12-07 17:55:56.044885500,6.989885498046875,0.0737012773752212,-0.1807507425546646,0.2880201637744903
2024-12-07 17:55:56.054858500,6.9998583984375,0.0438221022486686,-0.2977541983127594,0.3636283576488495
2024-12-07 17:55:56.064832500,7.00983251953125,-0.0098648257553577,-0.3755325973033905,0.4582981467247009
2024-12-07 17:55:56.074805500,7.019805419921875,-0.0628724694252014,-0.3898057341575622,0.5668448209762573
2024-12-07 17:55:56.084778200,7.0297783203125,-0.0861626118421554,-0.3677923083305359,0.6511793732643127
2024-12-07 17:55:56.094751200,7.039751220703125,-0.0878256410360336,-0.3779277205467224,0.6864452958106995
2024-12-07 17:55:56.104725200,7.049725341796875,-0.0867830142378807,-0.4109048545360565,0.6860849857330322
2024-12-07 17:55:56.114698500,7.059698486328125,-0.072178304195404,-0.4300380349159241,0.6692780256271362
2024-12-07 17:55:56.124671500,7.06967138671875,-0.0354101695120334,-0.4225082099437713,0.6502350568771362
2024-12-07 17:55:56.134644500,7.07964453125,0.0197980012744665,-0.3904817104339599,0.6241738796234131
2024-12-07 17:55:56.144618500,7.089618408203125,0.0879735946655273,-0.3588694632053375,0.5806069374084473
2024-12-07 17:55:56.154591200,7.09959130859375,0.1456236094236374,-0.3439348638057709,0.5186730027198792
2024-12-07 17:55:56.164564500,7.109564453125,0.1936470717191696,-0.3200961053371429,0.4486486315727234
2024-12-07 17:55:56.174537500,7.119537353515625,0.2214826345443725,-0.2862052321434021,0.3914308249950409
2024-12-07 17:55:56.184511500,7.129511474609375,0.2487565875053405,-0.2532020211219787,0.3565101325511932
2024-12-07 17:55:56.194484500,7.139484375,0.279835432767868,-0.2275252789258957,0.368634283542633
2024-12-07 17:55:56.204457500,7.14945751953125,0.3100588321685791,-0.199625477194786,0.4290989637374878
2024-12-07 17:55:56.214430200,7.15943017578125,0.3235012292861938,-0.129273846745491,0.5032852292060852
2024-12-07 17:55:56.224404200,7.169404296875,0.3058109283447265,-0.0308247674256563,0.5317273139953613
2024-12-07 17:55:56.234377500,7.17937744140625,0.271147221326828,0.0634838938713073,0.5073351263999939
2024-12-07 17:55:56.244350500,7.1893505859375,0.2420519143342971,0.1426165252923965,0.4576804935932159
2024-12-07 17:55:56.254323500,7.199323486328125,0.2345545142889022,0.2174167484045028,0.4055280685424804
2024-12-07 17:55:56.264297500,7.20929736328125,0.245161086320877,0.2987425029277801,0.3558776974678039
2024-12-07 17:55:56.274270500,7.2192705078125,0.2658924460411072,0.3708326816558838,0.3186960220336914
2024-12-07 17:55:56.284243500,7.229243408203125,0.2776172757148742,0.4041991531848907,0.2880598306655884
2024-12-07 17:55:56.294216400,7.239216552734375,0.2831161916255951,0.3968485593795776,0.2599580883979797
2024-12-07 17:55:56.304190500,7.2491904296875,0.2952897846698761,0.3588330149650574,0.1956544667482376
2024-12-07 17:55:56.314163200,7.2591630859375,0.3091630041599273,0.2986624836921692,0.0856262445449829
2024-12-07 17:55:56.324136000,7.269135986328125,0.3110615909099579,0.2428604513406753,-0.0165304876863956
2024-12-07 17:55:56.334109200,7.279109130859375,0.2868869602680206,0.2147876769304275,-0.0667635723948478
2024-12-07 17:55:56.344083000,7.2890830078125,0.2316316962242126,0.2109889388084411,-0.0617765337228775
2024-12-07 17:55:56.354056200,7.29905615234375,0.1499973684549331,0.199601724743843,-0.0307759642601013
2024-12-07 17:55:56.364029200,7.309029296875,0.0604062303900718,0.1584276556968689,-0.0120757790282368
2024-12-07 17:55:56.374002000,7.319001953125,-0.0011050436878576,0.1026279628276825,-0.0293296314775943
2024-12-07 17:55:56.383976000,7.328975830078125,-0.0296775661408901,0.0699443146586418,-0.0765690505504608
2024-12-07 17:55:56.393949000,7.338948974609375,-0.0239277444779872,0.0860903114080429,-0.1557400673627853
2024-12-07 17:55:56.403922200,7.348922119140625,-0.0120143601670861,0.1538642942905426,-0.2578035593032837
2024-12-07 17:55:56.413895200,7.358895263671875,-0.0190184377133846,0.2676852643489837,-0.3675215542316437
2024-12-07 17:55:56.423869200,7.368869140625,-0.0506690442562103,0.3928098976612091,-0.4542511105537414
2024-12-07 17:55:56.433842200,7.37884228515625,-0.0842045024037361,0.5156716108322144,-0.4948506355285644
2024-12-07 17:55:56.443815000,7.38881494140625,-0.1017009392380714,0.5986690521240234,-0.4935214519500732
2024-12-07 17:55:56.453788200,7.3987880859375,-0.093054175376892,0.5943453311920166,-0.4797761738300323
2024-12-07 17:55:56.463762000,7.408761962890625,-0.0766147449612617,0.5189336538314819,-0.4838457405567169
2024-12-07 17:55:56.473735200,7.418735107421875,-0.0709484815597534,0.3787558674812317,-0.5220075845718384
2024-12-07 17:55:56.483708200,7.428708251953125,-0.0872779190540313,0.159439206123352,-0.6031554341316223
2024-12-07 17:55:56.493681200,7.43868115234375,-0.1199732646346092,-0.1362300515174865,-0.7101295590400696
2024-12-07 17:55:56.503655200,7.4486552734375,-0.1585432887077331,-0.4310007095336914,-0.8117696046829224
2024-12-07 17:55:56.513628000,7.4586279296875,-0.2063300609588623,-0.5544940829277039,-0.8599783778190613
2024-12-07 17:55:56.523601200,7.46860107421875,-0.2558645904064178,-0.435366153717041,-0.8763200640678406
2024-12-07 17:55:56.533574100,7.47857421875,-0.3106343150138855,-0.2411853522062301,-0.9326329231262208
2024-12-07 17:55:56.543548200,7.488548095703125,-0.3636482656002044,-0.0616094768047332,-1.0529379844665527
2024-12-07 17:55:56.553521200,7.498521240234375,-0.3823843896389007,0.1434205025434494,-1.2149146795272827
2024-12-07 17:55:56.563494100,7.508494140625,-0.3593491017818451,0.3629171550273895,-1.401104211807251
2024-12-07 17:55:56.573467100,7.518467041015625,-0.3163339495658874,0.486801415681839,-1.5996263027191162
2024-12-07 17:55:56.583441000,7.52844091796875,-0.250171959400177,0.4889516532421112,-1.7815377712249756
2024-12-07 17:55:56.593414100,7.5384140625,-0.186663269996643,0.4077136516571045,-1.905962347984314
2024-12-07 17:55:56.603387100,7.54838720703125,-0.1608420610427856,0.2861009240150451,-1.931597113609314
2024-12-07 17:55:56.613360000,7.558360107421875,-0.1892395466566085,0.2461852729320526,-1.876492619514465
2024-12-07 17:55:56.623334100,7.568334228515625,-0.261440247297287,0.3364011645317077,-1.7805849313735962
2024-12-07 17:55:56.633307000,7.578306884765625,-0.3754718601703644,0.5113345980644226,-1.6989750862121582
2024-12-07 17:55:56.643280100,7.588280029296875,-0.5050972104072571,0.7506904602050781,-1.6013389825820925
2024-12-07 17:55:56.653253000,7.598253173828125,-0.6156315803527832,1.0834380388259888,-1.4502198696136477
2024-12-07 17:55:56.663227100,7.60822705078125,-0.6853454113006592,1.4490032196044922,-1.2804208993911743
2024-12-07 17:55:56.673200000,7.6182001953125,-0.7196481823921204,1.7797578573226929,-1.1504836082458496
2024-12-07 17:55:56.683173000,7.628173095703125,-0.7274925112724304,2.086181640625,-1.0733320713043213
2024-12-07 17:55:56.693146000,7.63814599609375,-0.7334458827972412,2.394913911819458,-1.0165672302246094
2024-12-07 17:55:56.703120000,7.648119873046875,-0.7488192915916443,2.605613470077514,-0.9559046626091005
2024-12-07 17:55:56.713093000,7.658093017578125,-0.7110341787338257,2.6238584518432617,-0.8463726043701172
2024-12-07 17:55:56.723066000,7.668066162109375,-0.6459329128265381,2.426221370697021,-0.6865997314453125
2024-12-07 17:55:56.733040000,7.6780400390625,-0.5633156299591064,2.027941942214966,-0.5001275539398193
2024-12-07 17:55:56.743013000,7.68801318359375,-0.4970830380916595,1.6179208755493164,-0.3156423568725586
2024-12-07 17:55:56.752986000,7.697986083984375,-0.4716377556324005,1.2522233724594116,-0.1991101950407028
2024-12-07 17:55:56.762959000,7.707958984375,-0.4843921661376953,0.8757107257843018,-0.1704103648662567
2024-12-07 17:55:56.772933000,7.71793310546875,-0.517486035823822,0.5678957104682922,-0.1393400877714157
2024-12-07 17:55:56.782906000,7.727906005859375,-0.5272425413131714,0.3441713154315948,-0.1017287895083427
2024-12-07 17:55:56.792879000,7.737879150390625,-0.4788541793823242,0.1536185443401336,-0.071015678346157
2024-12-07 17:55:56.802852000,7.74785205078125,-0.4333966970443725,-0.0181729290634393,-0.0196113437414169
2024-12-07 17:55:56.812826000,7.757826171875,-0.3784709870815277,-0.19376902282238,0.0326586030423641
2024-12-07 17:55:56.822799000,7.767799072265625,-0.3060479164123535,-0.343980073928833,0.0806016251444816
2024-12-07 17:55:56.832772000,7.777772216796875,-0.2362470477819442,-0.4371926486492157,0.1530323773622512
2024-12-07 17:55:56.842745000,7.7877451171875,-0.186459794640541,-0.4888619780540466,0.2649487853050232
2024-12-07 17:55:56.852719000,7.797718994140625,-0.1503153294324875,-0.5308766961097717,0.3929634690284729
2024-12-07 17:55:56.862692000,7.807692138671875,-0.1376834213733673,-0.5512517094612122,0.52064049243927
2024-12-07 17:55:56.872665000,7.8176650390625,-0.1226688772439956,-0.5569925904273987,0.6103269457817078
2024-12-07 17:55:56.882638000,7.82763818359375,-0.0911493003368377,-0.543070375919342,0.6492857933044434
2024-12-07 17:55:56.892612000,7.837612060546875,-0.0451352708041667,-0.5083251595497131,0.6419641971588135
2024-12-07 17:55:56.902585000,7.847585205078125,0.0026461011730134,-0.490168035030365,0.619075357913971
2024-12-07 17:55:56.915052300,7.86005224609375,0.0837360620498657,-0.4476020932197571,0.6332136988639832
2024-12-07 17:55:56.925025000,7.87002490234375,0.1799262464046478,-0.4283261299133301,0.6647830605506897
2024-12-07 17:55:56.934999000,7.8799990234375,0.263594776391983,-0.3932922482490539,0.7062236666679382
2024-12-07 17:55:56.944972000,7.889971923828125,0.3311392068862915,-0.3558263778686523,0.7446455955505371
2024-12-07 17:55:56.954945000,7.899945068359375,0.3779186010360718,-0.2922424972057342,0.783338189125061
2024-12-07 17:55:56.964918000,7.90991796875,0.4147360026836395,-0.2349472641944885,0.7690130472183228
2024-12-07 17:55:56.974892000,7.91989208984375,0.4330624938011169,-0.2160777449607849,0.6982610821723938
2024-12-07 17:55:56.984865300,7.929865234375,0.4492020606994629,-0.2917474806308746,0.598054051399231
2024-12-07 17:55:56.994838000,7.939838134765625,0.4432256519794464,-0.4852088391780853,0.5107635855674744
2024-12-07 17:55:57.004811000,7.94981103515625,0.4003538191318512,-0.7273783087730408,0.4647508263587951
2024-12-07 17:55:57.014785000,7.959784912109375,0.3256970643997192,-0.9141888618469238,0.4484052062034607
2024-12-07 17:55:57.024758000,7.969758056640625,0.2350665032863617,-0.9211194515228271,0.4181873798370361
2024-12-07 17:55:57.034731300,7.979731201171875,0.1301273554563522,-0.7046427726745605,0.340549886226654
2024-12-07 17:55:57.044705300,7.989705322265625,-0.05479696393013,-0.4031140804290771,0.1762062311172485
2024-12-07 17:55:57.054678300,7.99967822265625,-0.2681260108947754,-0.1005303114652633,-0.0136502925306558
2024-12-07 17:55:57.064651000,8.009651123046876,-0.4617260992527008,0.1699520349502563,-0.1209514513611793
2024-12-07 17:55:57.074624000,8.0196240234375,-0.5859389305114746,0.3186433315277099,-0.0991495251655578
2024-12-07 17:55:57.084598000,8.029597900390625,-0.6046319007873535,0.3124338984489441,0.0067092631943523
2024-12-07 17:55:57.094571000,8.039571044921875,-0.5797979235649109,0.1635560691356659,0.1554130166769027
2024-12-07 17:55:57.104544300,8.049544189453124,-0.5487382411956787,-0.0395339280366897,0.3158426582813263
2024-12-07 17:55:57.114517200,8.059517333984376,-0.4657316207885742,-0.2547432780265808,0.4289464950561523
2024-12-07 17:55:57.124491000,8.069490966796875,-0.3010113835334778,-0.4479793310165405,0.4463214874267578
2024-12-07 17:55:57.134464000,8.079464111328125,-0.098531499505043,-0.6167899966239929,0.3672009110450744
2024-12-07 17:55:57.144437000,8.08943701171875,0.0729739442467689,-0.8061777949333191,0.2273104190826416
2024-12-07 17:55:57.154410200,8.09941015625,0.1937064826488495,-1.087303876876831,0.0836404934525489
2024-12-07 17:55:57.164384000,8.109384033203124,0.2776703536510467,-1.4545741081237793,0.0175171289592981
2024-12-07 17:55:57.174357200,8.119357177734376,0.3410550057888031,-1.80734121799469,0.0543901734054088
2024-12-07 17:55:57.184330000,8.129330078125,0.3924931585788727,-2.0391759872436523,0.1376552283763885
2024-12-07 17:55:57.194303000,8.139302978515625,0.4538633227348327,-2.0752832889556885,0.1839911043643951
2024-12-07 17:55:57.204277000,8.149277099609375,0.5154012441635132,-1.9120402336120603,0.2103095352649688
2024-12-07 17:55:57.214250000,8.15925,0.531072199344635,-1.634642243385315,0.3422589004039764
2024-12-07 17:55:57.224222200,8.16922216796875,0.4461727142333984,-1.5002995729446411,0.9317967295646667
2024-12-07 17:55:57.234195000,8.17919482421875,0.249148428440094,-1.411506175994873,1.709643006324768
2024-12-07 17:55:57.244169000,8.1891689453125,-0.0729025825858116,-0.9017987847328186,1.895828127861023
2024-12-07 17:55:57.254142000,8.199141845703124,-0.3440045714378357,-0.05890728905797,1.3484808206558228
2024-12-07 17:55:57.264115200,8.209115234375,-0.3519783318042755,0.6448801755905151,0.5808547735214233
2024-12-07 17:55:57.274088200,8.219088134765625,-0.1789969950914383,1.0006647109985352,0.0926848575472831
2024-12-07 17:55:57.284062200,8.229062255859375,0.0694857984781265,1.1815940141677856,-0.104316622018814
2024-12-07 17:55:57.294035200,8.23903515625,0.3388112187385559,1.2195634841918943,-0.1640129834413528
2024-12-07 17:55:57.304008000,8.249008056640625,0.5341702699661255,1.102512001991272,-0.2216847985982895
2024-12-07 17:55:57.313983000,8.25898291015625,0.611637532711029,0.8280114531517029,-0.3193511068820953
2024-12-07 17:55:57.323956000,8.2689560546875,0.6343633532524109,0.4462628066539764,-0.4646782279014587
2024-12-07 17:55:57.333928700,8.2789287109375,0.6569151282310486,0.0046294997446238,-0.6614041328430176
2024-12-07 17:55:57.343902000,8.28890185546875,0.6824505925178528,-0.4940809905529022,-0.8699783682823181
2024-12-07 17:55:57.353876000,8.2988759765625,0.7140058875083923,-0.9756212830543518,-0.9978341460227966
2024-12-07 17:55:57.363849000,8.308848876953125,0.729049026966095,-1.332024335861206,-0.94251948595047
2024-12-07 17:55:57.373822000,8.318822021484374,0.7196438312530518,-1.5710071325302124,-0.4967971742153168
2024-12-07 17:55:57.383795000,8.328794921875,0.6934460997581482,-1.6756224632263184,0.591893196105957
2024-12-07 17:55:57.393769000,8.33876904296875,0.4816165864467621,-1.577842116355896,1.3980047702789309
2024-12-07 17:55:57.403742000,8.348741943359375,0.1529644131660461,-1.4260025024414062,1.6110496520996094
2024-12-07 17:55:57.413715000,8.35871484375,-0.0974766314029693,-1.140625238418579,1.5368651151657104
2024-12-07 17:55:57.423688000,8.36868798828125,-0.209300622344017,-0.6671133041381836,1.4193118810653689
2024-12-07 17:55:57.433662000,8.378661865234376,-0.2166718989610672,-0.1469330787658691,1.321419358253479
2024-12-07 17:55:57.443635000,8.388635009765625,-0.195462480187416,0.282265692949295,1.2150274515151978
2024-12-07 17:55:57.453608000,8.39860791015625,-0.1721319258213043,0.5911123156547546,1.0382815599441528
2024-12-07 17:55:57.463582000,8.40858203125,-0.1304835528135299,0.7827938795089722,0.7746569514274597
2024-12-07 17:55:57.473555000,8.418554931640625,-0.0755725353956222,0.838909924030304,0.4974051713943481
2024-12-07 17:55:57.483528000,8.42852783203125,-0.0208823941648006,0.7761070132255554,0.2891930937767029
2024-12-07 17:55:57.493501000,8.4385009765625,0.0164156593382358,0.6471622586250305,0.1792109012603759
2024-12-07 17:55:57.503475000,8.448474853515625,0.0383752845227718,0.4976963698863983,0.1552451103925705
2024-12-07 17:55:57.513448000,8.458447998046875,0.0502504408359527,0.3201122879981994,0.1917781382799148
2024-12-07 17:55:57.523421000,8.4684208984375,0.0549200288951396,0.1543752700090408,0.2871464788913727
2024-12-07 17:55:57.533394000,8.478393798828124,0.0602683126926422,0.0715262219309806,0.42076176404953
2024-12-07 17:55:57.543368000,8.488367919921876,0.0731327161192894,0.0561121143400669,0.544642448425293
2024-12-07 17:55:57.553341000,8.4983408203125,0.0994637608528137,0.0748177319765091,0.6096200942993164
2024-12-07 17:55:57.563314000,8.50831396484375,0.1386625617742538,0.1253642588853836,0.6163821220397949
2024-12-07 17:55:57.573287000,8.518286865234375,0.1861919909715652,0.1644116044044494,0.5689868927001953
2024-12-07 17:55:57.583261000,8.528260986328124,0.2326489686965942,0.1799471527338028,0.5118027329444885
2024-12-07 17:55:57.593234000,8.53823388671875,0.2713414430618286,0.2132643163204193,0.4451360702514648
2024-12-07 17:55:57.603207000,8.54820703125,0.2916038334369659,0.2712618410587311,0.3856469094753265
2024-12-07 17:55:57.613181000,8.558180908203125,0.3039672374725342,0.3785696625709533,0.3281641900539398
2024-12-07 17:55:57.623154000,8.56815380859375,0.3226913809776306,0.481025218963623,0.2692164480686188
2024-12-07 17:55:57.633127000,8.578126953125,0.3273813724517822,0.5025480389595032,0.217321515083313
2024-12-07 17:55:57.643100000,8.588099853515626,0.3059727549552917,0.4459196329116821,0.2189598977565765
2024-12-07 17:55:57.653074000,8.598073974609376,0.2869578599929809,0.3698968887329101,0.2629787623882293
2024-12-07 17:55:57.663047000,8.608046875,0.2920013666152954,0.3354371786117553,0.3125628232955932
2024-12-07 17:55:57.673020000,8.61802001953125,0.2944446504116058,0.3096040189266205,0.3563251793384552
2024-12-07 17:55:57.682993000,8.627992919921875,0.291288822889328,0.2935038805007934,0.3980734348297119
2024-12-07 17:55:57.692967000,8.637966796875,0.2963565587997436,0.308845192193985,0.4405170083045959
2024-12-07 17:55:57.702940000,8.64793994140625,0.3233506381511688,0.3496395051479339,0.4855614304542541
2024-12-07 17:55:57.712913200,8.6579130859375,0.3626837730407715,0.3797175586223602,0.5157488584518433
2024-12-07 17:55:57.722887000,8.667886962890625,0.3966886103153229,0.4051377177238464,0.5147081017494202
2024-12-07 17:55:57.732860000,8.67785986328125,0.4204191863536834,0.4385486543178558,0.4710477292537689
2024-12-07 17:55:57.742833000,8.6878330078125,0.4297468960285187,0.4602624773979187,0.3764714002609253
2024-12-07 17:55:57.752806000,8.697805908203126,0.4269512593746185,0.4666933715343475,0.2520632445812225
2024-12-07 17:55:57.762780000,8.70777978515625,0.4160184562206268,0.4569243490695953,0.144433706998825
2024-12-07 17:55:57.772753000,8.7177529296875,0.3900583684444427,0.434048980474472,0.0992918163537979
2024-12-07 17:55:57.782726000,8.727725830078125,0.3518441319465637,0.3849994242191314,0.1230695843696594
2024-12-07 17:55:57.792699000,8.737698974609375,0.307401031255722,0.2975067794322967,0.1853044927120208
2024-12-07 17:55:57.802673000,8.7476728515625,0.2639145255088806,0.1737195998430252,0.2348853647708892
2024-12-07 17:55:57.812646000,8.75764599609375,0.2307623326778412,0.0420440174639225,0.2426583170890808
2024-12-07 17:55:57.822619000,8.767618896484375,0.1957260519266128,-0.0524079166352748,0.2393858134746551
2024-12-07 17:55:57.832593000,8.777593017578125,0.1562247276306152,-0.0615580081939697,0.2619526386260986
2024-12-07 17:55:57.842566000,8.78756591796875,0.1128117367625236,0.0296515319496393,0.3252655863761902
2024-12-07 17:55:57.852539000,8.797538818359374,0.0929373875260353,0.182861253619194,0.3807237446308136
2024-12-07 17:55:57.862511900,8.807511962890626,0.0968098938465118,0.3546774983406067,0.3742336332798004
2024-12-07 17:55:57.872486000,8.81748583984375,0.1036458536982536,0.5155304074287415,0.2843028306961059
2024-12-07 17:55:57.882459000,8.827458984375,0.0913915783166885,0.6640786528587341,0.1414666026830673
2024-12-07 17:55:57.892432000,8.837431884765625,0.0660013779997825,0.7703090310096741,-0.0379787050187587
2024-12-07 17:55:57.902405000,8.847405029296874,0.0450833104550838,0.7756295204162598,-0.2407597750425338
2024-12-07 17:55:57.912379100,8.857379150390624,0.040130965411663,0.6678563952445984,-0.4410198926925659
2024-12-07 17:55:57.922351900,8.867351806640626,0.0425081029534339,0.4372421205043793,-0.631679892539978
2024-12-07 17:55:57.932324900,8.877324951171875,0.0168379824608564,0.1729709655046463,-0.7925065159797668
2024-12-07 17:55:57.942299000,8.887298828125,-0.0756882280111312,0.021242156624794,-0.8959508538246155
2024-12-07 17:55:57.952272000,8.89727197265625,-0.203277051448822,0.0331208482384681,-0.977630376815796
2024-12-07 17:55:57.962244900,8.907244873046874,-0.3499482572078705,0.0913708433508873,-1.0637813806533811
2024-12-07 17:55:57.972218000,8.917218017578126,-0.5597625970840454,0.1689522117376327,-1.194159746170044
2024-12-07 17:55:57.982192000,8.927192138671876,-0.7293833494186401,0.3267543613910675,-1.3402576446533203
2024-12-07 17:55:57.992164900,8.937164794921875,-0.8230108022689819,0.5238943696022034,-1.5225273370742798
2024-12-07 17:55:58.002137900,8.947137939453125,-0.8025617003440857,0.6490365862846375,-1.7292373180389404
2024-12-07 17:55:58.012110800,8.95711083984375,-0.6813409924507141,0.6033775806427002,-1.9244855642318728
2024-12-07 17:55:58.022084900,8.9670849609375,-0.4925276935100555,0.4527108669281006,-2.111708879470825
2024-12-07 17:55:58.032058000,8.97705810546875,-0.3018467128276825,0.2949430048465729,-2.1512906551361084
2024-12-07 17:55:58.042030800,8.98703076171875,-0.1833557784557342,0.1409260034561157,-2.075234889984131
2024-12-07 17:55:58.052004900,8.9970048828125,-0.1263961941003799,-0.0207122694700956,-1.9467377662658687
2024-12-07 17:55:58.061977900,9.006977783203125,-0.1599946469068527,-0.047650147229433,-1.747909426689148
2024-12-07 17:55:58.071950800,9.016950927734374,-0.3004629015922546,0.1105910465121269,-1.544548273086548
2024-12-07 17:55:58.081923800,9.026923828125,-0.5142580270767212,0.4788021147251129,-1.3435286283493042
2024-12-07 17:55:58.091897900,9.03689794921875,-0.719149649143219,0.9975504875183104,-1.1699470281600952
2024-12-07 17:55:58.101871000,9.04687109375,-0.8132076859474182,1.5456463098526,-1.0875447988510132
2024-12-07 17:55:58.111843800,9.05684375,-0.8262487649917603,1.999914526939392,-1.088833570480347
2024-12-07 17:55:58.121816800,9.06681689453125,-0.8183549046516418,2.3565540313720703,-1.1142367124557495
2024-12-07 17:55:58.131790800,9.076790771484376,-0.795689046382904,2.5925276279449463,-1.124428391456604
2024-12-07 17:55:58.141763800,9.086763916015624,-0.7660690546035767,2.66752028465271,-1.0741649866104126
2024-12-07 17:55:58.151737000,9.096737060546875,-0.7383483052253723,2.535300970077514,-0.941709280014038
2024-12-07 17:55:58.161711000,9.106711181640623,-0.7315484285354614,2.254233121871948,-0.7181845903396606
2024-12-07 17:55:58.171684000,9.11668408203125,-0.7636922001838684,1.9663398265838623,-0.4566889107227325
2024-12-07 17:55:58.181656800,9.12665673828125,-0.778887927532196,1.7592414617538452,-0.279419332742691
2024-12-07 17:55:58.191629800,9.1366298828125,-0.7805628180503845,1.4329650402069092,-0.210851639509201
2024-12-07 17:55:58.201603800,9.146603759765624,-0.7449773550033569,1.1317682266235352,-0.1565124988555908
2024-12-07 17:55:58.211576800,9.156576904296877,-0.6899733543395996,0.9349573850631714,-0.0820183232426643
2024-12-07 17:55:58.221550000,9.166550048828125,-0.6230563521385193,0.7596102952957153,-0.0237478278577327
2024-12-07 17:55:58.231523000,9.176523193359374,-0.5834203362464905,0.5549699068069458,0.0345652997493743
2024-12-07 17:55:58.241497000,9.1864970703125,-0.5915464758872986,0.2919193804264068,0.0858119800686836
2024-12-07 17:55:58.251469800,9.1964697265625,-0.6012933254241943,0.0305819697678089,0.0959117859601974
2024-12-07 17:55:58.261442800,9.20644287109375,-0.567855179309845,-0.2467013001441955,0.0761876106262207
2024-12-07 17:55:58.271416800,9.216416748046877,-0.4921958148479461,-0.5075240731239319,0.0477050133049488
2024-12-07 17:55:58.281389800,9.226389892578124,-0.4217250943183899,-0.7426460385322571,0.0682643502950668
2024-12-07 17:55:58.291363000,9.236363037109374,-0.362147569656372,-0.8742320537567139,0.138732761144638
2024-12-07 17:55:58.301335800,9.246335693359375,-0.3003438711166382,-0.8524900078773499,0.2121864706277847
2024-12-07 17:55:58.311309800,9.256309814453124,-0.2290226817131042,-0.7312791347503662,0.2594599723815918
2024-12-07 17:55:58.321282600,9.266282470703125,-0.1447501480579376,-0.5899220108985901,0.2943063676357269
2024-12-07 17:55:58.331255600,9.276255615234374,-0.0715043395757675,-0.5120300054550171,0.3429095447063446
2024-12-07 17:55:58.341228800,9.286228759765624,-0.0072731589898467,-0.5025169253349304,0.4212501645088196
2024-12-07 17:55:58.351202800,9.296202880859376,0.0663491487503051,-0.5332644581794739,0.4991276264190674
2024-12-07 17:55:58.361175800,9.30617578125,0.1657825261354446,-0.5685625076293945,0.5444898009300232
2024-12-07 17:55:58.371148500,9.3161484375,0.252824604511261,-0.6206586360931396,0.5569666624069214
2024-12-07 17:55:58.381122600,9.32612255859375,0.3107741773128509,-0.679500162601471,0.5367727279663086
2024-12-07 17:55:58.391095600,9.336095458984374,0.3442200720310211,-0.7021538019180298,0.4894291162490845
2024-12-07 17:55:58.401068800,9.34606884765625,0.3745231330394745,-0.7141556143760681,0.4357051849365234
2024-12-07 17:55:58.411041800,9.356041748046875,0.4124164581298828,-0.7708348035812378,0.3819375932216644
2024-12-07 17:55:58.421015800,9.366015869140623,0.4559484720230102,-0.8906256556510925,0.3499642014503479
2024-12-07 17:55:58.430988800,9.37598876953125,0.4791777431964874,-0.9977676272392272,0.3474800288677215
2024-12-07 17:55:58.440961500,9.38596142578125,0.4696862399578094,-1.0506154298782349,0.3333863317966461
2024-12-07 17:55:58.450935600,9.395935546875,0.3955572545528412,-1.0454238653182983,0.2992097735404968
2024-12-07 17:55:58.460908500,9.405908447265626,0.2620029151439667,-0.9594237208366394,0.2757499814033508
2024-12-07 17:55:58.470881800,9.4158818359375,0.102175697684288,-0.8890421390533447,0.2692456245422363
2024-12-07 17:55:58.480854800,9.425854736328125,-0.0501696318387985,-0.8947160243988037,0.258586049079895
2024-12-07 17:55:58.490828800,9.435828857421876,-0.2078699767589569,-0.9038909077644348,0.2328346371650695
2024-12-07 17:55:58.500801500,9.445801513671874,-0.3310047090053558,-0.7957870960235596,0.2170021384954452
2024-12-07 17:55:58.510774500,9.4557744140625,-0.4174795746803283,-0.5873324275016785,0.2139946371316909
2024-12-07 17:55:58.520747800,9.465747802734375,-0.4658447206020355,-0.3634761869907379,0.2184996306896209
2024-12-07 17:55:58.530721800,9.4757216796875,-0.4691439270973205,-0.1877527236938476,0.244169071316719
2024-12-07 17:55:58.540694800,9.48569482421875,-0.4246936440467834,-0.0863257125020027,0.2910849153995514
2024-12-07 17:55:58.550667800,9.495667724609374,-0.3224299550056457,-0.0910391435027122,0.3083813190460205
2024-12-07 17:55:58.560641800,9.505641845703124,-0.1499870717525482,-0.2500447928905487,0.2570808231830597
2024-12-07 17:55:58.570614500,9.515614501953126,0.0341749675571918,-0.4699744582176208,0.2073828428983688
2024-12-07 17:55:58.580587500,9.52558740234375,0.191588819026947,-0.6497524380683899,0.2093155086040496
2024-12-07 17:55:58.590560800,9.535560791015625,0.2969075441360473,-0.7974205613136292,0.2120931595563888
2024-12-07 17:55:58.600534800,9.54553466796875,0.3484279811382293,-0.8684619665145874,0.1736695915460586
2024-12-07 17:55:58.610507800,9.5555078125,0.3680825233459472,-0.7747851014137268,0.1084380745887756
2024-12-07 17:55:58.620480800,9.565480712890626,0.3355387151241302,-0.502280056476593,0.0903714597225189
2024-12-07 17:55:58.630454800,9.575454833984375,0.2267886698246002,-0.1038970872759819,0.1966270357370376
2024-12-07 17:55:58.640427500,9.585427490234377,0.2053845822811126,0.3010730445384979,0.3724982142448425
2024-12-07 17:55:58.650400500,9.595400390625,0.2485031485557556,0.514636754989624,0.4720438420772552
2024-12-07 17:55:58.660373800,9.605373779296874,0.2869557440280914,0.5056360363960266,0.4526831805706024
2024-12-07 17:55:58.670347800,9.61534765625,0.3114340603351593,0.3038547039031982,0.363596647977829
2024-12-07 17:55:58.680320800,9.62532080078125,0.3685338199138641,-0.0129072563722729,0.2453895956277847
2024-12-07 17:55:58.690293800,9.635293701171875,0.4831317365169525,-0.3223280906677246,0.1188492178916931
2024-12-07 17:55:58.700267800,9.645267822265623,0.633249044418335,-0.5363035202026367,0.0011651995591819
2024-12-07 17:55:58.710240500,9.655240478515625,0.7691028118133545,-0.6671628355979919,-0.098605066537857
2024-12-07 17:55:58.720213800,9.6652138671875,0.8220347166061401,-0.8102275729179382,-0.1341444253921508
2024-12-07 17:55:58.730186800,9.675186767578126,0.7875174880027771,-1.0313003063201904,-0.0553745478391647
2024-12-07 17:55:58.740160800,9.685160888671875,0.6920040249824524,-1.300458312034607,0.1077166423201561
2024-12-07 17:55:58.750133800,9.6951337890625,0.5668172240257263,-1.540295958518982,0.3440956473350525
2024-12-07 17:55:58.760106500,9.7051064453125,0.427330732345581,-1.6838401556015017,0.5854539275169373
2024-12-07 17:55:58.770079500,9.71507958984375,0.2590845823287964,-1.6738431453704834,0.7717191576957703
2024-12-07 17:55:58.780053500,9.725053466796876,-0.0025536795146763,-1.46886146068573,0.9038673043251038
2024-12-07 17:55:58.790026800,9.73502685546875,-0.3193652331829071,-1.1423492431640625,1.0045987367630005
2024-12-07 17:55:58.799999700,9.744999755859377,-0.4158238768577575,-0.9910832643508912,0.9528985023498536
2024-12-07 17:55:58.809973800,9.754973876953123,-0.3043999373912811,-0.7914300560951233,0.8754801750183105
2024-12-07 17:55:58.819946800,9.76494677734375,-0.0457801036536693,-0.619001030921936,0.7672610282897949
2024-12-07 17:55:58.829919500,9.77491943359375,0.0818897262215614,-0.3914491236209869,0.7330950498580933
2024-12-07 17:55:58.839892700,9.784892822265626,0.0291426237672567,-0.0649815499782562,0.7795730829238892
2024-12-07 17:55:58.849866800,9.79486669921875,-0.0777028650045394,0.1416951864957809,0.777201771736145
2024-12-07 17:55:58.859839700,9.80483984375,-0.0930852815508842,0.2174863517284393,0.6697624325752258
2024-12-07 17:55:58.869812700,9.814812744140625,-0.0258145462721586,0.2780270874500274,0.5003212690353394
2024-12-07 17:55:58.879786800,9.824786865234374,0.044315006583929,0.3493116796016693,0.3105861842632293
2024-12-07 17:55:58.889759700,9.834759765625,0.0932095274329185,0.3739717006683349,0.1532979756593704
2024-12-07 17:55:58.899732500,9.844732421875,0.1221690103411674,0.3635656535625458,0.0652828961610794
2024-12-07 17:55:58.909705700,9.854705810546877,0.1529582440853119,0.3445276618003845,0.0409597009420394
2024-12-07 17:55:58.919679700,9.8646796875,0.1999704986810684,0.3202265799045563,0.0764383301138877
2024-12-07 17:55:58.929652700,9.87465283203125,0.2492044568061828,0.2533445656299591,0.1761774271726608
2024-12-07 17:55:58.939625700,9.884625732421876,0.2859779298305511,0.1290084719657898,0.3105914294719696
2024-12-07 17:55:58.949599700,9.894599853515626,0.2828990817070007,-0.0078421914950013,0.4263260960578918
2024-12-07 17:55:58.959572700,9.90457275390625,0.2396240532398224,-0.1586167812347412,0.5078984498977661
2024-12-07 17:55:58.969545700,9.914545654296877,0.186275377869606,-0.3422240614891052,0.5442684888839722
2024-12-07 17:55:58.979518700,9.924518798828124,0.1584299057722091,-0.4776687026023865,0.5522227883338928
2024-12-07 17:55:58.989492700,9.93449267578125,0.1775345504283905,-0.4897477030754089,0.5331951975822449
2024-12-07 17:55:58.999465700,9.9444658203125,0.2069808542728424,-0.4165445864200592,0.4958049654960632
2024-12-07 17:55:59.009438700,9.954438720703124,0.198476567864418,-0.2970735132694244,0.4509208798408508
2024-12-07 17:55:59.019411500,9.964411376953125,0.1639859676361084,-0.1708801537752151,0.4164941906929016
2024-12-07 17:55:59.029385500,9.974385498046876,0.1317209005355835,-0.0701530054211616,0.3814838230609894
2024-12-07 17:55:59.039358700,9.984358642578124,0.120766244828701,0.0106286592781543,0.3645812571048736
2024-12-07 17:55:59.049331700,9.994331787109376,0.1358405649662017,0.0851156115531921,0.3452043831348419
2024-12-07 17:55:59.059305700,10.0043056640625,0.1451078206300735,0.1247501075267791,0.2911603450775146
2024-12-07 17:55:59.069278700,10.01427880859375,0.1458233594894409,0.0972268059849739,0.242152526974678
2024-12-07 17:55:59.079251700,10.024251708984377,0.1434685885906219,0.0676848962903022,0.2233005464076995
2024-12-07 17:55:59.089224700,10.034224609375,0.1524364054203033,0.0697943493723869,0.2142625898122787
2024-12-07 17:55:59.099198500,10.044198486328124,0.1796658933162689,0.0898857712745666,0.182913452386856
2024-12-07 17:55:59.109171700,10.054171630859376,0.2115466296672821,0.11631990224123,0.1164560765027999
2024-12-07 17:55:59.119144700,10.064144775390623,0.2398597598075866,0.1367948055267334,0.0407975390553474
2024-12-07 17:55:59.129118700,10.07411865234375,0.273943156003952,0.1755019277334213,0.0013699368573725
2024-12-07 17:55:59.139091700,10.084091796875,0.314589112997055,0.2432982772588729,0.0288564227521419
2024-12-07 17:55:59.149064700,10.094064697265624,0.3448507785797119,0.3267915546894073,0.1282546669244766
2024-12-07 17:55:59.159037700,10.10403759765625,0.3621959388256073,0.3643695414066314,0.2461360245943069
2024-12-07 17:55:59.169011700,10.11401171875,0.3757151365280151,0.3154687285423279,0.3308064341545105
2024-12-07 17:55:59.178984700,10.123984619140623,0.3818143010139465,0.2189856022596359,0.3734111487865448
2024-12-07 17:55:59.188957700,10.133957763671877,0.3755788505077362,0.1512255817651748,0.4116440415382385
2024-12-07 17:55:59.198931700,10.143931640625,0.3649698793888092,0.1450712829828262,0.4546554088592529
2024-12-07 17:55:59.208904700,10.15390478515625,0.3549907803535461,0.1807995736598968,0.4849086701869964
2024-12-07 17:55:59.218877700,10.163877685546876,0.3475674986839294,0.2231161445379257,0.4661397933959961
2024-12-07 17:55:59.228850700,10.1738505859375,0.3425277769565582,0.2509885728359222,0.405096173286438
2024-12-07 17:55:59.238824700,10.18382470703125,0.3388795256614685,0.2482500523328781,0.3126589059829712
2024-12-07 17:55:59.248797700,10.193797607421876,0.3263411223888397,0.2150795012712478,0.2061936855316162
2024-12-07 17:55:59.258770700,10.203770751953124,0.3089509606361389,0.1713959276676178,0.1045863702893257
2024-12-07 17:55:59.268744700,10.21374462890625,0.2977731227874756,0.1473712921142578,0.0220795087516307
2024-12-07 17:55:59.278717700,10.2237177734375,0.2954865396022796,0.1536363810300827,-0.0355552919209003
2024-12-07 17:55:59.288690700,10.233690673828123,0.301373690366745,0.1985270380973816,-0.0618950948119163
2024-12-07 17:55:59.298663700,10.24366357421875,0.3040967881679535,0.2688930630683899,-0.0683625787496566
2024-12-07 17:55:59.308637700,10.2536376953125,0.2903603017330169,0.3343391716480255,-0.0581103898584842
2024-12-07 17:55:59.318610200,10.263610107421876,0.2546164393424988,0.3786869347095489,-0.0322292558848857
2024-12-07 17:55:59.328583200,10.273583251953124,0.2022079080343246,0.3758793175220489,-0.0148876421153545
2024-12-07 17:55:59.338556400,10.283556396484377,0.1502570956945419,0.3192924559116363,-0.03147754073143
2024-12-07 17:55:59.348530200,10.2935302734375,0.1056564450263977,0.2384022623300552,-0.0730768963694572
2024-12-07 17:55:59.358503200,10.303503173828124,0.0550385452806949,0.1006310731172561,-0.1561941504478454
2024-12-07 17:55:59.368476200,10.31347607421875,-0.0085129830986261,-0.1136144399642944,-0.2851594984531402
2024-12-07 17:55:59.378450200,10.3234501953125,-0.0808359161019325,-0.3516051471233368,-0.4127728641033172
2024-12-07 17:55:59.388423200,10.333423095703123,-0.1558514237403869,-0.5574222803115845,-0.5164151787757874
2024-12-07 17:55:59.398396200,10.343396240234377,-0.2358216345310211,-0.7041842937469482,-0.5775909423828125
2024-12-07 17:55:59.408370200,10.3533701171875,-0.3239854276180267,-0.7719851732254028,-0.6070073246955872
2024-12-07 17:55:59.418343400,10.363343505859374,-0.4105408489704132,-0.7518951296806335,-0.6373330354690552
2024-12-07 17:55:59.428316200,10.373316162109376,-0.4773922264575958,-0.6093388795852661,-0.7031219005584717
2024-12-07 17:55:59.438289200,10.3832890625,-0.5119832158088684,-0.3272483050823211,-0.8153687715530396
2024-12-07 17:55:59.448263200,10.39326318359375,-0.5149103403091431,0.0393997319042682,-0.939904808998108
2024-12-07 17:55:59.458236200,10.403236083984376,-0.516109049320221,0.4369066059589386,-1.0612452030181885
2024-12-07 17:55:59.468209200,10.413209228515624,-0.5018628239631653,0.8213977217674255,-1.1711252927780151
2024-12-07 17:55:59.478182400,10.423182373046876,-0.4869818985462188,1.1268987655639648,-1.2934319972991943
2024-12-07 17:55:59.488156400,10.433156494140626,-0.5066535472869873,1.3139175176620483,-1.4707111120224
2024-12-07 17:55:59.498129200,10.443129150390623,-0.5226476788520813,1.415183424949646,-1.6921348571777344
2024-12-07 17:55:59.508102100,10.45310205078125,-0.506297767162323,1.4198898077011108,-1.9001730680465696
2024-12-07 17:55:59.518076200,10.463076171875,-0.4786089062690735,1.2793638706207275,-2.010120153427124
2024-12-07 17:55:59.528049200,10.473049072265624,-0.4718862175941467,1.084345459938049,-1.984064221382141
2024-12-07 17:55:59.538022400,10.4830224609375,-0.4525860249996185,0.9358875155448914,-1.8237239122390747
2024-12-07 17:55:59.547995400,10.492995361328123,-0.4206002950668335,0.8345994353294373,-1.58924663066864
2024-12-07 17:55:59.557969400,10.502969482421875,-0.4003064930438995,0.779986560344696,-1.3625272512435913
2024-12-07 17:55:59.567942100,10.512942138671876,-0.4098838865756988,0.7891712784767151,-1.189114332199097
2024-12-07 17:55:59.577915100,10.5229150390625,-0.4186680614948272,0.8681638240814209,-1.0666449069976809
2024-12-07 17:55:59.587889200,10.53288916015625,-0.4444893896579742,0.948280930519104,-0.9690057635307312
2024-12-07 17:55:59.597862100,10.542862060546875,-0.4842977821826935,1.0167577266693115,-0.8844708800315857
2024-12-07 17:55:59.607835400,10.55283544921875,-0.519375741481781,1.080057978630066,-0.7972754836082458
2024-12-07 17:55:59.617808100,10.56280810546875,-0.5786259770393372,1.1266287565231323,-0.6379899382591248
2024-12-07 17:55:59.627782100,10.5727822265625,-0.6460029482841492,1.236777424812317,-0.4152717590332031
2024-12-07 17:55:59.637755100,10.582755126953124,-0.715816080570221,1.4137498140335083,-0.2235273569822311
2024-12-07 17:55:59.647728000,10.59272802734375,-0.7862038612365723,1.4352664947509766,-0.0890970230102539
2024-12-07 17:55:59.657702100,10.6027021484375,-0.8663058876991272,1.3576231002807615,0.047970812767744
2024-12-07 17:55:59.667675100,10.612675048828123,-0.9242088198661804,1.1805258989334106,0.175332099199295
2024-12-07 17:55:59.677648400,10.6226484375,-0.9287031292915344,0.8564809560775757,0.2435585558414459
2024-12-07 17:55:59.687621000,10.63262109375,-0.8955832123756409,0.4204214513301849,0.2856714725494385
2024-12-07 17:55:59.697595100,10.64259521484375,-0.8393372297286987,0.0169709417968988,0.3169609606266022
2024-12-07 17:55:59.707568000,10.652568115234375,-0.7696435451507568,-0.3241420090198517,0.3646965026855469
2024-12-07 17:55:59.717541000,10.662541015625,-0.7181763052940369,-0.6063169836997986,0.4107649326324463
2024-12-07 17:55:59.727515100,10.67251513671875,-0.6706295013427734,-0.8003239631652832,0.4239542186260223
2024-12-07 17:55:59.737488400,10.68248828125,-0.6005947589874268,-0.93109393119812,0.4019943177700043
2024-12-07 17:55:59.747461400,10.69246142578125,-0.5427619218826294,-1.0243715047836304,0.3857572972774505
2024-12-07 17:55:59.757434000,10.70243408203125,-0.5058872103691101,-1.0779716968536377,0.4050407111644745
2024-12-07 17:55:59.767408000,10.712408203125,-0.4815886616706848,-1.0694708824157717,0.448810875415802
2024-12-07 17:55:59.777381000,10.722381103515623,-0.4619965851306915,-0.9838052988052368,0.516343355178833
2024-12-07 17:55:59.787354000,10.73235400390625,-0.4054972231388092,-0.851041316986084,0.5814881324768066
2024-12-07 17:55:59.797328100,10.742328125,-0.3201016187667846,-0.7529221773147583,0.6313960552215576
2024-12-07 17:55:59.807301400,10.75230126953125,-0.2323135137557983,-0.7109015583992004,0.640161395072937
2024-12-07 17:55:59.817274400,10.7622744140625,-0.1460816860198974,-0.7087875604629517,0.621867299079895
2024-12-07 17:55:59.827247000,10.7722470703125,-0.0594420991837978,-0.6887559294700623,0.5958543419837952
2024-12-07 17:55:59.837221000,10.78222119140625,0.0151490438729524,-0.652529776096344,0.5770159363746643
2024-12-07 17:55:59.847194000,10.792194091796874,0.0676866397261619,-0.6403168439865112,0.5562127232551575
2024-12-07 17:55:59.857167400,10.80216748046875,0.0980954095721244,-0.7007985711097717,0.5168522596359253
2024-12-07 17:55:59.867141000,10.81214111328125,0.1214965209364891,-0.7605944275856018,0.4737383723258972
2024-12-07 17:55:59.877114400,10.8221142578125,0.1606223583221435,-0.7875913977622986,0.4342407584190368
2024-12-07 17:55:59.887087000,10.832087158203125,0.2220512330532074,-0.8084743618965149,0.3870084881782532
2024-12-07 17:55:59.897060000,10.84206005859375,0.2866094708442688,-0.859569251537323,0.3290210664272308
2024-12-07 17:55:59.907034000,10.8520341796875,0.343237817287445,-0.89799964427948,0.3021566867828369
2024-12-07 17:55:59.917007000,10.862007080078126,0.3722476363182068,-0.9174343347549438,0.3132327497005462
2024-12-07 17:55:59.926980400,10.87198046875,0.3644227385520935,-0.9274693727493286,0.3294252753257751
2024-12-07 17:55:59.936954400,10.881954345703123,0.3193854689598083,-0.8787721395492554,0.3243873715400696
2024-12-07 17:55:59.946927400,10.89192724609375,0.2487435638904571,-0.738450288772583,0.2981371879577636
2024-12-07 17:55:59.956900000,10.901900146484374,0.1667152792215347,-0.545171320438385,0.2458588033914566
2024-12-07 17:55:59.966873000,10.911873046875,0.0933313220739364,-0.3570900857448578,0.1914567947387695
2024-12-07 17:55:59.976847000,10.92184716796875,0.0495175272226333,-0.20284403860569,0.1721518039703369
2024-12-07 17:55:59.986820000,10.931820068359375,0.0076674618758261,-0.120132565498352,0.190261572599411
2024-12-07 17:55:59.996793300,10.94179345703125,-0.0318202935159206,-0.1352870166301727,0.2263282388448715
2024-12-07 17:56:00.006767400,10.951767333984376,-0.0700536295771598,-0.2563468813896179,0.2769413590431213
2024-12-07 17:56:00.016740400,10.961740234375,-0.1063320040702819,-0.4242836833000183,0.3136442601680755
2024-12-07 17:56:00.026713000,10.971713134765626,-0.1466661840677261,-0.4931495487689972,0.2960466146469116
2024-12-07 17:56:00.036686000,10.98168603515625,-0.165897399187088,-0.4278395175933838,0.2044181376695633
2024-12-07 17:56:00.046660000,10.99166015625,-0.1398603916168213,-0.3277097344398498,0.0972363129258155
2024-12-07 17:56:00.056633300,11.00163330078125,-0.0659965649247169,-0.2614987790584564,0.0137818977236747
2024-12-07 17:56:00.066606300,11.0116064453125,0.0009266785345971,-0.2966655790805816,-0.0304312817752361
2024-12-07 17:56:00.076580400,11.021580322265624,0.0398309379816055,-0.4749373197555542,-0.0324528887867927
2024-12-07 17:56:00.086553300,11.03155322265625,0.0691482201218605,-0.7491236329078674,0.0054827253334224
2024-12-07 17:56:00.096526000,11.041526123046877,0.1098857969045639,-1.034871220588684,0.0654816180467605
2024-12-07 17:56:00.106499000,11.0514990234375,0.1628205627202987,-1.231269121170044,0.0999814942479133
2024-12-07 17:56:00.116473000,11.06147314453125,0.2249896675348281,-1.2655359506607056,0.0838933363556861
2024-12-07 17:56:00.126446300,11.0714462890625,0.2769973278045654,-1.1515038013458252,0.1102149039506912
2024-12-07 17:56:00.136419300,11.08141943359375,0.304747998714447,-0.961425483226776,0.3025305569171905
2024-12-07 17:56:00.146393300,11.091393310546875,0.2452627122402191,-0.7014897465705872,0.624918520450592
2024-12-07 17:56:00.156366000,11.101365966796877,0.0995909944176673,-0.2708456516265869,0.8133273124694824
2024-12-07 17:56:00.166339000,11.111339111328125,-0.0130081493407487,0.1660463064908981,0.7737663388252258
2024-12-07 17:56:00.176312300,11.121312255859374,-0.0649299323558807,0.4206365048885345,0.6058455109596252
2024-12-07 17:56:00.186286300,11.131286376953126,-0.045479167252779,0.457637757062912,0.4006885290145874
2024-12-07 17:56:00.196259300,11.14125927734375,0.0346433632075786,0.3586968183517456,0.2080956697463989
2024-12-07 17:56:00.206232300,11.151232421875,0.1571855098009109,0.2335112690925598,0.0584814436733722
2024-12-07 17:56:00.216206300,11.161206298828125,0.3039038479328155,0.1597177386283874,-0.0790348798036575
2024-12-07 17:56:00.226179000,11.171178955078124,0.4449863731861114,0.129131942987442,-0.2164073437452316
2024-12-07 17:56:00.236152000,11.181152099609376,0.5664755702018738,0.0812024995684623,-0.3443818390369415
2024-12-07 17:56:00.246125300,11.191125244140624,0.6507844924926758,-0.0343177579343318,-0.4451619982719421
2024-12-07 17:56:00.256099300,11.201099365234375,0.7040687203407288,-0.2313719689846038,-0.4873957633972168
2024-12-07 17:56:00.266072300,11.211072265625,0.7254908680915833,-0.4864515960216522,-0.4192284643650055
2024-12-07 17:56:00.276045300,11.22104541015625,0.7299372553825378,-0.7673826217651367,-0.2501869797706604
2024-12-07 17:56:00.286019300,11.231019287109374,0.7011354565620422,-1.0175232887268066,0.0039265668019652
2024-12-07 17:56:00.295992000,11.240991943359376,0.6205740571022034,-1.1693394184112549,0.273834764957428
2024-12-07 17:56:00.305965300,11.25096533203125,0.4948428273200989,-1.193422555923462,0.4909093081951141
2024-12-07 17:56:00.315938000,11.26093798828125,0.3697759807109833,-1.0690114498138428,0.6231070160865784
2024-12-07 17:56:00.325912000,11.270912109375,0.2777366638183594,-0.8079501986503601,0.6801267862319946
2024-12-07 17:56:00.335885000,11.280885009765624,0.2176807820796966,-0.4553005397319793,0.6980181932449341
2024-12-07 17:56:00.345858000,11.290858154296876,0.1603005528450012,-0.1055507287383079,0.6964760422706604
2024-12-07 17:56:00.355832000,11.30083203125,0.0677732899785041,0.1392965763807296,0.6970528960227966
2024-12-07 17:56:00.365805000,11.31080517578125,-0.0261245723813772,0.2438519746065139,0.7035607695579529
2024-12-07 17:56:00.375778000,11.320778076171877,-0.0691098570823669,0.232491448521614,0.6847735047340393
2024-12-07 17:56:00.385751000,11.3307509765625,-0.0489078797399997,0.1587119102478027,0.6226644515991211
2024-12-07 17:56:00.395725000,11.34072509765625,0.006321286316961,0.0690682977437973,0.5372627377510071
2024-12-07 17:56:00.405698000,11.350697998046876,0.0562145449221134,-0.000559511128813,0.4505133926868438
2024-12-07 17:56:00.415671000,11.360671142578123,0.0880196094512939,-0.0460377819836139,0.3721400201320648
2024-12-07 17:56:00.425645000,11.37064501953125,0.0987541005015373,-0.0809569656848907,0.3179404139518738
2024-12-07 17:56:00.435618000,11.3806181640625,0.1019922420382499,-0.0953457579016685,0.3054163455963135
2024-12-07 17:56:00.445591000,11.390591064453124,0.0931297540664672,-0.0867002755403518,0.3331263065338135
2024-12-07 17:56:00.455565000,11.40056494140625,0.0763129591941833,-0.0469126477837562,0.3872774243354797
2024-12-07 17:56:00.465538000,11.4105380859375,0.0597991235554218,0.0047126244753599,0.4409976601600647
2024-12-07 17:56:00.475511000,11.420510986328123,0.0444590486586093,0.0248972550034523,0.4696974754333496
2024-12-07 17:56:00.485484000,11.430484130859377,0.0320056825876235,0.0115828877314925,0.4687768220901489
