time,seconds_elapsed,z,y,x
2024-12-07 18:24:07.430488800,0.00948876953125,-0.196266159415245,0.0046520303003489,-0.0741505324840545
2024-12-07 18:24:07.440462800,0.019462890625,-0.2367961555719375,0.0023788746912032,-0.0836116522550582
2024-12-07 18:24:07.450435600,0.029435546875,-0.2277134507894516,-0.0162701774388551,-0.0830667689442634
2024-12-07 18:24:07.460409600,0.03940966796875,-0.1619704216718673,-0.0464012771844863,-0.062130406498909
2024-12-07 18:24:07.470383600,0.049383544921875,-0.1121128350496292,-0.0296872798353433,-0.0322177819907665
2024-12-07 18:24:07.480357600,0.059357666015625,-0.100600928068161,0.033539742231369,0.0075887874700129
2024-12-07 18:24:07.490331600,0.06933154296875,-0.090910755097866,0.0834425836801529,0.0371618568897247
2024-12-07 18:24:07.500305700,0.0793056640625,-0.0860987231135368,0.125993937253952,0.0382653959095478
2024-12-07 18:24:07.510279700,0.08927978515625,-0.1947487741708755,0.2436859458684921,-0.0298524051904678
2024-12-07 18:24:07.520253700,0.099253662109375,-0.5854408144950867,0.5524587035179138,-0.3002246916294098
2024-12-07 18:24:07.530227700,0.109227783203125,-0.8517116904258728,0.6637463569641113,-0.4559985697269439
2024-12-07 18:24:07.540200700,0.11920068359375,-1.046112060546875,0.692363977432251,-0.5321653485298157
2024-12-07 18:24:07.550174700,0.1291748046875,-1.1849253177642822,0.7119169235229492,-0.5573327541351318
2024-12-07 18:24:07.560148700,0.139148681640625,-1.265394687652588,0.7395649552345276,-0.5527108907699585
2024-12-07 18:24:07.570122800,0.149122802734375,-1.3220278024673462,0.6769314408302307,-0.5540019869804382
2024-12-07 18:24:07.580096800,0.1590966796875,-1.4071617126464844,0.5508779883384705,-0.5231246948242188
2024-12-07 18:24:07.590070800,0.16907080078125,-1.4373568296432495,0.4204648733139038,-0.4595135152339935
2024-12-07 18:24:07.600044800,0.179044921875,-1.438555359840393,0.2953187823295593,-0.3861119449138641
2024-12-07 18:24:07.610018800,0.189018798828125,-1.3979920148849487,0.2566249072551727,-0.3184128105640411
2024-12-07 18:24:07.619992800,0.198992919921875,-1.3022233247756958,0.3044595122337341,-0.2707784175872803
2024-12-07 18:24:07.629966800,0.208966796875,-1.19386887550354,0.3578764200210571,-0.2475492656230926
2024-12-07 18:24:07.639939800,0.21893994140625,-1.1000994443893433,0.3820489943027496,-0.2380963712930679
2024-12-07 18:24:07.649913900,0.228913818359375,-1.0164951086044312,0.3897756338119507,-0.2357242852449417
2024-12-07 18:24:07.659887900,0.238887939453125,-0.9340770840644836,0.3916519582271576,-0.2414263486862182
2024-12-07 18:24:07.669862000,0.24886181640625,-0.7887281775474548,0.4799727499485016,-0.2238950282335281
2024-12-07 18:24:07.679836000,0.2588359375,-0.6153300404548645,0.5331014394760132,-0.2181820124387741
2024-12-07 18:24:07.689810000,0.268809814453125,-0.4867667257785797,0.5120278596878052,-0.2254915982484817
2024-12-07 18:24:07.699783700,0.27878369140625,-0.3947010040283203,0.4959361255168915,-0.2346674799919128
2024-12-07 18:24:07.709757700,0.2887578125,-0.3380731344223022,0.5017393827438354,-0.2451731115579605
2024-12-07 18:24:07.719731700,0.298731689453125,-0.3126603066921234,0.520544707775116,-0.2548990547657013
2024-12-07 18:24:07.729704700,0.30870458984375,-0.3105795979499817,0.5176381468772888,-0.2689570784568786
2024-12-07 18:24:07.739678700,0.3186787109375,-0.328639954328537,0.5006030797958374,-0.2749537527561188
2024-12-07 18:24:07.749652700,0.32865283203125,-0.3422164916992187,0.4832057356834411,-0.2812675833702087
2024-12-07 18:24:07.759626800,0.338626708984375,-0.3387917876243591,0.4781109690666199,-0.3118411600589752
2024-12-07 18:24:07.769600500,0.3486005859375,-0.3345009088516235,0.4745175540447235,-0.3573332726955414
2024-12-07 18:24:07.779574500,0.358574462890625,-0.3517528474330902,0.4453874230384826,-0.3862995207309723
2024-12-07 18:24:07.789548500,0.368548583984375,-0.3851172029972076,0.4378064572811126,-0.4117345809936523
2024-12-07 18:24:07.799522600,0.3785224609375,-0.3990550339221954,0.4934803247451782,-0.6180916428565979
2024-12-07 18:24:07.809496600,0.38849658203125,-0.3978818953037262,0.4863520860671997,-0.6893194913864136
2024-12-07 18:24:07.819469600,0.398469482421875,-0.4388225078582763,0.3883052170276642,-0.635327935218811
2024-12-07 18:24:07.829443600,0.408443603515625,-0.4433498680591583,0.2450580298900604,-0.4843267500400543
2024-12-07 18:24:07.839417600,0.41841748046875,-0.3851485848426819,0.1089325100183487,-0.314136803150177
2024-12-07 18:24:07.849391600,0.4283916015625,-0.277579516172409,0.023251162841916,-0.1712579429149627
2024-12-07 18:24:07.859365600,0.43836572265625,-0.1676294952630996,-0.0199383944272995,-0.0724692940711975
2024-12-07 18:24:07.869339600,0.448339599609375,-0.1027349233627319,-0.0243027843534946,-0.0174920633435249
2024-12-07 18:24:07.879313700,0.458313720703125,-0.0922112613916397,-0.0127755096182227,0.002828842960298
2024-12-07 18:24:07.889287700,0.46828759765625,-0.3106711506843567,0.1517609804868698,-0.1289227902889251
2024-12-07 18:24:07.899261700,0.47826171875,-0.9327077269554138,0.4830879271030426,-0.6190483570098877
2024-12-07 18:24:07.909234700,0.488234619140625,-1.0594794750213623,0.3711422383785248,-0.773688793182373
2024-12-07 18:24:07.919208700,0.498208740234375,-0.9732265472412108,0.1244435757398605,-0.771773099899292
2024-12-07 18:24:07.929182700,0.5081826171875,-0.866230845451355,-0.0580679178237915,-0.7173638939857483
2024-12-07 18:24:07.939156700,0.51815673828125,-0.8301730751991272,-0.1878178715705871,-0.6285318732261658
2024-12-07 18:24:07.949130800,0.528130859375,-0.7760677337646484,-0.3537884652614593,-0.4758778512477875
2024-12-07 18:24:07.959104800,0.538104736328125,-0.708642303943634,-0.4855746626853943,-0.327434778213501
2024-12-07 18:24:07.969078800,0.548078857421875,-0.600536048412323,-0.5944321155548096,-0.2318920195102691
2024-12-07 18:24:07.979052800,0.558052734375,-0.5778512358665466,-0.5466373562812805,-0.1906518042087555
2024-12-07 18:24:07.989026800,0.56802685546875,-0.6768675446510315,-0.3549792468547821,-0.2161646336317062
2024-12-07 18:24:07.998999800,0.577999755859375,-0.8335744738578796,-0.1408399790525436,-0.2494338154792785
2024-12-07 18:24:08.008973800,0.587973876953125,-0.94046950340271,-0.0060672522522509,-0.2351704537868499
2024-12-07 18:24:08.018947800,0.59794775390625,-1.054684281349182,0.0653823316097259,-0.2004714012145996
2024-12-07 18:24:08.028921900,0.607921875,-1.1681005954742432,0.0507541187107563,-0.1549401432275772
2024-12-07 18:24:08.038895900,0.617895751953125,-1.2797352075576782,-0.0061710560694336,-0.1031704694032669
2024-12-07 18:24:08.048870000,0.627869873046875,-1.375322699546814,-0.1234252378344535,-0.0688191503286361
2024-12-07 18:24:08.058844000,0.637843994140625,-1.3884552717208862,-0.2945179343223572,-0.0704774409532547
2024-12-07 18:24:08.068818000,0.64781787109375,-1.242847204208374,-0.4464038610458374,-0.100077673792839
2024-12-07 18:24:08.078791700,0.657791748046875,-1.1367616653442385,-0.4546207785606384,-0.1401952505111694
2024-12-07 18:24:08.088764700,0.6677646484375,-1.080504298210144,-0.3757472932338714,-0.1618443578481674
2024-12-07 18:24:08.098738700,0.67773876953125,-1.0521516799926758,-0.2677541673183441,-0.1594080030918121
2024-12-07 18:24:08.108712700,0.687712646484375,-1.0512536764144895,-0.2081230580806732,-0.1278000026941299
2024-12-07 18:24:08.118686700,0.697686767578125,-1.0141069889068604,-0.2346118539571762,-0.0579195842146873
2024-12-07 18:24:08.128660700,0.70766064453125,-0.9317495226860046,-0.3099830448627472,0.0276765450835227
2024-12-07 18:24:08.138634800,0.717634765625,-0.8331462740898132,-0.3631094396114349,0.1115236356854438
2024-12-07 18:24:08.148608800,0.72760888671875,-0.728632390499115,-0.3974809944629669,0.1602922230958938
2024-12-07 18:24:08.158582800,0.737582763671875,-0.6129316687583923,-0.4084759950637817,0.2296084612607956
2024-12-07 18:24:08.168556800,0.747556884765625,-0.5231910943984985,-0.3858271241188049,0.3468692898750305
2024-12-07 18:24:08.178529800,0.75752978515625,-0.44606614112854,-0.3455874621868133,0.4708419442176819
2024-12-07 18:24:08.188503800,0.76750390625,-0.4101417064666748,-0.2848080098628998,0.584618866443634
2024-12-07 18:24:08.198477800,0.777477783203125,-0.3850308656692505,-0.2672256529331207,0.6708492636680603
2024-12-07 18:24:08.208451800,0.787451904296875,-0.3357983231544494,-0.2619392573833465,0.7643621563911438
2024-12-07 18:24:08.218425900,0.79742578125,-0.2288628667593002,-0.2081165313720703,0.8683416247367859
2024-12-07 18:24:08.228399900,0.80739990234375,-0.1053435802459716,-0.1294837743043899,0.9193781614303588
2024-12-07 18:24:08.238373600,0.81737353515625,0.0536577738821506,-0.1849377453327179,0.8664724230766296
2024-12-07 18:24:08.248347600,0.82734765625,0.2373991012573242,-0.1734342277050018,0.8167741298675537
2024-12-07 18:24:08.258321700,0.83732177734375,0.3774540424346924,-0.0803952142596244,0.7795320749282837
2024-12-07 18:24:08.268295000,0.847294921875,0.5465490221977234,-0.0708270072937011,0.8514113426208496
2024-12-07 18:24:08.278269000,0.85726904296875,0.7334600687026978,-0.0972541198134422,0.956571400165558
2024-12-07 18:24:08.288243000,0.867242919921875,0.980611264705658,0.2486052960157394,0.7460021376609802
2024-12-07 18:24:08.298216700,0.877216796875,1.1603889465332031,0.9615053534507751,0.1826559007167816
2024-12-07 18:24:08.308190700,0.887190673828125,1.1175943613052368,1.5300565958023071,-0.1443363279104232
2024-12-07 18:24:08.318164700,0.897164794921875,0.9832945466041564,1.801863074302673,-0.1573892831802368
2024-12-07 18:24:08.328138800,0.907138671875,0.8609066009521484,1.8396943807601929,0.0845991224050521
2024-12-07 18:24:08.338112800,0.91711279296875,0.7615159153938293,1.7272909879684448,0.4277173280715942
2024-12-07 18:24:08.348086800,0.927086669921875,0.6798956394195557,1.5833319425582886,0.6850956082344055
2024-12-07 18:24:08.358059500,0.9370595703125,0.6045817732810974,1.4057135581970217,0.7683960199356079
2024-12-07 18:24:08.368033500,0.947033447265625,0.5244823694229126,1.1110315322875977,0.7172284722328186
2024-12-07 18:24:08.378007600,0.957007568359375,0.477160781621933,0.7146062850952148,0.5998071432113647
2024-12-07 18:24:08.387981600,0.966981689453125,0.4713990390300751,0.2988050878047943,0.5080191493034363
2024-12-07 18:24:08.397955600,0.97695556640625,0.4322285056114197,-0.0457860194146633,0.395524650812149
2024-12-07 18:24:08.407929600,0.9869296875,0.3739803731441498,-0.2917710244655609,0.3020873963832855
2024-12-07 18:24:08.417903600,0.996903564453125,0.3229200839996338,-0.3774873912334442,0.234855055809021
2024-12-07 18:24:08.427877600,1.006877685546875,0.2795401215553283,-0.3535594344139099,0.1848044097423553
2024-12-07 18:24:08.437851600,1.0168515625,0.2297136634588241,-0.243353471159935,0.1290214210748672
2024-12-07 18:24:08.447824600,1.02682470703125,0.2187086790800094,-0.1631702184677124,0.0907067880034446
2024-12-07 18:24:08.457798700,1.036798583984375,0.2362292557954788,-0.1162386536598205,0.0540936402976512
2024-12-07 18:24:08.467772700,1.046772705078125,0.2564296126365661,-0.1211817488074302,-0.0026543284766376
2024-12-07 18:24:08.477746700,1.05674658203125,0.2639728486537933,-0.1591667979955673,-0.0714422091841697
2024-12-07 18:24:08.487720700,1.066720703125,0.2547673881053924,-0.1644142866134643,-0.1643833369016647
2024-12-07 18:24:08.497694700,1.07669482421875,0.2239490449428558,-0.1110277101397514,-0.2762548923492431
2024-12-07 18:24:08.507668700,1.086668701171875,0.2033079415559768,-0.0455933064222335,-0.3741452097892761
2024-12-07 18:24:08.517642800,1.096642822265625,0.2033344209194183,0.0065703447908163,-0.4462562799453735
2024-12-07 18:24:08.527616800,1.10661669921875,0.1971425712108612,0.0161372181028127,-0.4929241836071014
2024-12-07 18:24:08.537589800,1.11658984375,0.1633162051439285,-0.0350254289805889,-0.5251116752624512
2024-12-07 18:24:08.547563800,1.126563720703125,0.109380267560482,-0.1180412247776985,-0.5413252711296082
2024-12-07 18:24:08.557537800,1.136537841796875,0.0533969514071941,-0.2636866569519043,-0.5455509424209595
2024-12-07 18:24:08.567511800,1.14651171875,-0.0137767614796757,-0.4016242921352386,-0.563892126083374
2024-12-07 18:24:08.577485800,1.15648583984375,-0.0561311468482017,-0.5947104692459106,-0.5852479934692383
2024-12-07 18:24:08.587459800,1.1664599609375,-0.0864776074886322,-0.6738404631614685,-0.619495689868927
2024-12-07 18:24:08.597433900,1.176433837890625,-0.1089236438274383,-0.7164987325668335,-0.6295955777168274
2024-12-07 18:24:08.607407900,1.186407958984375,-0.1076048463582992,-0.7012172341346741,-0.6104378700256348
2024-12-07 18:24:08.617380600,1.196380615234375,-0.121328517794609,-0.652318000793457,-0.5277072787284851
2024-12-07 18:24:08.627354600,1.206354736328125,-0.152058720588684,-0.5542955994606018,-0.4481050968170166
2024-12-07 18:24:08.637328600,1.21632861328125,-0.1887098848819732,-0.4875451028347015,-0.393723577260971
2024-12-07 18:24:08.647302700,1.226302734375,-0.2064390778541565,-0.4270170331001282,-0.3693226277828216
2024-12-07 18:24:08.657276700,1.236276611328125,-0.2017514109611511,-0.3927052915096283,-0.3566613793373108
2024-12-07 18:24:08.667250700,1.246250732421875,-0.1929273009300232,-0.3101662099361419,-0.3550893366336822
2024-12-07 18:24:08.677224700,1.256224609375,-0.2067304402589798,-0.188248723745346,-0.3589353859424591
2024-12-07 18:24:08.687198700,1.26619873046875,-0.2159103602170944,-0.0963036194443702,-0.370114266872406
2024-12-07 18:24:08.697172700,1.2761728515625,-0.1962472796440124,-0.0524656847119331,-0.3614841103553772
2024-12-07 18:24:08.707145700,1.286145751953125,-0.1589478552341461,-0.0622828975319862,-0.352904736995697
2024-12-07 18:24:08.717119700,1.29611962890625,-0.1287140101194381,-0.0793581828474998,-0.3625003099441528
2024-12-07 18:24:08.727093800,1.30609375,-0.1108215674757957,-0.1109967976808548,-0.4107466638088226
2024-12-07 18:24:08.737067800,1.31606787109375,-0.0997271910309791,-0.1930152326822281,-0.5056772232055664
2024-12-07 18:24:08.747041800,1.326041748046875,-0.091388039290905,-0.1963077038526535,-0.5827014446258545
2024-12-07 18:24:08.757015800,1.336015869140625,-0.0716733932495117,-0.1438149958848953,-0.6068885922431946
2024-12-07 18:24:08.766989800,1.34598974609375,-0.080506294965744,-0.0373596623539924,-0.5221601128578186
2024-12-07 18:24:08.776963600,1.355963623046875,-0.1205495074391365,0.0521794930100441,-0.3552765548229217
2024-12-07 18:24:08.786937600,1.3659375,-0.1799142956733703,0.0491011440753936,-0.1743275225162506
2024-12-07 18:24:08.796910800,1.375910888671875,-0.2348192632198333,-0.0535199791193008,-0.0428367145359516
2024-12-07 18:24:08.806884900,1.385884765625,-0.2997249960899353,-0.1771785467863083,-0.0287374071776866
2024-12-07 18:24:08.816859000,1.39585888671875,-0.3775696158409118,-0.4160546064376831,-0.0820701718330383
2024-12-07 18:24:08.826833000,1.4058330078125,-0.4323439300060272,-0.8168236017227173,-0.1749058216810226
2024-12-07 18:24:08.836806700,1.415806640625,-0.4368383288383484,-1.2947067022323608,-0.2556931674480438
2024-12-07 18:24:08.846780700,1.42578076171875,-0.4139692485332489,-1.684875249862671,-0.2891832292079925
2024-12-07 18:24:08.856754700,1.435754638671875,-0.3807379901409149,-1.881869196891785,-0.2896033823490143
2024-12-07 18:24:08.866728700,1.445728759765625,-0.3563801944255829,-1.836361527442932,-0.2518450915813446
2024-12-07 18:24:08.876702700,1.45570263671875,-0.3201274871826172,-1.6488043069839478,-0.168677270412445
2024-12-07 18:24:08.886675700,1.46567578125,-0.2705380916595459,-1.3005791902542114,-0.0804227665066719
2024-12-07 18:24:08.896649500,1.4756494140625,-0.202396422624588,-0.9882171154022216,0.0041846362873911
2024-12-07 18:24:08.906623500,1.48562353515625,-0.1248358637094497,-0.7321872115135193,0.0261810161173343
2024-12-07 18:24:08.916597200,1.49559716796875,-0.0554056540131568,-0.5501867532730103,-0.0224443115293979
2024-12-07 18:24:08.926571300,1.5055712890625,-0.0036798766814172,-0.3941966295242309,-0.1427012085914611
2024-12-07 18:24:08.936545300,1.515545166015625,0.0400822460651397,-0.2974416315555572,-0.2940044105052948
2024-12-07 18:24:08.946519300,1.525519287109375,0.1016547977924346,-0.3222548365592956,-0.3899482488632202
2024-12-07 18:24:08.956493300,1.535493408203125,0.1708680093288421,-0.4265956878662109,-0.381574273109436
2024-12-07 18:24:08.966467300,1.54546728515625,0.2035109102725982,-0.5188981890678406,-0.3108212947845459
2024-12-07 18:24:08.976440300,1.5554404296875,0.1808763295412063,-0.5283453464508057,-0.2254617661237716
2024-12-07 18:24:08.986414300,1.565414306640625,0.1427664905786514,-0.4428319931030273,-0.1672983318567276
2024-12-07 18:24:08.996388400,1.575388427734375,0.1174536272883415,-0.2904298305511474,-0.1428749561309814
2024-12-07 18:24:09.006362400,1.5853623046875,0.0972618013620376,-0.1454830318689346,-0.1211733892560005
2024-12-07 18:24:09.016336400,1.59533642578125,0.06919926404953,-0.0976399034261703,-0.0833348631858825
2024-12-07 18:24:09.026310400,1.605310302734375,0.033524889498949,-0.1519340425729751,-0.0398382507264614
2024-12-07 18:24:09.036284400,1.615284423828125,-0.0006426016334444,-0.2726967334747314,-0.0152315627783536
2024-12-07 18:24:09.046258400,1.625258544921875,-0.022959092631936,-0.3626346290111542,-0.0181242879480123
2024-12-07 18:24:09.056232400,1.635232421875,-0.0396680310368537,-0.3742100596427917,-0.0458232946693897
2024-12-07 18:24:09.066205200,1.645205078125,-0.0283679720014333,-0.3162793815135956,-0.1130585223436355
2024-12-07 18:24:09.076179200,1.65517919921875,0.0038063307292759,-0.2489745616912841,-0.1903998404741287
2024-12-07 18:24:09.086153200,1.6651533203125,0.0441324487328529,-0.2149311006069183,-0.2549844086170196
2024-12-07 18:24:09.096127200,1.675127197265625,0.0764819160103797,-0.2603729367256164,-0.2898681759834289
2024-12-07 18:24:09.106101200,1.685101318359375,0.083737164735794,-0.3545580208301544,-0.3009911477565765
2024-12-07 18:24:09.116075300,1.6950751953125,0.0847158432006836,-0.4739324748516083,-0.3145829439163208
2024-12-07 18:24:09.126049300,1.70504931640625,0.0759729519486427,-0.5985652208328247,-0.346062034368515
2024-12-07 18:24:09.136023300,1.715023193359375,0.0539370216429233,-0.7121372818946838,-0.3811195492744446
2024-12-07 18:24:09.145996300,1.724996337890625,0.0286457780748605,-0.7739591002464294,-0.4047646820545196
2024-12-07 18:24:09.155970300,1.73497021484375,0.0026780092157423,-0.7934786677360535,-0.4004900753498077
2024-12-07 18:24:09.165944300,1.7449443359375,-0.0246401634067296,-0.8042940497398376,-0.3726666867733001
2024-12-07 18:24:09.175918300,1.75491845703125,-0.0560442991554737,-0.7595840096473694,-0.3481631577014923
2024-12-07 18:24:09.185892400,1.764892333984375,-0.0729580372571945,-0.6675044298171997,-0.3304100036621094
2024-12-07 18:24:09.195866400,1.774866455078125,-0.0781699940562248,-0.5579639673233032,-0.3140359818935394
2024-12-07 18:24:09.205840400,1.78484033203125,-0.0764370784163475,-0.4410101771354675,-0.2915439903736114
2024-12-07 18:24:09.215814400,1.794814453125,-0.0787102803587913,-0.3230617940425873,-0.2600815296173095
2024-12-07 18:24:09.225788400,1.804788330078125,-0.0818898305296897,-0.1955722719430923,-0.2289116233587265
2024-12-07 18:24:09.235761400,1.814761474609375,-0.0893398746848106,-0.0622435919940471,-0.1991359740495681
2024-12-07 18:24:09.245735400,1.8247353515625,-0.1057665199041366,0.0737810954451561,-0.1764423847198486
2024-12-07 18:24:09.255709400,1.83470947265625,-0.1220957860350608,0.1836854666471481,-0.1559394747018814
2024-12-07 18:24:09.265683500,1.844683349609375,-0.1286879032850265,0.2372661381959915,-0.1458594053983688
2024-12-07 18:24:09.275657500,1.854657470703125,-0.1428003162145614,0.2286549061536789,-0.1492719203233719
2024-12-07 18:24:09.285631500,1.864631591796875,-0.1615018397569656,0.1839952915906906,-0.142084851861
2024-12-07 18:24:09.295605500,1.87460546875,-0.1773677766323089,0.140416145324707,-0.120955117046833
2024-12-07 18:24:09.305579500,1.88457958984375,-0.1820434927940368,0.1101503893733024,-0.1037897169589996
2024-12-07 18:24:09.315553500,1.894553466796875,-0.1709379702806472,0.0842989981174469,-0.0987769365310669
2024-12-07 18:24:09.325526500,1.904526611328125,-0.1655298918485641,0.0571139864623546,-0.0983289927244186
2024-12-07 18:24:09.335500500,1.91450048828125,-0.1685602664947509,0.0404464267194271,-0.0917847231030464
2024-12-07 18:24:09.345474300,1.924474365234375,-0.1796645820140838,0.0480446889996528,-0.0736707001924514
2024-12-07 18:24:09.355448300,1.9344482421875,-0.1925755590200424,0.093059092760086,-0.0628930255770683
2024-12-07 18:24:09.365422300,1.94442236328125,-0.2000137716531753,0.1521698236465454,-0.0587222464382648
2024-12-07 18:24:09.375396400,1.954396240234375,-0.1969643831253051,0.2007328122854232,-0.053474199026823
2024-12-07 18:24:09.385370400,1.964370361328125,-0.1901338994503021,0.2445644587278366,-0.0526121370494365
2024-12-07 18:24:09.395344400,1.974344482421875,-0.1825162172317505,0.2901046872138977,-0.0594810396432876
2024-12-07 18:24:09.405318100,1.984318115234375,-0.178362488746643,0.309693306684494,-0.0656377300620079
2024-12-07 18:24:09.415291400,1.99429150390625,-0.1817542612552642,0.3042245805263519,-0.0592047907412052
2024-12-07 18:24:09.425265400,2.004265380859375,-0.1986429691314697,0.2599799036979675,-0.0237208306789398
2024-12-07 18:24:09.435239400,2.014239501953125,-0.2150657176971435,0.2311122119426727,0.0236572362482547
2024-12-07 18:24:09.445213400,2.02421337890625,-0.2339914739131927,0.2500395476818084,0.0631236806511879
2024-12-07 18:24:09.455187200,2.034187255859375,-0.2307371944189071,0.3155988454818725,0.0667685344815254
2024-12-07 18:24:09.465161200,2.0441611328125,-0.2159183025360107,0.3855899274349212,0.0595465674996376
2024-12-07 18:24:09.475135200,2.05413525390625,-0.1889818161725998,0.4253289103507995,0.0620579905807971
2024-12-07 18:24:09.485109200,2.064109130859375,-0.1494463980197906,0.387408435344696,0.1001619696617126
2024-12-07 18:24:09.495082500,2.07408251953125,-0.0930851548910141,0.3312270641326904,0.1394225507974624
2024-12-07 18:24:09.505056300,2.08405615234375,-0.0405673496425151,0.317849725484848,0.1266399025917053
2024-12-07 18:24:09.515030300,2.0940302734375,0.0476595424115657,0.3447705805301666,0.0538817606866359
2024-12-07 18:24:09.525004300,2.10400439453125,0.1563191711902618,0.3712812960147857,-0.0411544740200042
2024-12-07 18:24:09.534978300,2.113978271484375,0.2893788814544678,0.4022234976291656,-0.1333752423524856
2024-12-07 18:24:09.544952300,2.123952392578125,0.4276395440101623,0.3455887138843536,-0.1408243626356125
2024-12-07 18:24:09.554926300,2.13392626953125,0.5364338755607605,0.2008068859577179,-0.0227805580943822
2024-12-07 18:24:09.564900400,2.143900390625,0.586676299571991,0.0532587133347988,0.2048872113227844
2024-12-07 18:24:09.574874400,2.153874267578125,0.5765586495399475,-0.0673473924398422,0.4801641702651977
2024-12-07 18:24:09.584847400,2.163847412109375,0.5537204742431641,-0.146281361579895,0.7461100816726685
2024-12-07 18:24:09.594821400,2.1738212890625,0.5898807644844055,-0.1524895578622818,0.9526296854019164
2024-12-07 18:24:09.604795400,2.18379541015625,0.6769088506698608,-0.084090806543827,1.07877779006958
2024-12-07 18:24:09.614769400,2.193769287109375,0.7685546278953552,0.0201382637023925,1.1276108026504517
2024-12-07 18:24:09.624743400,2.203743408203125,0.8554410338401794,0.1240279152989387,1.1180745363235474
2024-12-07 18:24:09.634717400,2.213717529296875,0.9363097548484802,0.2983272075653076,1.0812387466430664
2024-12-07 18:24:09.644691500,2.22369140625,1.0070050954818726,0.5549542307853699,1.0681124925613403
2024-12-07 18:24:09.654665500,2.23366552734375,1.056705117225647,0.8511095643043518,1.0957196950912476
2024-12-07 18:24:09.664639500,2.243639404296875,1.0702604055404663,1.135482668876648,1.1684492826461792
2024-12-07 18:24:09.674612200,2.2536123046875,1.0449177026748655,1.346834421157837,1.2937507629394531
2024-12-07 18:24:09.684586200,2.263586181640625,0.9975926280021667,1.4377999305725098,1.4596558809280396
2024-12-07 18:24:09.694560300,2.273560302734375,0.9327303171157836,1.4377384185791016,1.6202479600906372
2024-12-07 18:24:09.704534300,2.2835341796875,0.8389641642570496,1.3848490715026855,1.7123757600784302
2024-12-07 18:24:09.714508300,2.29350830078125,0.7276738286018372,1.3686665296554563,1.7009620666503906
2024-12-07 18:24:09.724482300,2.303482421875,0.6394664645195007,1.4546695947647097,1.6115655899047852
2024-12-07 18:24:09.734456300,2.313456298828125,0.5844665765762329,1.6720954179763794,1.4940433502197266
2024-12-07 18:24:09.744430300,2.323430419921875,0.5530517101287842,1.9476895332336424,1.361409306526184
2024-12-07 18:24:09.754403300,2.3334033203125,0.5297377109527588,2.199324607849121,1.2368812561035156
2024-12-07 18:24:09.764377300,2.34337744140625,0.5170243382453918,2.303152561187744,1.1653586626052856
2024-12-07 18:24:09.774351400,2.353351318359375,0.5010054707527161,2.2158865928649902,1.0875533819198608
2024-12-07 18:24:09.784325400,2.363325439453125,0.47424978017807,1.9713295698165896,0.9769725799560548
2024-12-07 18:24:09.794299400,2.37329931640625,0.4335145354270935,1.6314102411270142,0.8074280619621277
2024-12-07 18:24:09.804273400,2.3832734375,0.3912496566772461,1.2761666774749756,0.6340243220329285
2024-12-07 18:24:09.814247400,2.393247314453125,0.3545214235782623,1.0307544469833374,0.5029365420341492
2024-12-07 18:24:09.824221400,2.403221435546875,0.3389294147491455,0.8542113304138184,0.3971136808395386
2024-12-07 18:24:09.834195500,2.413195556640625,0.3456938862800598,0.7263455986976624,0.2835690975189209
2024-12-07 18:24:09.844168400,2.42316845703125,0.3661323189735412,0.6750131845474243,0.150083988904953
2024-12-07 18:24:09.854142500,2.433142578125,0.4119010865688324,0.7001288533210754,0.0332973785698413
2024-12-07 18:24:09.864116500,2.443116455078125,0.4553702771663666,0.6483556628227234,-0.0710141062736511
2024-12-07 18:24:09.874090500,2.453090576171875,0.4912151098251343,0.5327882766723633,-0.2093508839607238
2024-12-07 18:24:09.884064500,2.463064453125,0.5165782570838928,0.378073513507843,-0.3228883743286133
2024-12-07 18:24:09.894039000,2.4730390625,0.4897536039352417,0.209053486585617,-0.4116837978363037
2024-12-07 18:24:09.904013000,2.483012939453125,0.4004122912883758,0.0658675655722618,-0.4957598149776459
2024-12-07 18:24:09.913987000,2.492987060546875,0.2716409862041473,-0.1674644947052002,-0.5343580842018127
2024-12-07 18:24:09.923961000,2.502961181640625,0.1508988440036773,-0.4419463574886322,-0.5333367586135864
2024-12-07 18:24:09.933934300,2.512934326171875,0.0560744740068912,-0.6199095845222473,-0.5133446455001831
2024-12-07 18:24:09.943908000,2.522908203125,-0.0296196583658456,-0.6519500613212585,-0.4855644404888153
2024-12-07 18:24:09.953882000,2.532882080078125,-0.1361569613218307,-0.6332213878631592,-0.4564730525016784
2024-12-07 18:24:09.963856100,2.542856201171875,-0.2332856357097625,-0.6424130201339722,-0.4184090197086334
2024-12-07 18:24:09.973830100,2.552830078125,-0.3067459762096405,-0.6782466173171997,-0.4028601050376892
2024-12-07 18:24:09.983804200,2.56280419921875,-0.3555372059345245,-0.7411027550697327,-0.4179916679859161
2024-12-07 18:24:09.993778200,2.572778076171875,-0.3919858336448669,-0.6705881953239441,-0.4733177125453949
2024-12-07 18:24:10.003752200,2.582752197265625,-0.4102484881877899,-0.521225094795227,-0.5235555768013
2024-12-07 18:24:10.013726200,2.592726318359375,-0.4168241322040558,-0.2985396683216095,-0.5332987308502197
2024-12-07 18:24:10.023699000,2.602698974609375,-0.4199288487434387,-0.1060509160161018,-0.4641723334789276
2024-12-07 18:24:10.033673000,2.6126728515625,-0.4209039211273193,0.0043110661208629,-0.3426473438739776
2024-12-07 18:24:10.043647000,2.62264697265625,-0.4339877665042877,0.02312683314085,-0.2278227508068084
2024-12-07 18:24:10.053621000,2.63262109375,-0.4572649002075195,-0.0295751634985208,-0.1556856632232666
2024-12-07 18:24:10.063595000,2.642594970703125,-0.4689713418483734,-0.1206952184438705,-0.1541958898305893
2024-12-07 18:24:10.073569000,2.652569091796875,-0.4598900377750397,-0.1920286417007446,-0.2196811586618423
2024-12-07 18:24:10.083543000,2.66254296875,-0.4208081364631653,-0.2514663934707641,-0.3045267760753631
2024-12-07 18:24:10.093517000,2.67251708984375,-0.3504068553447723,-0.3171010911464691,-0.3532969355583191
2024-12-07 18:24:10.103490000,2.682489990234375,-0.2639784812927246,-0.3669799864292145,-0.3377680480480194
2024-12-07 18:24:10.113464000,2.692464111328125,-0.1815456300973892,-0.3361867666244507,-0.2907713055610657
2024-12-07 18:24:10.123438000,2.70243798828125,-0.102108858525753,-0.212369218468666,-0.2437433153390884
2024-12-07 18:24:10.133412000,2.712412109375,-0.0302061773836612,-0.0174697656184434,-0.2128703445196151
2024-12-07 18:24:10.143386000,2.72238623046875,-0.0008275167783722,0.1669528037309646,-0.2094963788986206
2024-12-07 18:24:10.153360100,2.732360107421875,-0.0130941933020949,0.237796664237976,-0.2189073115587234
2024-12-07 18:24:10.163334100,2.742334228515625,-0.0548088811337947,0.1786683648824691,-0.2448872476816177
2024-12-07 18:24:10.173308200,2.75230810546875,-0.1031510010361671,-0.0160381868481636,-0.2677184343338012
2024-12-07 18:24:10.183282200,2.7622822265625,-0.1633799821138382,-0.2778966724872589,-0.2780115604400635
2024-12-07 18:24:10.193255200,2.772255126953125,-0.2221416383981704,-0.5750481486320496,-0.3013107776641845
2024-12-07 18:24:10.203229200,2.782229248046875,-0.2947639226913452,-0.8411480188369751,-0.3576065599918365
2024-12-07 18:24:10.213203200,2.792203125,-0.3683963119983673,-1.0336776971817017,-0.446139246225357
2024-12-07 18:24:10.223177200,2.80217724609375,-0.4143488705158233,-1.1570502519607544,-0.5189349055290222
2024-12-07 18:24:10.233151200,2.812151123046875,-0.4132167994976043,-1.1997486352920532,-0.5015860795974731
2024-12-07 18:24:10.243125200,2.822125244140625,-0.3495038747787475,-1.1271483898162842,-0.3456401526927948
2024-12-07 18:24:10.253099300,2.832099365234375,-0.2791085541248321,-1.0199615955352783,-0.1016270965337753
2024-12-07 18:24:10.263073300,2.8420732421875,-0.2894067466259002,-0.942727506160736,0.1009449213743209
2024-12-07 18:24:10.273047300,2.85204736328125,-0.3318997025489807,-0.9079362750053406,0.1728387176990509
2024-12-07 18:24:10.283020300,2.862020263671875,-0.3461103141307831,-0.8439304232597351,0.1063100323081016
2024-12-07 18:24:10.292994300,2.871994384765625,-0.3467370569705963,-0.700721800327301,-0.0353012420237064
2024-12-07 18:24:10.302968300,2.88196826171875,-0.3230809867382049,-0.5496414303779602,-0.2251630425453186
2024-12-07 18:24:10.312942300,2.8919423828125,-0.2717787325382232,-0.5275177359580994,-0.4575615227222442
2024-12-07 18:24:10.322916400,2.901916259765625,-0.2515541315078735,-0.6730365753173828,-0.65017169713974
2024-12-07 18:24:10.332890400,2.911890380859375,-0.3001336753368377,-0.9380522966384888,-0.6855762600898743
2024-12-07 18:24:10.342864100,2.921864013671875,-0.393280416727066,-1.1335771083831787,-0.5686443448066711
2024-12-07 18:24:10.352838100,2.931838134765625,-0.4986823797225952,-1.162015080451965,-0.3677345812320709
2024-12-07 18:24:10.362811100,2.94181103515625,-0.5910690426826477,-1.056528091430664,-0.1389719694852829
2024-12-07 18:24:10.372785200,2.95178515625,-0.6312671303749084,-0.8988106846809387,0.0850009769201278
2024-12-07 18:24:10.382759200,2.96175927734375,-0.6347494721412659,-0.7428306937217712,0.2382728308439254
2024-12-07 18:24:10.392733200,2.971733154296875,-0.6150813102722168,-0.5419694185256958,0.2214604020118713
2024-12-07 18:24:10.402707200,2.981707275390625,-0.5528967380523682,-0.3379579484462738,0.0072903139516711
2024-12-07 18:24:10.412681200,2.99168115234375,-0.4694139361381531,-0.2423616051673889,-0.268812745809555
2024-12-07 18:24:10.422655200,3.0016552734375,-0.4196658134460449,-0.2835220694541931,-0.4354267418384552
2024-12-07 18:24:10.432629000,3.01162890625,-0.4094648361206054,-0.4561852216720581,-0.4277616441249847
2024-12-07 18:24:10.442603000,3.02160302734375,-0.4151067435741424,-0.6715022921562195,-0.3227734267711639
2024-12-07 18:24:10.452576300,3.031576171875,-0.4024325609207153,-0.830781102180481,-0.2295325845479965
2024-12-07 18:24:10.462550300,3.04155029296875,-0.3277002871036529,-0.8858634829521179,-0.2366123348474502
2024-12-07 18:24:10.472524300,3.051524169921875,-0.1841535717248916,-0.8207926154136658,-0.3512969315052032
2024-12-07 18:24:10.482498000,3.061498046875,-0.0201973952353,-0.6948562860488892,-0.5099714994430542
2024-12-07 18:24:10.492472000,3.07147216796875,0.0937322601675987,-0.581445574760437,-0.6323292851448059
2024-12-07 18:24:10.502446000,3.081446044921875,0.1403098851442337,-0.5071892142295837,-0.6769380569458008
2024-12-07 18:24:10.512420000,3.091420166015625,0.1348878890275955,-0.4230223298072815,-0.6371593475341797
2024-12-07 18:24:10.522394000,3.10139404296875,0.1113676577806472,-0.3015877902507782,-0.5349815487861633
2024-12-07 18:24:10.532368100,3.1113681640625,0.0932949557900428,-0.1201102212071418,-0.4032643437385559
2024-12-07 18:24:10.542341000,3.121341064453125,0.0642326772212982,0.1319635659456253,-0.2673057019710541
2024-12-07 18:24:10.552315100,3.131315185546875,0.0205602869391441,0.3531132340431213,-0.1418166905641555
2024-12-07 18:24:10.562289200,3.1412890625,-0.0373115353286266,0.5092549324035645,-0.0623833835124969
2024-12-07 18:24:10.572263200,3.15126318359375,-0.1004747524857521,0.5753464102745056,-0.0305040031671524
2024-12-07 18:24:10.582237200,3.1612373046875,-0.1428634822368621,0.5596039891242981,-0.0411750227212905
2024-12-07 18:24:10.592211200,3.171211181640625,-0.1527235060930252,0.5002515912055969,-0.0808565095067024
2024-12-07 18:24:10.602185200,3.181185302734375,-0.1410242319107055,0.3180309236049652,-0.1334294527769088
2024-12-07 18:24:10.612159200,3.1911591796875,-0.1371425539255142,0.0217935163527727,-0.2009693086147308
2024-12-07 18:24:10.622133200,3.20113330078125,-0.1524496078491211,-0.3009272515773773,-0.2733993232250213
2024-12-07 18:24:10.632106000,3.21110595703125,-0.1630119532346725,-0.5942965149879456,-0.3491522669792175
2024-12-07 18:24:10.642080000,3.221080078125,-0.147544577717781,-0.8027336001396179,-0.422306627035141
2024-12-07 18:24:10.652054000,3.231053955078125,-0.1304864436388015,-0.910442590713501,-0.4767670035362243
2024-12-07 18:24:10.662028000,3.241028076171875,-0.1077358499169349,-0.9475153684616088,-0.5092074871063232
2024-12-07 18:24:10.672002000,3.251001953125,-0.0846311748027801,-0.927474856376648,-0.5340504050254822
2024-12-07 18:24:10.681976000,3.26097607421875,-0.0852407664060592,-0.8310703039169312,-0.5609073042869568
2024-12-07 18:24:10.691950000,3.2709501953125,-0.087500087916851,-0.6674549579620361,-0.5927883982658386
2024-12-07 18:24:10.701924000,3.280924072265625,-0.1051669642329216,-0.4712130427360534,-0.5966843366622925
2024-12-07 18:24:10.711897000,3.29089697265625,-0.0994604229927063,-0.3126558363437652,-0.5692911744117737
2024-12-07 18:24:10.721871000,3.30087109375,-0.1011267602443695,-0.205678254365921,-0.5000004768371582
2024-12-07 18:24:10.731845000,3.31084521484375,-0.1118048653006553,-0.126959428191185,-0.4261812269687652
2024-12-07 18:24:10.741819100,3.320819091796875,-0.1405243873596191,-0.0534290075302124,-0.36055588722229
2024-12-07 18:24:10.751793200,3.330793212890625,-0.1798024326562881,0.0002819704823195,-0.3145776391029358
2024-12-07 18:24:10.761767200,3.34076708984375,-0.2337817698717117,0.0586736425757408,-0.263149619102478
2024-12-07 18:24:10.771741200,3.3507412109375,-0.2700592875480652,0.1468729376792907,-0.2138495445251464
2024-12-07 18:24:10.781715200,3.360715087890625,-0.2786042988300323,0.2524393200874328,-0.1736408770084381
2024-12-07 18:24:10.791689200,3.370689208984375,-0.2911270558834076,0.3145263493061065,-0.1295758783817291
2024-12-07 18:24:10.801662200,3.380662109375,-0.3054934740066528,0.3722546100616455,-0.0995822995901107
2024-12-07 18:24:10.811636200,3.39063623046875,-0.3107276260852813,0.4352789521217346,-0.0923882201313972
2024-12-07 18:24:10.821610200,3.4006103515625,-0.3112903535366058,0.5038979649543762,-0.1002421453595161
2024-12-07 18:24:10.831584300,3.410584228515625,-0.298330157995224,0.5409518480300903,-0.1078928932547569
2024-12-07 18:24:10.841558300,3.420558349609375,-0.2829184532165527,0.5462206602096558,-0.0991039350628852
2024-12-07 18:24:10.851532300,3.4305322265625,-0.2712561190128326,0.5077622532844543,-0.0764649137854576
2024-12-07 18:24:10.861506300,3.44050634765625,-0.2416130006313324,0.4750660359859466,-0.0646178424358367
2024-12-07 18:24:10.871480300,3.450480224609375,-0.2269931882619857,0.3715852499008178,-0.0287214703857898
2024-12-07 18:24:10.881454300,3.460454345703125,-0.2429884076118469,0.2883886396884918,0.0066482368856668
2024-12-07 18:24:10.891427000,3.470427001953125,-0.2428410053253173,0.2403352111577987,0.0137320011854171
2024-12-07 18:24:10.901401000,3.480401123046875,-0.2140921801328659,0.2098798304796219,0.0027848104946315
2024-12-07 18:24:10.911375000,3.490375,-0.1735154539346695,0.1923229843378067,-0.0181652680039405
2024-12-07 18:24:10.921349000,3.50034912109375,-0.1313261836767196,0.1948684304952621,-0.0242359414696693
2024-12-07 18:24:10.931323100,3.5103232421875,-0.0743073299527168,0.1997306942939758,-0.0103563349694013
2024-12-07 18:24:10.941297200,3.520297119140625,-0.0184105094522237,0.1973125487565994,0.0108163282275199
2024-12-07 18:24:10.951271200,3.530271240234375,-0.0035360292531549,0.1823075264692306,0.0662179812788963
2024-12-07 18:24:10.961245200,3.5402451171875,0.0201759580522775,0.1962704807519912,0.1211640611290931
2024-12-07 18:24:10.971218200,3.55021826171875,0.0880937725305557,0.1880528330802917,0.187645211815834
2024-12-07 18:24:10.981192200,3.560192138671875,0.1856813132762909,0.223199114203453,0.2285119593143463
2024-12-07 18:24:10.991166200,3.570166259765625,0.2799359560012817,0.2845081388950348,0.2526314258575439
2024-12-07 18:24:11.001140200,3.58014013671875,0.369722306728363,0.2876788973808288,0.3000905513763428
2024-12-07 18:24:11.011114200,3.5901142578125,0.4497859179973602,0.2489973753690719,0.3579706847667694
2024-12-07 18:24:11.021088000,3.600087890625,0.5522915124893188,0.181880921125412,0.4124640226364136
2024-12-07 18:24:11.031062000,3.61006201171875,0.6481193900108337,0.1618234366178512,0.4217009544372558
2024-12-07 18:24:11.041036000,3.6200361328125,0.693454921245575,0.1518046259880066,0.4399473369121551
2024-12-07 18:24:11.051010000,3.630010009765625,0.6686639189720154,0.1196117550134658,0.4998829364776611
2024-12-07 18:24:11.060983300,3.6399833984375,0.6080623865127563,0.089955061674118,0.6161174178123474
2024-12-07 18:24:11.070957000,3.64995703125,0.5497446060180664,0.1033514440059661,0.7816424369812012
2024-12-07 18:24:11.080931000,3.65993115234375,0.5090765357017517,0.2031853646039962,0.958953320980072
2024-12-07 18:24:11.090905000,3.669905029296875,0.4636691808700561,0.3909642100334167,1.1277351379394531
2024-12-07 18:24:11.100879000,3.679879150390625,0.4275466203689575,0.6834176778793335,1.2800381183624268
2024-12-07 18:24:11.110853000,3.68985302734375,0.4217202365398407,1.050540328025818,1.39713454246521
2024-12-07 18:24:11.120827100,3.6998271484375,0.4724755585193634,1.4298151731491089,1.477521300315857
2024-12-07 18:24:11.130801200,3.70980126953125,0.5935176014900208,1.7825602293014526,1.569907784461975
2024-12-07 18:24:11.140775200,3.719775146484375,0.7663093209266663,2.0381228923797607,1.7235580682754517
2024-12-07 18:24:11.150748000,3.729747802734375,0.9196827411651612,2.1608290672302246,1.8989850282669067
2024-12-07 18:24:11.160722000,3.739721923828125,0.9809186458587646,2.163485527038574,1.9850927591323853
2024-12-07 18:24:11.170696000,3.749696044921875,0.9441482424736024,1.9851703643798828,1.9175701141357424
2024-12-07 18:24:11.180670000,3.759669921875,0.8420623540878296,1.7115657329559326,1.724989414215088
2024-12-07 18:24:11.190644000,3.76964404296875,0.7455154061317444,1.425534963607788,1.4510401487350464
2024-12-07 18:24:11.200618000,3.779617919921875,0.6989907622337341,1.13170063495636,1.1768267154693604
2024-12-07 18:24:11.210592000,3.789592041015625,0.6625250577926636,0.916007399559021,0.9687625169754028
2024-12-07 18:24:11.220566000,3.79956591796875,0.6645128130912781,0.8593997955322266,0.8371187448501587
2024-12-07 18:24:11.230539000,3.8095390625,0.65616774559021,0.8691527843475342,0.7583417892456055
2024-12-07 18:24:11.240513000,3.819512939453125,0.6077397465705872,0.8783841133117676,0.71968013048172
2024-12-07 18:24:11.250487000,3.829487060546875,0.527827262878418,1.028629183769226,0.6560460925102234
2024-12-07 18:24:11.260461000,3.8394609375,0.4822885990142822,1.298973798751831,0.5490216612815857
2024-12-07 18:24:11.270435000,3.84943505859375,0.4977667331695556,1.5821735858917236,0.4589073359966278
2024-12-07 18:24:11.280409000,3.8594091796875,0.5466370582580566,1.7795249223709106,0.4066465198993683
2024-12-07 18:24:11.290383000,3.869383056640625,0.6085818409919739,1.8012572526931765,0.3820109367370605
2024-12-07 18:24:11.300357000,3.879357177734375,0.660957932472229,1.627336502075195,0.3391484022140503
2024-12-07 18:24:11.310331100,3.8893310546875,0.6837663650512695,1.311293601989746,0.2900355458259582
2024-12-07 18:24:11.320304000,3.89930419921875,0.6581541895866394,0.8985318541526794,0.1860433518886566
2024-12-07 18:24:11.330278100,3.909278076171875,0.5912663340568542,0.3611319959163666,0.0191325694322586
2024-12-07 18:24:11.340252200,3.919252197265625,0.5144118070602417,-0.2222691476345062,-0.164549633860588
2024-12-07 18:24:11.350226200,3.92922607421875,0.4370786845684051,-0.7173331379890442,-0.2912962138652801
2024-12-07 18:24:11.360200200,3.9392001953125,0.3483626544475555,-1.0296874046325684,-0.335803210735321
2024-12-07 18:24:11.370174200,3.94917431640625,0.2438227981328964,-1.0850229263305664,-0.3209908902645111
2024-12-07 18:24:11.380148200,3.959148193359375,0.1516510546207428,-0.9084655046463012,-0.2776511311531067
2024-12-07 18:24:11.390122200,3.969122314453125,0.0839403942227363,-0.6202658414840698,-0.235691100358963
2024-12-07 18:24:11.400096300,3.97909619140625,0.0263010635972023,-0.3582118451595306,-0.2266672402620315
2024-12-07 18:24:11.410069200,3.9890693359375,-0.0168999787420034,-0.1912797093391418,-0.284064769744873
2024-12-07 18:24:11.420043300,3.999043212890625,-0.0412050485610961,-0.1169705912470817,-0.3774226903915405
2024-12-07 18:24:11.430017000,4.00901708984375,-0.0801464542746543,-0.1456686556339264,-0.4665688276290893
2024-12-07 18:24:11.439991000,4.018990966796875,-0.1651164591312408,-0.2400082051753997,-0.5370786786079407
2024-12-07 18:24:11.449965000,4.028965087890625,-0.2812840938568115,-0.3088791668415069,-0.5824403166770935
2024-12-07 18:24:11.459939000,4.03893896484375,-0.4024608433246612,-0.3376466333866119,-0.5855977535247803
2024-12-07 18:24:11.469913000,4.0489130859375,-0.5234244465827942,-0.2950204610824585,-0.5376113057136536
2024-12-07 18:24:11.479887000,4.05888720703125,-0.6052143573760986,-0.1766618937253952,-0.4488041996955871
2024-12-07 18:24:11.489860000,4.068860107421875,-0.6186803579330444,-0.0178942028433084,-0.3544055223464966
2024-12-07 18:24:11.499834000,4.078834228515625,-0.5869346857070923,0.0928424298763275,-0.3046278357505798
2024-12-07 18:24:11.509808000,4.08880810546875,-0.5494014620780945,0.092964306473732,-0.3166212141513824
2024-12-07 18:24:11.519782100,4.0987822265625,-0.5409653782844543,-0.0723413005471229,-0.3568136394023895
2024-12-07 18:24:11.529756200,4.108756103515625,-0.5761780142784119,-0.303640604019165,-0.3949761390686035
2024-12-07 18:24:11.539730200,4.118730224609375,-0.5967389345169067,-0.451774924993515,-0.3686606585979461
2024-12-07 18:24:11.549704200,4.1287041015625,-0.5791025161743164,-0.3922739923000335,-0.3018950223922729
2024-12-07 18:24:11.559678000,4.138677978515625,-0.5107407569885254,-0.1030616462230682,-0.2541927397251129
2024-12-07 18:24:11.569652000,4.14865185546875,-0.3860912322998047,0.1779045164585113,-0.2372744679450988
2024-12-07 18:24:11.579625200,4.158625244140625,-0.2432664334774017,0.1825248301029205,-0.2437904179096222
2024-12-07 18:24:11.589599200,4.16859912109375,-0.1392707377672195,-0.1068506687879562,-0.2182493805885315
2024-12-07 18:24:11.599573200,4.1785732421875,-0.0743854939937591,-0.5053309798240662,-0.1533614546060562
2024-12-07 18:24:11.609547300,4.18854736328125,-0.0306034833192825,-0.8190449476242065,-0.0991351976990699
2024-12-07 18:24:11.619521000,4.19852099609375,0.0228679962456226,-0.9555452466011048,-0.0925236344337463
2024-12-07 18:24:11.629495000,4.2084951171875,0.0751677379012107,-0.9232215285301208,-0.1489765644073486
2024-12-07 18:24:11.639469000,4.218468994140625,0.1040361374616622,-0.7749766707420349,-0.2472876906394958
2024-12-07 18:24:11.649443000,4.228443115234375,0.1073374897241592,-0.5149423480033875,-0.3465775549411773
2024-12-07 18:24:11.659416300,4.238416259765625,0.1288355886936187,-0.2246362566947937,-0.3930529356002807
2024-12-07 18:24:11.669390000,4.24839013671875,0.1941142529249191,-0.1526489704847335,-0.376792848110199
2024-12-07 18:24:11.679364000,4.258364013671875,0.2489977329969406,-0.3896750807762146,-0.3737616240978241
2024-12-07 18:24:11.689338000,4.268338134765625,0.2206859290599823,-0.8222989439964294,-0.4210419952869415
2024-12-07 18:24:11.699312000,4.27831201171875,0.1178871169686317,-1.2746888399124146,-0.4662137329578399
2024-12-07 18:24:11.709286100,4.2882861328125,-0.0540485382080078,-1.588207483291626,-0.4323972761631012
2024-12-07 18:24:11.719260200,4.29826025390625,-0.2456896007061004,-1.6648627519607544,-0.3168326020240783
2024-12-07 18:24:11.729234200,4.308234130859375,-0.3671741783618927,-1.3916877508163452,-0.156219020485878
2024-12-07 18:24:11.739208200,4.318208251953125,-0.382620245218277,-0.8902382254600525,-0.0245510041713714
2024-12-07 18:24:11.749181000,4.328180908203125,-0.3313196301460266,-0.335647314786911,0.0129925422370433
2024-12-07 18:24:11.759155000,4.338155029296875,-0.2661856412887573,0.0694993734359741,-0.0692261680960655
2024-12-07 18:24:11.769129000,4.34812890625,-0.186622217297554,0.1840029656887054,-0.2208599895238876
2024-12-07 18:24:11.779103000,4.35810302734375,-0.1637421995401382,0.06667260825634,-0.348839521408081
2024-12-07 18:24:11.789077000,4.368076904296875,-0.2323478460311889,-0.1784792244434356,-0.3995303809642792
2024-12-07 18:24:11.799051000,4.378051025390625,-0.3480975925922394,-0.4752466976642608,-0.3794565498828888
2024-12-07 18:24:11.809025000,4.38802490234375,-0.4625811278820038,-0.7120275497436523,-0.2832528054714203
2024-12-07 18:24:11.818999000,4.3979990234375,-0.5812164545059204,-0.8190392255783081,-0.1285958439111709
2024-12-07 18:24:11.828973000,4.40797314453125,-0.6936763525009155,-0.8074915409088135,0.0268429666757583
2024-12-07 18:24:11.838946000,4.417946044921875,-0.7720404267311096,-0.7250962853431702,0.1088728606700897
2024-12-07 18:24:11.848920000,4.427920166015625,-0.7831537127494812,-0.6499339938163757,0.0755237564444542
2024-12-07 18:24:11.858894000,4.43789404296875,-0.7126355767250061,-0.6340362429618835,-0.0605464652180671
2024-12-07 18:24:11.868868000,4.4478681640625,-0.5680983662605286,-0.7065922021865845,-0.2624404430389404
2024-12-07 18:24:11.878842000,4.457842041015625,-0.3835479617118835,-0.8873925805091858,-0.4658287167549133
2024-12-07 18:24:11.888816000,4.467816162109375,-0.2381726801395416,-1.069477677345276,-0.6226914525032043
2024-12-07 18:24:11.898789600,4.47778955078125,-0.1636792719364166,-1.167338490486145,-0.6891700625419617
2024-12-07 18:24:11.908763600,4.487763671875,-0.1069309636950492,-1.1612045764923096,-0.6724178791046143
2024-12-07 18:24:11.918737700,4.497737548828125,-0.0507060475647449,-1.0736422538757324,-0.6076218485832214
2024-12-07 18:24:11.928710700,4.507710693359375,-0.0254631601274013,-0.924513041973114,-0.5228459239006042
2024-12-07 18:24:11.938684700,4.5176845703125,-0.0208084881305694,-0.6888939142227173,-0.4590088427066803
2024-12-07 18:24:11.948658700,4.52765869140625,-0.0191643964499235,-0.4078792035579681,-0.438888281583786
2024-12-07 18:24:11.958632700,4.5376328125,-0.0249482505023479,-0.126988410949707,-0.4539844095706939
2024-12-07 18:24:11.968606700,4.547606689453125,-0.0419300086796283,0.0387192741036415,-0.4399755299091339
2024-12-07 18:24:11.978580700,4.557580810546875,-0.0504137724637985,0.1149072498083114,-0.3858489394187927
2024-12-07 18:24:11.988554800,4.5675546875,-0.0654771402478218,0.1254243403673172,-0.3090859651565552
2024-12-07 18:24:11.998528800,4.57752880859375,-0.0843879804015159,0.0924434885382652,-0.2280846089124679
2024-12-07 18:24:12.008501800,4.587501708984375,-0.0864788517355918,0.0533788539469242,-0.1704411506652832
2024-12-07 18:24:12.018475800,4.597475830078125,-0.0875768736004829,0.0179657340049743,-0.1340551823377609
2024-12-07 18:24:12.028449800,4.60744970703125,-0.0940798968076706,-0.024295525625348,-0.1243592426180839
2024-12-07 18:24:12.038423800,4.617423828125,-0.0898489356040954,-0.0230204034596681,-0.1733747273683548
2024-12-07 18:24:12.048397800,4.627397705078125,-0.0619958341121673,0.0176316257566213,-0.2655508816242218
2024-12-07 18:24:12.058371800,4.637371826171875,-0.0268847178667783,0.0480582416057586,-0.3584171831607818
2024-12-07 18:24:12.068345900,4.647345947265625,0.0026249878574162,0.0337880291044712,-0.4315721988677978
2024-12-07 18:24:12.078319900,4.65731982421875,0.0126616433262825,-0.0181153826415538,-0.4761332869529724
2024-12-07 18:24:12.088294000,4.6672939453125,-0.0015640201745554,-0.08384919911623,-0.498216837644577
2024-12-07 18:24:12.098267000,4.677266845703125,-0.0162430983036756,-0.1356535404920578,-0.5011207461357117
2024-12-07 18:24:12.108241000,4.687240966796875,-0.0500047504901886,-0.2065928727388382,-0.4758118689060211
2024-12-07 18:24:12.118215000,4.69721484375,-0.0826822742819786,-0.2611788809299469,-0.466178685426712
2024-12-07 18:24:12.128189000,4.70718896484375,-0.1008458882570266,-0.2798959910869598,-0.498813271522522
2024-12-07 18:24:12.138163000,4.717162841796875,-0.1485356390476226,-0.2877190411090851,-0.4987325668334961
2024-12-07 18:24:12.148137000,4.727136962890625,-0.2068708539009094,-0.2996957898139953,-0.4705046713352203
2024-12-07 18:24:12.158110700,4.73711083984375,-0.2419638484716415,-0.2945412397384643,-0.423827975988388
2024-12-07 18:24:12.168084700,4.747084716796875,-0.261857658624649,-0.2721251547336578,-0.3597334027290344
2024-12-07 18:24:12.178058800,4.757058837890625,-0.2771455347537994,-0.263744980096817,-0.3159728646278381
2024-12-07 18:24:12.188031700,4.76703173828125,-0.2826793491840362,-0.2722765505313873,-0.3089677989482879
2024-12-07 18:24:12.198005800,4.777005859375,-0.2865334749221802,-0.2717157006263733,-0.3400186598300934
2024-12-07 18:24:12.207979800,4.786979736328125,-0.2722079455852508,-0.2489040195941925,-0.3847809433937073
2024-12-07 18:24:12.217953800,4.796953857421875,-0.2462810277938842,-0.2011974900960922,-0.4390508234500885
2024-12-07 18:24:12.227927800,4.806927734375,-0.2568663358688354,-0.1920589655637741,-0.4413267970085144
2024-12-07 18:24:12.237901600,4.816901611328125,-0.2606099545955658,-0.1809562444686889,-0.4351280331611633
2024-12-07 18:24:12.247875600,4.82687548828125,-0.2340435087680816,-0.1623988896608352,-0.4385257959365845
2024-12-07 18:24:12.257849600,4.836849609375,-0.2690922915935516,-0.1938830465078354,-0.3773138523101806
2024-12-07 18:24:12.267822800,4.84682275390625,-0.3207003176212311,-0.2106311470270156,-0.2847524583339691
2024-12-07 18:24:12.277796900,4.856796875,-0.336358904838562,-0.2183979898691177,-0.2020687609910965
2024-12-07 18:24:12.287770600,4.8667705078125,-0.3309279978275299,-0.20020492374897,-0.1477353721857071
2024-12-07 18:24:12.297744600,4.87674462890625,-0.3206457793712616,-0.1622045487165451,-0.1071733012795448
2024-12-07 18:24:12.307718700,4.88671875,-0.30154749751091,-0.1187730133533477,-0.0802043452858924
2024-12-07 18:24:12.317692700,4.896692626953125,-0.2684782147407532,-0.0724704936146736,-0.0672842860221862
2024-12-07 18:24:12.327666700,4.906666748046875,-0.2384803891181945,-0.0274561140686273,-0.0736828595399856
2024-12-07 18:24:12.337640700,4.916640625,-0.2160259485244751,-0.0016178593505173,-0.0823860764503479
2024-12-07 18:24:12.347614700,4.92661474609375,-0.1998669058084488,-0.0062822578474879,-0.0984590426087379
2024-12-07 18:24:12.357587700,4.936587646484375,-0.1885441988706588,-0.0033221542835235,-0.1370415836572647
2024-12-07 18:24:12.367561700,4.946561767578125,-0.1812562048435211,0.0302728228271007,-0.1970380693674087
2024-12-07 18:24:12.377535700,4.95653564453125,-0.2014605402946472,0.095589242875576,-0.2583328783512115
2024-12-07 18:24:12.387509800,4.966509765625,-0.2131901234388351,0.2446217387914657,-0.3166089355945587
2024-12-07 18:24:12.397483800,4.97648388671875,-0.2013861835002899,0.3630314767360687,-0.340609073638916
2024-12-07 18:24:12.407457800,4.986457763671875,-0.2098322212696075,0.4407659769058227,-0.3102858662605285
2024-12-07 18:24:12.417431800,4.996431884765625,-0.2083818614482879,0.5141928195953369,-0.2774067521095276
2024-12-07 18:24:12.427405800,5.00640576171875,-0.1925184428691864,0.5333439707756042,-0.2421000897884369
2024-12-07 18:24:12.437379800,5.0163798828125,-0.1870467066764831,0.511853039264679,-0.1483962386846542
2024-12-07 18:24:12.447352600,5.0263525390625,-0.1616673171520233,0.5274386405944824,-0.0509676896035671
2024-12-07 18:24:12.457326600,5.03632666015625,-0.0911366865038871,0.5290589332580566,0.0509640015661716
2024-12-07 18:24:12.467300600,5.046300537109375,0.0392809323966503,0.4646174907684326,0.1577881723642349
2024-12-07 18:24:12.477274600,5.056274658203125,0.1542762219905853,0.3923076093196869,0.2611342668533325
2024-12-07 18:24:12.487248600,5.06624853515625,0.2715798318386078,0.3251173198223114,0.354682981967926
2024-12-07 18:24:12.497222700,5.07622265625,0.3652682304382324,0.2964723706245422,0.416025698184967
2024-12-07 18:24:12.507196700,5.08619677734375,0.4776421189308166,0.2635826468467712,0.4518821537494659
2024-12-07 18:24:12.517170700,5.096170654296875,0.5657277703285217,0.2447072267532348,0.4431166350841522
2024-12-07 18:24:12.527144700,5.106144775390625,0.6467028260231018,0.1878807842731475,0.4665080308914184
2024-12-07 18:24:12.537117700,5.11611767578125,0.6808056831359863,0.1670106649398803,0.5020423531532288
2024-12-07 18:24:12.547091700,5.126091796875,0.7049751877784729,0.1791998445987701,0.5382817983627319
2024-12-07 18:24:12.557065700,5.136065673828125,0.6920828223228455,0.2355416715145111,0.6000418066978455
2024-12-07 18:24:12.567039700,5.146039794921875,0.6537199020385742,0.3399659693241119,0.6874405741691589
2024-12-07 18:24:12.577013800,5.156013671875,0.613760769367218,0.4768671095371246,0.7950477600097656
2024-12-07 18:24:12.586987800,5.16598779296875,0.5914086103439331,0.6159800291061401,0.9172202348709106
2024-12-07 18:24:12.596961800,5.1759619140625,0.5732325315475464,0.7750564813613892,1.0366653203964231
2024-12-07 18:24:12.606935800,5.185935791015625,0.5610163807868958,0.961386263370514,1.1558719873428345
2024-12-07 18:24:12.616908800,5.19590869140625,0.5730623602867126,1.1765284538269043,1.2627390623092651
2024-12-07 18:24:12.626882800,5.2058828125,0.6209301948547363,1.420250654220581,1.3631958961486816
2024-12-07 18:24:12.636856800,5.21585693359375,0.709869921207428,1.658883810043335,1.469934105873108
2024-12-07 18:24:12.646830800,5.225830810546875,0.8260900378227234,1.82796311378479,1.6082113981246948
2024-12-07 18:24:12.656804900,5.235804931640625,0.9255250096321106,1.8784226179122925,1.7640622854232788
2024-12-07 18:24:12.666779000,5.24577880859375,0.95795476436615,1.726757287979126,1.8598599433898928
2024-12-07 18:24:12.676753000,5.2557529296875,0.9160509705543518,1.395902395248413,1.8516515493392944
2024-12-07 18:24:12.686727000,5.265726806640625,0.8333674073219299,1.0143287181854248,1.7310963869094849
2024-12-07 18:24:12.696701000,5.275700927734375,0.7337936758995056,0.6651425957679749,1.5132524967193604
2024-12-07 18:24:12.706673700,5.285673583984375,0.6557639837265015,0.4483108818531036,1.2626078128814695
2024-12-07 18:24:12.716647700,5.295647705078125,0.590122401714325,0.3808333277702331,1.1006828546524048
2024-12-07 18:24:12.726621700,5.30562158203125,0.5339510440826416,0.4440142214298248,1.0289299488067627
2024-12-07 18:24:12.736595700,5.315595703125,0.5077047944068909,0.5700975656509399,0.9724925756454468
2024-12-07 18:24:12.746569700,5.32556982421875,0.4852252006530761,0.7542993426322937,0.892451286315918
2024-12-07 18:24:12.756543700,5.335543701171875,0.4500408470630646,1.0282671451568604,0.8042833805084229
2024-12-07 18:24:12.766517800,5.345517822265625,0.4488385617733001,1.342516541481018,0.7269769310951233
2024-12-07 18:24:12.776491500,5.355491455078125,0.4798265695571899,1.615088701248169,0.7035909295082092
2024-12-07 18:24:12.786465500,5.365465576171875,0.518925130367279,1.8370957374572752,0.7098639607429504
2024-12-07 18:24:12.796438800,5.375438720703125,0.5573582649230957,1.926518201828003,0.6727946400642395
2024-12-07 18:24:12.806412800,5.385412841796875,0.5687230825424194,1.7835118770599363,0.5762644410133362
2024-12-07 18:24:12.816386800,5.39538671875,0.5442273020744324,1.4263039827346802,0.406887412071228
2024-12-07 18:24:12.826360600,5.405360595703125,0.4886612892150879,0.8891381025314331,0.2161841541528701
2024-12-07 18:24:12.836334600,5.41533447265625,0.4130624234676361,0.3229378163814544,0.0398341529071331
2024-12-07 18:24:12.846308600,5.42530859375,0.3526432812213897,-0.1326120942831039,-0.0773013234138488
2024-12-07 18:24:12.856282600,5.43528271484375,0.3000586330890655,-0.3531233966350555,-0.1477310210466385
2024-12-07 18:24:12.866256600,5.445256591796875,0.2583165168762207,-0.4227962493896484,-0.1729072034358978
2024-12-07 18:24:12.876230000,5.45522998046875,0.1932784020900726,-0.3796788454055786,-0.1941009014844894
2024-12-07 18:24:12.886203600,5.46520361328125,0.1080260947346687,-0.2901220619678497,-0.2412433922290802
2024-12-07 18:24:12.896177400,5.475177490234375,0.0209026373922824,-0.2085073888301849,-0.3050862848758697
2024-12-07 18:24:12.906151400,5.4851513671875,-0.0550825484097003,-0.105061836540699,-0.3752887845039367
2024-12-07 18:24:12.916125400,5.49512548828125,-0.1009040921926498,-0.0135801173746585,-0.4535132944583893
2024-12-07 18:24:12.926099500,5.505099365234375,-0.1332053989171981,0.0218031425029039,-0.5347931981086731
2024-12-07 18:24:12.936073500,5.515073486328125,-0.1690038740634918,0.000381740508601,-0.6088437438011169
2024-12-07 18:24:12.946047500,5.525047607421875,-0.2215147614479065,-0.0599947720766067,-0.6692550778388977
2024-12-07 18:24:12.956021500,5.535021484375,-0.316964328289032,-0.1101285144686698,-0.7025938630104065
2024-12-07 18:24:12.965994500,5.544994384765625,-0.4409187734127044,-0.1692712604999542,-0.6929842829704285
2024-12-07 18:24:12.975968500,5.554968505859375,-0.5454313158988953,-0.2106264233589172,-0.6457747220993042
2024-12-07 18:24:12.985942500,5.564942626953125,-0.6120326519012451,-0.1845079213380813,-0.5939478874206543
2024-12-07 18:24:12.995916500,5.57491650390625,-0.6376141905784607,-0.1517238765954971,-0.5216214656829834
2024-12-07 18:24:13.005890600,5.584890625,-0.6496178507804871,-0.1840537041425705,-0.4221606850624084
2024-12-07 18:24:13.015864600,5.594864501953125,-0.6783035397529602,-0.23616723716259,-0.3204580247402191
2024-12-07 18:24:13.025838600,5.604838623046875,-0.7169657349586487,-0.2714338302612304,-0.2515664398670196
2024-12-07 18:24:13.035812600,5.6148125,-0.7265951633453369,-0.2941924035549164,-0.2151953727006912
2024-12-07 18:24:13.045785300,5.624785400390625,-0.6633687019348145,-0.2977041900157928,-0.2106890380382537
2024-12-07 18:24:13.055759400,5.63475927734375,-0.5112050175666809,-0.3059016764163971,-0.2103228569030761
2024-12-07 18:24:13.065733400,5.6447333984375,-0.2713479101657867,-0.2312173098325729,-0.2125060856342315
2024-12-07 18:24:13.075707400,5.654707275390625,0.0012553962878882,-0.0558066070079803,-0.2154765725135803
2024-12-07 18:24:13.085681400,5.664681396484375,0.2370365560054779,0.0805897414684295,-0.181799367070198
2024-12-07 18:24:13.095655400,5.674655517578125,0.3588077425956726,0.0785633400082588,-0.1406822800636291
2024-12-07 18:24:13.105629400,5.68462939453125,0.3978889286518097,-0.0156296789646148,-0.1561228632926941
2024-12-07 18:24:13.115603500,5.694603515625,0.396525114774704,-0.0930443108081817,-0.241847887635231
2024-12-07 18:24:13.125577500,5.704577392578125,0.3665469586849212,-0.0476712733507156,-0.3489665389060974
2024-12-07 18:24:13.135550500,5.714550537109375,0.3171613216400146,0.0668816640973091,-0.3971883952617645
2024-12-07 18:24:13.145524500,5.7245244140625,0.2426966726779937,0.1318130791187286,-0.3624569177627563
2024-12-07 18:24:13.155498500,5.73449853515625,0.1388147622346878,0.0830657705664634,-0.2704172730445862
2024-12-07 18:24:13.165472500,5.744472412109375,0.0244840458035469,-0.0922764092683792,-0.1807533502578735
2024-12-07 18:24:13.175446500,5.754446533203125,-0.091574378311634,-0.3597994744777679,-0.1604837626218795
2024-12-07 18:24:13.185420500,5.764420654296875,-0.2053716480731964,-0.6961115002632141,-0.2152778506278991
2024-12-07 18:24:13.195394600,5.77439453125,-0.3119374811649322,-1.0938823223114014,-0.3260981142520904
2024-12-07 18:24:13.205368600,5.78436865234375,-0.3852995038032532,-1.489781141281128,-0.4596300721168518
2024-12-07 18:24:13.215342600,5.794342529296875,-0.4058980047702789,-1.8064088821411133,-0.5733494758605957
2024-12-07 18:24:13.225315600,5.804315673828125,-0.4023910164833069,-1.996115684509277,-0.6388117671012878
2024-12-07 18:24:13.235289600,5.81428955078125,-0.4325422644615173,-2.019193410873413,-0.6705209612846375
2024-12-07 18:24:13.245263600,5.824263671875,-0.4969316720962524,-1.78053879737854,-0.6897639632225037
2024-12-07 18:24:13.255237600,5.834237548828125,-0.5195469260215759,-1.2215760946273804,-0.6536877155303955
2024-12-07 18:24:13.265211600,5.844211669921875,-0.4303717017173767,-0.5427122116088867,-0.5566663146018982
2024-12-07 18:24:13.275185700,5.854185546875,-0.2456657588481903,0.0848640650510788,-0.4240797758102417
2024-12-07 18:24:13.285159700,5.86415966796875,-0.0704807043075561,0.5035742521286011,-0.2723062634468078
2024-12-07 18:24:13.295133700,5.8741337890625,0.0153300706297159,0.6576378345489502,-0.1401719450950622
2024-12-07 18:24:13.305107700,5.884107666015625,-0.0163872055709362,0.5304790735244751,-0.0534301362931728
2024-12-07 18:24:13.315080700,5.894080810546875,-0.1384835541248321,0.1560165584087371,-0.0374612882733345
2024-12-07 18:24:13.325054700,5.9040546875,-0.2822306752204895,-0.399486094713211,-0.0892198532819747
2024-12-07 18:24:13.335028500,5.914028564453125,-0.4173717200756073,-0.992782175540924,-0.1652773469686508
2024-12-07 18:24:13.345002500,5.92400244140625,-0.5569669008255005,-1.4599064588546753,-0.2170540392398834
2024-12-07 18:24:13.354976500,5.9339765625,-0.6997016668319702,-1.690201759338379,-0.213762104511261
2024-12-07 18:24:13.364950500,5.943950439453125,-0.8312574028968811,-1.6455297470092771,-0.1450663059949875
2024-12-07 18:24:13.374924500,5.953924560546875,-0.9116236567497252,-1.3974560499191284,-0.0230290871113538
2024-12-07 18:24:13.384898300,5.963898193359375,-0.8897440433502197,-1.112130641937256,0.1113025322556495
2024-12-07 18:24:13.394871600,5.97387158203125,-0.7635677456855774,-0.905220866203308,0.1878830641508102
2024-12-07 18:24:13.404845600,5.983845458984375,-0.590255856513977,-0.8669989109039307,0.1840952485799789
2024-12-07 18:24:13.414819600,5.993819580078125,-0.4386591613292694,-0.9129371047019958,0.0936151519417762
2024-12-07 18:24:13.424793600,6.003793701171875,-0.3388825953006744,-0.9358839988708496,-0.0677214413881301
2024-12-07 18:24:13.434767400,6.013767333984375,-0.270626038312912,-0.9012272357940674,-0.2756538689136505
2024-12-07 18:24:13.444741400,6.023741455078125,-0.2074378728866577,-0.8082848787307739,-0.476636677980423
2024-12-07 18:24:13.454715400,6.03371533203125,-0.0987092554569244,-0.7572056651115417,-0.6153141260147095
2024-12-07 18:24:13.464689400,6.043689453125,0.0470634885132312,-0.8152827620506287,-0.6661914587020874
2024-12-07 18:24:13.474663400,6.053663330078125,0.1689358502626419,-0.8802686929702759,-0.6429689526557922
2024-12-07 18:24:13.484636700,6.06363671875,0.2515738606452942,-0.8921881318092346,-0.5994563102722168
2024-12-07 18:24:13.494610400,6.0736103515625,0.2968595921993255,-0.8227645754814148,-0.5577762722969055
2024-12-07 18:24:13.504584400,6.08358447265625,0.3056921064853668,-0.6447417140007019,-0.5170716643333435
2024-12-07 18:24:13.514558500,6.093558349609375,0.2967263162136078,-0.3997609913349151,-0.4694602191448211
2024-12-07 18:24:13.524532500,6.103532470703125,0.2592586278915405,-0.1616116166114807,-0.4083671569824219
2024-12-07 18:24:13.534506500,6.113506591796875,0.1903695613145828,0.0192300640046596,-0.3202775120735168
2024-12-07 18:24:13.544480500,6.12348046875,0.1137395948171615,0.1316090822219848,-0.2289486974477768
2024-12-07 18:24:13.554454500,6.13345458984375,0.0341180078685283,0.1914338022470474,-0.1368158459663391
2024-12-07 18:24:13.564428500,6.143428466796875,-0.0335246920585632,0.2117153406143188,-0.0726567804813385
2024-12-07 18:24:13.574401500,6.153401611328125,-0.0902351066470146,0.2235275208950042,-0.0484893955290317
2024-12-07 18:24:13.584375600,6.16337548828125,-0.1291376203298568,0.2189284712076187,-0.0673372745513916
2024-12-07 18:24:13.594349600,6.173349609375,-0.1460087448358535,0.1823800355195999,-0.1151471436023712
2024-12-07 18:24:13.604323600,6.183323486328125,-0.138933852314949,0.1414683312177658,-0.1832415908575058
2024-12-07 18:24:13.614297600,6.193297607421875,-0.1156298667192459,0.101877249777317,-0.2686598002910614
2024-12-07 18:24:13.624271600,6.203271728515625,-0.0899975970387458,0.0575789026916027,-0.3549966216087341
2024-12-07 18:24:13.634245600,6.21324560546875,-0.0783340185880661,0.0002695424482226,-0.4245469272136688
2024-12-07 18:24:13.644219600,6.2232197265625,-0.06360425055027,-0.0529435835778713,-0.4693807363510132
2024-12-07 18:24:13.654192400,6.2331923828125,-0.0422512926161289,-0.1341428309679031,-0.4884774684906006
2024-12-07 18:24:13.664166400,6.24316650390625,-0.0518680587410926,-0.2309239953756332,-0.4722761213779449
2024-12-07 18:24:13.674140400,6.253140380859375,-0.0938967317342758,-0.305755615234375,-0.435888260602951
2024-12-07 18:24:13.684114400,6.263114501953125,-0.1320987939834594,-0.3554464280605316,-0.404458224773407
2024-12-07 18:24:13.694088400,6.27308837890625,-0.1677947491407394,-0.363035649061203,-0.3625898957252502
2024-12-07 18:24:13.704062500,6.2830625,-0.1796899288892746,-0.3386491239070892,-0.3274272978305816
2024-12-07 18:24:13.714036500,6.293036376953125,-0.1970912963151931,-0.3079993426799774,-0.3041781783103943
2024-12-07 18:24:13.724010500,6.303010498046875,-0.1947480142116546,-0.2716706693172455,-0.2997995316982269
2024-12-07 18:24:13.733984500,6.312984619140625,-0.2187108695507049,-0.2474668174982071,-0.2966687083244324
2024-12-07 18:24:13.743957500,6.32295751953125,-0.2647069692611694,-0.1953738629817962,-0.2761600613594055
2024-12-07 18:24:13.753931500,6.332931640625,-0.2945828437805176,-0.1115977391600608,-0.2636890113353729
2024-12-07 18:24:13.763905500,6.342905517578125,-0.3069518208503723,-0.0195709578692913,-0.2455711215734481
2024-12-07 18:24:13.773879600,6.352879638671875,-0.3172419965267181,0.0690787509083747,-0.2242794185876846
2024-12-07 18:24:13.783853600,6.362853515625,-0.3262550830841064,0.1492924988269806,-0.212486445903778
2024-12-07 18:24:13.793827600,6.37282763671875,-0.3330714404582977,0.2301308810710907,-0.2022615075111389
2024-12-07 18:24:13.803801600,6.382801513671875,-0.3394051790237427,0.3037890195846557,-0.1936227232217788
2024-12-07 18:24:13.813775600,6.392775634765625,-0.346847653388977,0.3665557205677032,-0.1926671862602234
2024-12-07 18:24:13.823749600,6.40274951171875,-0.3512755036354065,0.4028187394142151,-0.1853556782007217
2024-12-07 18:24:13.833722600,6.41272265625,-0.3620719313621521,0.4012951552867889,-0.1703439801931381
2024-12-07 18:24:13.843696600,6.422696533203125,-0.3542229831218719,0.3435730338096618,-0.1452344059944152
2024-12-07 18:24:13.853670700,6.432670654296875,-0.3367427885532379,0.2794230878353119,-0.1436817795038223
2024-12-07 18:24:13.863644700,6.442644775390625,-0.3180625438690185,0.2377851754426956,-0.1692414134740829
2024-12-07 18:24:13.873618700,6.45261865234375,-0.3080794215202331,0.2099146544933319,-0.2198135107755661
2024-12-07 18:24:13.883592700,6.4625927734375,-0.2926170527935028,0.1571263670921325,-0.2545410692691803
2024-12-07 18:24:13.893566700,6.472566650390625,-0.2904609739780426,0.0598237887024879,-0.2397722154855728
2024-12-07 18:24:13.903540700,6.482540771484375,-0.2830992937088012,-0.0579688772559165,-0.1948748230934143
2024-12-07 18:24:13.913513500,6.492513427734375,-0.2623785436153412,-0.1817984133958816,-0.1460646688938141
2024-12-07 18:24:13.923487500,6.502487548828125,-0.2357892543077469,-0.291918396949768,-0.1139871403574943
2024-12-07 18:24:13.933461500,6.51246142578125,-0.193503588438034,-0.3860904276371002,-0.1048892512917518
2024-12-07 18:24:13.943435500,6.522435546875,-0.1315300464630127,-0.4410138428211212,-0.1273985803127288
2024-12-07 18:24:13.953409500,6.532409423828125,-0.1037040054798126,-0.4922328293323517,-0.1329589933156967
2024-12-07 18:24:13.963383600,6.542383544921875,-0.0608623623847961,-0.4816065728664398,-0.1543097794055938
2024-12-07 18:24:13.973357300,6.552357421875,-0.0287989694625139,-0.4259571731090545,-0.1726962476968765
2024-12-07 18:24:13.983331300,6.562331298828125,0.0122651159763336,-0.3149778544902801,-0.1796370148658752
2024-12-07 18:24:13.993305300,6.572305419921875,0.0251979585736989,-0.2057110518217086,-0.1328639239072799
2024-12-07 18:24:14.003278600,6.582278564453125,0.0453343838453292,-0.0799323841929435,-0.0396311357617378
2024-12-07 18:24:14.013252600,6.592252685546875,0.0995997488498687,0.07241240888834,0.0670678839087486
2024-12-07 18:24:14.023226600,6.6022265625,0.1905254423618316,0.28623828291893,0.1552025526762008
2024-12-07 18:24:14.033200400,6.612200439453125,0.2604280710220337,0.4479323625564575,0.2471468448638916
2024-12-07 18:24:14.043174400,6.62217431640625,0.2759137451648712,0.5093358159065247,0.3973004519939422
2024-12-07 18:24:14.053148400,6.6321484375,0.3070016205310821,0.4925363063812256,0.5655443072319031
2024-12-07 18:24:14.063122400,6.642122314453125,0.3977508246898651,0.4092404842376709,0.7058199048042297
2024-12-07 18:24:14.073096400,6.652096435546875,0.503452718257904,0.3719535768032074,0.7870321869850159
2024-12-07 18:24:14.083070500,6.662070556640625,0.5884287357330322,0.4470202922821045,0.7928335070610046
2024-12-07 18:24:14.093043500,6.67204345703125,0.6631501317024231,0.5932773947715759,0.7471690773963928
2024-12-07 18:24:14.103017500,6.682017578125,0.7133060097694397,0.7319090366363525,0.725843608379364
2024-12-07 18:24:14.112991500,6.691991455078125,0.7344956994056702,0.8772270679473877,0.7800788879394531
2024-12-07 18:24:14.122965500,6.701965576171875,0.7494670152664185,1.0327719449996948,0.9222712516784668
2024-12-07 18:24:14.132939500,6.711939453125,0.7686838507652283,1.1903098821640017,1.1236506700515747
2024-12-07 18:24:14.142913500,6.72191357421875,0.7827149629592896,1.3139715194702148,1.3401544094085691
2024-12-07 18:24:14.152887600,6.731887451171875,0.7874743342399597,1.4109723567962646,1.5243841409683228
2024-12-07 18:24:14.162861600,6.741861572265625,0.7912901043891907,1.515974760055542,1.6446261405944824
2024-12-07 18:24:14.172835600,6.751835693359375,0.8211435675621033,1.6640039682388306,1.7224218845367432
2024-12-07 18:24:14.182808600,6.76180859375,0.9182478785514832,1.7955328226089478,1.816096544265747
2024-12-07 18:24:14.192782600,6.771782470703125,1.0311055183410645,1.846613883972168,1.9054030179977417
2024-12-07 18:24:14.202756600,6.781756591796875,1.0558558702468872,1.7388910055160522,1.885881304740905
2024-12-07 18:24:14.212730600,6.791730712890625,0.9693073630332948,1.3846253156661987,1.7582381963729858
2024-12-07 18:24:14.222704400,6.801704345703125,0.8208014369010925,0.8870635628700256,1.5560827255249023
2024-12-07 18:24:14.232678400,6.811678466796875,0.6629601120948792,0.4896000921726227,1.3077844381332395
2024-12-07 18:24:14.242652400,6.82165234375,0.5335504412651062,0.2893908321857452,1.0832712650299072
2024-12-07 18:24:14.252626400,6.83162646484375,0.4697173833847046,0.2564067840576172,0.9556714296340942
2024-12-07 18:24:14.262599400,6.841599365234375,0.5008203983306885,0.373367428779602,0.8686911463737488
2024-12-07 18:24:14.272573400,6.851573486328125,0.571994960308075,0.572411298751831,0.8045632839202881
2024-12-07 18:24:14.282547500,6.86154736328125,0.6155747771263123,0.8008716106414795,0.7670527696609497
2024-12-07 18:24:14.292521500,6.871521484375,0.6192046403884888,1.0087107419967651,0.7235875725746155
2024-12-07 18:24:14.302495500,6.88149560546875,0.59467613697052,1.2148418426513672,0.6594487428665161
2024-12-07 18:24:14.312469500,6.891469482421875,0.5771999359130859,1.3922700881958008,0.5652236938476562
2024-12-07 18:24:14.322443500,6.901443603515625,0.572254478931427,1.5145589113235474,0.4511623978614807
2024-12-07 18:24:14.332417500,6.91141748046875,0.5609589219093323,1.4730937480926514,0.3644096553325653
2024-12-07 18:24:14.342391600,6.9213916015625,0.563290536403656,1.2358828783035278,0.2933828234672546
2024-12-07 18:24:14.352364500,6.931364501953125,0.5611041188240051,0.883726954460144,0.2150976061820984
2024-12-07 18:24:14.362338600,6.941338623046875,0.5302585363388062,0.4936392605304718,0.1180360168218612
2024-12-07 18:24:14.372312600,6.9513125,0.4795482456684112,0.1784858405590057,0.0107862567529082
2024-12-07 18:24:14.382286600,6.96128662109375,0.4175358712673187,0.0074793607927858,-0.1124731302261352
2024-12-07 18:24:14.392260600,6.971260498046875,0.3426914513111114,-0.1158662810921669,-0.2263373732566833
2024-12-07 18:24:14.402234600,6.981234619140625,0.2747077345848083,-0.2378199994564056,-0.2949782609939575
2024-12-07 18:24:14.412208600,6.991208740234375,0.2072570770978927,-0.3245583474636078,-0.327363908290863
2024-12-07 18:24:14.422182700,7.0011826171875,0.1393177807331085,-0.3594758808612823,-0.3389565944671631
2024-12-07 18:24:14.432156700,7.01115673828125,0.0760959386825561,-0.3169960677623749,-0.3519126176834106
2024-12-07 18:24:14.442129700,7.021129638671875,0.0214817356318235,-0.2162991464138031,-0.3867622017860412
2024-12-07 18:24:14.452103700,7.031103759765625,-0.0306435171514749,-0.0840745270252227,-0.4441176354885101
2024-12-07 18:24:14.462077700,7.04107763671875,-0.0913933292031288,0.0179714057594537,-0.5304780602455139
2024-12-07 18:24:14.472051700,7.0510517578125,-0.1587417423725128,0.0713225156068801,-0.6327628493309021
2024-12-07 18:24:14.482025700,7.061025634765625,-0.2372309863567352,0.0729426816105842,-0.7069597244262695
2024-12-07 18:24:14.491999700,7.070999755859375,-0.3337143659591675,0.0402465164661407,-0.7495729327201843
2024-12-07 18:24:14.501973500,7.080973388671875,-0.4650524258613586,0.0187293421477079,-0.7539068460464478
2024-12-07 18:24:14.511947500,7.090947509765625,-0.61940997838974,0.0094255888834595,-0.7113903164863586
2024-12-07 18:24:14.521920500,7.10092041015625,-0.7479043006896973,-0.0242428239434957,-0.60963374376297
2024-12-07 18:24:14.531894500,7.11089453125,-0.8259522318840027,-0.029024263843894,-0.5021986365318298
2024-12-07 18:24:14.541868500,7.12086865234375,-0.8455589413642883,-0.0453043431043624,-0.4011651575565338
2024-12-07 18:24:14.551842600,7.130842529296875,-0.8260345458984375,-0.0876067876815795,-0.3488289713859558
2024-12-07 18:24:14.561816600,7.140816650390625,-0.82105553150177,-0.1373457163572311,-0.3389286696910858
2024-12-07 18:24:14.571790300,7.150790283203125,-0.8398675918579102,-0.2083509117364883,-0.3380628824234009
2024-12-07 18:24:14.581764400,7.160764404296875,-0.8158709406852722,-0.3217892944812774,-0.3132729232311249
2024-12-07 18:24:14.591738400,7.17073828125,-0.7141533493995667,-0.3629436492919922,-0.2549236118793487
2024-12-07 18:24:14.601712400,7.18071240234375,-0.5200588703155518,-0.2320329993963241,-0.1836515963077545
2024-12-07 18:24:14.611685600,7.190685546875,-0.2655219733715057,0.0340330302715301,-0.1145316436886787
2024-12-07 18:24:14.621659400,7.200659423828125,-0.0389901585876941,0.2273096293210983,-0.0626827478408813
2024-12-07 18:24:14.631633400,7.21063330078125,0.1216900646686554,0.1816737055778503,-0.058355376124382
2024-12-07 18:24:14.641607400,7.220607421875,0.208389550447464,-0.0167985782027244,-0.1148115843534469
2024-12-07 18:24:14.651581400,7.23058154296875,0.2366299778223037,-0.1616697460412979,-0.2110140174627304
2024-12-07 18:24:14.661555500,7.240555419921875,0.2266209870576858,-0.1215887367725372,-0.2857311964035034
2024-12-07 18:24:14.671529500,7.250529541015625,0.2157845944166183,0.0168639458715915,-0.2998166680335998
2024-12-07 18:24:14.681503500,7.26050341796875,0.1991632729768753,0.0899070352315902,-0.2588639557361603
2024-12-07 18:24:14.691476500,7.2704765625,0.1313549280166626,0.0515609793365001,-0.2251765727996826
2024-12-07 18:24:14.701450500,7.280450439453125,0.0180620849132537,-0.0844384878873825,-0.226068302989006
2024-12-07 18:24:14.711424500,7.290424560546875,-0.1027761846780777,-0.3239176571369171,-0.268382728099823
2024-12-07 18:24:14.721398500,7.3003984375,-0.2004931271076202,-0.6336485147476196,-0.3067449629306793
2024-12-07 18:24:14.731372500,7.31037255859375,-0.2568368315696716,-0.9581326246261596,-0.2980002164840698
2024-12-07 18:24:14.741346600,7.3203466796875,-0.3032504916191101,-1.2440719604492188,-0.2460897713899612
2024-12-07 18:24:14.751320600,7.330320556640625,-0.368261456489563,-1.4129973649978638,-0.1705140471458435
2024-12-07 18:24:14.761294600,7.340294677734375,-0.4627118110656738,-1.3370238542556765,-0.0982456430792808
2024-12-07 18:24:14.771268600,7.3502685546875,-0.5062915086746216,-1.0662437677383425,-0.0475153550505638
2024-12-07 18:24:14.781241300,7.360241455078125,-0.48722043633461,-0.7363071441650391,-0.0423465818166732
2024-12-07 18:24:14.791215400,7.37021533203125,-0.4211437106132507,-0.4435828328132629,-0.0923082754015922
2024-12-07 18:24:14.801189400,7.380189453125,-0.3340233862400055,-0.2440365552902221,-0.184967964887619
2024-12-07 18:24:14.811163400,7.390163330078125,-0.2795018255710602,-0.2175580859184265,-0.2882117927074432
2024-12-07 18:24:14.821137400,7.400137451171875,-0.3093866407871246,-0.3688982129096985,-0.3758747577667236
2024-12-07 18:24:14.831111400,7.410111328125,-0.3836731314659118,-0.7073609828948975,-0.4180136919021606
2024-12-07 18:24:14.841085400,7.42008544921875,-0.46262988448143,-1.0885828733444214,-0.4276252686977386
2024-12-07 18:24:14.851059500,7.4300595703125,-0.5530250668525696,-1.3548566102981567,-0.3912914991378784
2024-12-07 18:24:14.861033500,7.440033447265625,-0.6494979858398438,-1.4161508083343506,-0.3028092086315155
2024-12-07 18:24:14.871006500,7.45000634765625,-0.7169508337974548,-1.3258774280548096,-0.1686561852693557
2024-12-07 18:24:14.880980500,7.45998046875,-0.7175358533859253,-1.145925521850586,-0.0252859480679035
2024-12-07 18:24:14.890954500,7.46995458984375,-0.6391283869743347,-0.954890251159668,0.0602710284292697
2024-12-07 18:24:14.900929000,7.479928955078125,-0.5091712474822998,-0.7847103476524353,0.034058254212141
2024-12-07 18:24:14.910903000,7.489903076171875,-0.3628880381584167,-0.6256999373435974,-0.1047582179307937
2024-12-07 18:24:14.920877000,7.499876953125,-0.2345167100429535,-0.4951873123645782,-0.2922669053077698
2024-12-07 18:24:14.930850800,7.509850830078125,-0.129182830452919,-0.4617601335048675,-0.4440881013870239
2024-12-07 18:24:14.940824800,7.519824951171875,-0.0500414185225963,-0.5226917266845703,-0.5033119320869446
2024-12-07 18:24:14.950798800,7.529798828125,0.0278115663677454,-0.6164371371269226,-0.4856780469417572
2024-12-07 18:24:14.960771800,7.539771728515625,0.1019480749964714,-0.6671515107154846,-0.45000159740448
2024-12-07 18:24:14.970745900,7.549745849609375,0.1590952426195144,-0.6500260233879089,-0.4185547232627868
2024-12-07 18:24:14.980719900,7.559719970703125,0.1959982365369796,-0.5978739261627197,-0.3897409439086914
2024-12-07 18:24:14.990694000,7.56969384765625,0.2083680778741836,-0.5233514904975891,-0.357905775308609
2024-12-07 18:24:15.000668000,7.57966796875,0.2102429419755935,-0.3814105987548828,-0.3180204033851623
2024-12-07 18:24:15.010642000,7.589641845703125,0.1937422752380371,-0.2066420018672943,-0.2642647624015808
2024-12-07 18:24:15.020616000,7.599615966796875,0.135170504450798,-0.0466160289943218,-0.2098293602466583
2024-12-07 18:24:15.030589700,7.609589599609375,0.035485453903675,0.0782982110977172,-0.1595875024795532
2024-12-07 18:24:15.040563700,7.619563720703125,-0.0793433561921119,0.1594315022230148,-0.1013840436935424
2024-12-07 18:24:15.050537000,7.629536865234375,-0.1797240227460861,0.2173792272806167,-0.0486507937312126
2024-12-07 18:24:15.060511000,7.639510986328125,-0.2430325299501419,0.2264504730701446,-0.0252271816134452
2024-12-07 18:24:15.070485000,7.649485107421875,-0.2575829625129699,0.1653322577476501,-0.057737722992897
2024-12-07 18:24:15.080458800,7.659458740234375,-0.2408294528722763,0.0769031047821044,-0.1492440402507782
2024-12-07 18:24:15.090432800,7.669432861328125,-0.2119629085063934,-0.0238746367394924,-0.2667325735092163
2024-12-07 18:24:15.100406800,7.67940673828125,-0.1869757175445556,-0.1477886438369751,-0.3733308613300323
2024-12-07 18:24:15.110380800,7.689380859375,-0.157786950469017,-0.2600110471248626,-0.4539684355258941
2024-12-07 18:24:15.120354800,7.699354736328125,-0.1362755596637725,-0.3447321653366089,-0.4997341334819793
2024-12-07 18:24:15.130328000,7.709328125,-0.1135233789682388,-0.3794115781784057,-0.5080815553665161
2024-12-07 18:24:15.140301800,7.7193017578125,-0.1013715267181396,-0.4427401423454284,-0.4933549761772156
2024-12-07 18:24:15.150275800,7.72927587890625,-0.1012894958257675,-0.5609375834465027,-0.4839726388454437
2024-12-07 18:24:15.160249900,7.739249755859375,-0.1257872879505157,-0.6584628224372864,-0.4860260188579559
2024-12-07 18:24:15.170223900,7.749223876953125,-0.1535864323377609,-0.6891387104988098,-0.5036808848381042
2024-12-07 18:24:15.180198000,7.759197998046875,-0.148656889796257,-0.6463192105293274,-0.5357130169868469
2024-12-07 18:24:15.190172000,7.769171875,-0.1356662511825561,-0.5833027362823486,-0.5726960897445679
2024-12-07 18:24:15.200146000,7.77914599609375,-0.133507564663887,-0.5009660124778748,-0.5916014313697815
2024-12-07 18:24:15.210120000,7.789119873046875,-0.1583029329776764,-0.4525901973247528,-0.5693861246109009
2024-12-07 18:24:15.220092700,7.7990927734375,-0.218162402510643,-0.3785981237888336,-0.5002856254577637
2024-12-07 18:24:15.230066700,7.809066650390625,-0.2406171113252639,-0.2647351920604706,-0.4273813664913177
2024-12-07 18:24:15.240040700,7.819040771484375,-0.2815636396408081,-0.1356160342693328,-0.3250247240066528
2024-12-07 18:24:15.250014700,7.8290146484375,-0.3071587383747101,0.0077738761901855,-0.23381307721138
2024-12-07 18:24:15.259988700,7.83898876953125,-0.30426687002182,0.1246947199106216,-0.1813641190528869
2024-12-07 18:24:15.269962800,7.848962646484375,-0.2978774309158325,0.198659747838974,-0.1575669199228286
2024-12-07 18:24:15.279936800,7.858936767578125,-0.3018862903118133,0.2491996139287948,-0.1537250429391861
2024-12-07 18:24:15.289910800,7.868910888671875,-0.3213984668254852,0.2973671555519104,-0.1594367176294326
2024-12-07 18:24:15.299884800,7.878884765625,-0.3503269553184509,0.3589764237403869,-0.1614574342966079
2024-12-07 18:24:15.309857800,7.88885791015625,-0.3708484768867492,0.4031236469745636,-0.1469282954931259
2024-12-07 18:24:15.319831800,7.898831787109375,-0.3763506114482879,0.4159339368343353,-0.111305795609951
2024-12-07 18:24:15.329805800,7.908805908203125,-0.3589886426925659,0.3873361051082611,-0.0561448074877262
2024-12-07 18:24:15.339779800,7.91877978515625,-0.3268411159515381,0.3355181813240051,-0.0154604939743876
2024-12-07 18:24:15.349753900,7.92875390625,-0.2933925986289978,0.2639771401882171,-0.0102026145905256
2024-12-07 18:24:15.359727900,7.938727783203125,-0.2644314169883728,0.1776953935623169,-0.0521668083965778
2024-12-07 18:24:15.369702000,7.948701904296875,-0.2470348179340362,0.0904797911643982,-0.121831901371479
2024-12-07 18:24:15.379676000,7.958676025390625,-0.2369499057531356,0.0206313617527484,-0.1993765532970428
2024-12-07 18:24:15.389650000,7.96864990234375,-0.2321210652589798,-0.0226751007139682,-0.2629251778125763
2024-12-07 18:24:15.399623000,7.978622802734375,-0.2236090302467346,-0.0471363440155983,-0.288598895072937
2024-12-07 18:24:15.409597000,7.988596923828125,-0.2020326256752014,-0.0547394007444381,-0.2861839532852173
2024-12-07 18:24:15.419571000,7.998571044921875,-0.1589544117450714,-0.032397374510765,-0.2991231083869934
2024-12-07 18:24:15.429545000,8.008544921875,-0.1627624630928039,-0.0378315523266792,-0.2734483778476715
2024-12-07 18:24:15.439519000,8.01851904296875,-0.1549190729856491,-0.0133639778941869,-0.2364688962697982
2024-12-07 18:24:15.449493000,8.028492919921876,-0.1134605854749679,0.0147693883627653,-0.1865551322698593
2024-12-07 18:24:15.459467000,8.038467041015625,-0.0700140744447708,0.0771051123738288,-0.1207263842225074
2024-12-07 18:24:15.469441000,8.04844091796875,-0.0347122773528099,0.1510602980852127,-0.0423711277544498
2024-12-07 18:24:15.479413800,8.058413818359375,0.0253908205777406,0.2355021685361862,0.0064923646859824
2024-12-07 18:24:15.489387800,8.0683876953125,0.0907293483614921,0.2478270083665847,0.0664190798997879
2024-12-07 18:24:15.499361800,8.07836181640625,0.1428190171718597,0.2732525467872619,0.0965155661106109
2024-12-07 18:24:15.509335800,8.088335693359374,0.1888946294784546,0.297307550907135,0.0916265398263931
2024-12-07 18:24:15.519309800,8.098309814453126,0.2520842254161834,0.2247783541679382,0.0861803442239761
2024-12-07 18:24:15.529283800,8.108283935546876,0.2913570702075958,0.0934184715151786,0.1072273105382919
2024-12-07 18:24:15.539257900,8.1182578125,0.3458714187145233,-0.0493959262967109,0.1392544955015182
2024-12-07 18:24:15.549231900,8.12823193359375,0.4193011820316314,-0.193328857421875,0.1710670292377472
2024-12-07 18:24:15.559206000,8.138205810546875,0.4813444912433624,-0.402580589056015,0.2791891396045685
2024-12-07 18:24:15.569179000,8.148178955078125,0.5278611183166504,-0.5524598360061646,0.3948635458946228
2024-12-07 18:24:15.579153000,8.15815283203125,0.5420322418212891,-0.5897153615951538,0.4853067994117737
2024-12-07 18:24:15.589127000,8.168126953125,0.5555746555328369,-0.4542457163333893,0.5460843443870544
2024-12-07 18:24:15.599101000,8.178100830078124,0.5687806606292725,-0.197118803858757,0.6301578879356384
2024-12-07 18:24:15.609075000,8.188074951171876,0.5690304636955261,0.0501104220747947,0.7780277729034424
2024-12-07 18:24:15.619049000,8.198049072265626,0.5481818318367004,0.2123939543962478,0.9641277194023132
2024-12-07 18:24:15.629022700,8.208022705078125,0.5220311880111694,0.3533028662204742,1.1403815746307373
2024-12-07 18:24:15.638996700,8.217996826171875,0.5174883008003235,0.5440928936004639,1.2766993045806885
2024-12-07 18:24:15.648970800,8.227970703125,0.5511023998260498,0.818816602230072,1.376040816307068
2024-12-07 18:24:15.658944000,8.237944091796875,0.6081620454788208,1.2340428829193115,1.4344433546066284
2024-12-07 18:24:15.668918000,8.24791796875,0.7088838815689087,1.7705233097076416,1.462230563163757
2024-12-07 18:24:15.678891800,8.257891845703124,0.8546518683433533,2.267702579498291,1.492721676826477
2024-12-07 18:24:15.688865800,8.26786572265625,0.9934179782867432,2.521502494812012,1.5627751350402832
2024-12-07 18:24:15.698839800,8.27783984375,1.070356845855713,2.422571420669556,1.6880429983139038
2024-12-07 18:24:15.708813800,8.287813720703125,1.0539838075637815,2.013299465179444,1.8259316682815552
2024-12-07 18:24:15.718787800,8.297787841796875,0.9431717991828918,1.3532930612564087,1.8620964288711548
2024-12-07 18:24:15.728761900,8.307761962890625,0.7671869397163391,0.7094684839248657,1.7197906970977783
2024-12-07 18:24:15.738735900,8.31773583984375,0.6147374510765076,0.3303778767585754,1.4714672565460205
2024-12-07 18:24:15.748708900,8.327708984375,0.5333238244056702,0.2785892486572265,1.2125734090805054
2024-12-07 18:24:15.758683000,8.337682861328124,0.4919329583644867,0.5346566438674927,1.0181148052215576
2024-12-07 18:24:15.768657000,8.347656982421874,0.4738554358482361,0.981436252593994,0.9386029839515686
2024-12-07 18:24:15.778631000,8.357630859375,0.5016465783119202,1.3831384181976318,0.9206915497779846
2024-12-07 18:24:15.788605000,8.36760498046875,0.5365699529647827,1.6437604427337646,0.9095920324325562
2024-12-07 18:24:15.798579000,8.377578857421875,0.537600040435791,1.7631735801696775,0.8760191798210144
2024-12-07 18:24:15.808553000,8.387552978515625,0.5218261480331421,1.7382274866104126,0.7883199453353882
2024-12-07 18:24:15.818526700,8.397526611328125,0.5052052140235901,1.664161205291748,0.6534926891326904
2024-12-07 18:24:15.828499700,8.407499755859375,0.5040097236633301,1.5553559064865112,0.5106255412101746
2024-12-07 18:24:15.838473700,8.4174736328125,0.5099297165870667,1.4171608686447144,0.3585306107997894
2024-12-07 18:24:15.848447700,8.42744775390625,0.5041820406913757,1.2217180728912354,0.2269390374422073
2024-12-07 18:24:15.858421800,8.437421875,0.4697421193122864,0.9432860612869264,0.1328255832195282
2024-12-07 18:24:15.868395800,8.447395751953126,0.4216249287128448,0.6059495806694031,0.0655323043465614
2024-12-07 18:24:15.878369800,8.457369873046876,0.3889637887477875,0.2700636088848114,0.0122564658522605
2024-12-07 18:24:15.888343800,8.46734375,0.3741995096206665,-0.0322962440550327,-0.0429415442049503
2024-12-07 18:24:15.898317600,8.477317626953125,0.3480232357978821,-0.224326029419899,-0.1247476562857627
2024-12-07 18:24:15.908291600,8.48729150390625,0.3039375245571136,-0.289615273475647,-0.2401128709316253
2024-12-07 18:24:15.918264300,8.497264404296875,0.2515884041786194,-0.2546525299549103,-0.3479953706264496
2024-12-07 18:24:15.928238300,8.50723828125,0.2149038761854171,-0.2203208953142166,-0.4200916886329651
2024-12-07 18:24:15.938212400,8.51721240234375,0.1524726450443267,-0.2637335956096649,-0.4586979448795318
2024-12-07 18:24:15.948186400,8.527186279296876,0.0538832247257232,-0.2829139530658722,-0.5076172351837158
2024-12-07 18:24:15.958160400,8.537160400390626,-0.0564762204885482,-0.2759303748607635,-0.5790855884552002
2024-12-07 18:24:15.968134400,8.547134521484375,-0.1524000912904739,-0.2256237864494323,-0.6487544178962708
2024-12-07 18:24:15.978108400,8.5571083984375,-0.2318203896284103,-0.1899897903203964,-0.6822012662887573
2024-12-07 18:24:15.988082400,8.56708251953125,-0.3216064870357513,-0.1992543935775756,-0.6866194605827332
2024-12-07 18:24:15.998056400,8.577056396484375,-0.4333785474300384,-0.234935462474823,-0.6660935878753662
2024-12-07 18:24:16.008029400,8.587029541015625,-0.540215015411377,-0.3095132708549499,-0.5857007503509521
2024-12-07 18:24:16.018003500,8.59700341796875,-0.6081676483154297,-0.3493415117263794,-0.4915556907653808
2024-12-07 18:24:16.027977500,8.6069775390625,-0.6393455266952515,-0.3320413529872894,-0.431435614824295
2024-12-07 18:24:16.037951500,8.616951416015626,-0.6506503820419312,-0.3455348312854767,-0.380982756614685
2024-12-07 18:24:16.047925500,8.626925537109376,-0.6915552020072937,-0.39919513463974,-0.3246068358421325
2024-12-07 18:24:16.057899500,8.6368994140625,-0.7353931665420532,-0.4782195091247558,-0.2651173770427704
2024-12-07 18:24:16.067873500,8.64687353515625,-0.7369977235794067,-0.5507016777992249,-0.1931952685117721
2024-12-07 18:24:16.077847600,8.65684765625,-0.682435929775238,-0.5848070383071899,-0.1170044168829917
2024-12-07 18:24:16.087820500,8.666820556640625,-0.5857759714126587,-0.4974412322044372,-0.0904170125722885
2024-12-07 18:24:16.097794600,8.676794677734375,-0.4430689513683319,-0.2653227746486664,-0.1331024467945099
2024-12-07 18:24:16.107768600,8.6867685546875,-0.249824658036232,-0.0215772166848182,-0.212180495262146
2024-12-07 18:24:16.117742600,8.69674267578125,-0.0511536598205566,0.1168453097343444,-0.2622110545635223
2024-12-07 18:24:16.127716600,8.706716552734376,0.1061632633209228,0.0484561286866664,-0.2517195343971252
2024-12-07 18:24:16.137690600,8.716690673828126,0.191628560423851,-0.1872269362211227,-0.2129154801368713
2024-12-07 18:24:16.147664600,8.72666455078125,0.1964155882596969,-0.4514780044555664,-0.2183323502540588
2024-12-07 18:24:16.157638700,8.736638671875,0.14505036175251,-0.5970925688743591,-0.299702376127243
2024-12-07 18:24:16.167612700,8.74661279296875,0.0806985422968864,-0.5593814253807068,-0.4089875817298889
2024-12-07 18:24:16.177585700,8.756585693359375,0.0446889586746692,-0.3559771478176117,-0.4938012659549713
2024-12-07 18:24:16.187559700,8.7665595703125,0.0379807204008102,-0.1194900572299957,-0.5317230820655823
2024-12-07 18:24:16.197533400,8.776533447265624,0.0375804379582405,-0.000250780256465,-0.502621591091156
2024-12-07 18:24:16.207507500,8.786507568359376,0.0261890292167663,-0.094078205525875,-0.4339434504508972
2024-12-07 18:24:16.217481500,8.7964814453125,0.004912038333714,-0.4185051023960113,-0.3355445563793182
2024-12-07 18:24:16.227455500,8.80645556640625,-0.0164454486221075,-0.881443440914154,-0.2007044553756714
2024-12-07 18:24:16.237429500,8.816429443359375,-0.0725667029619216,-1.3217085599899292,-0.0524435341358184
2024-12-07 18:24:16.247403300,8.8264033203125,-0.2230944335460662,-1.594279646873474,0.0881282314658165
2024-12-07 18:24:16.257376500,8.83637646484375,-0.3909642696380615,-1.6414244174957275,0.2157262414693832
2024-12-07 18:24:16.267350500,8.8463505859375,-0.4664680957794189,-1.5066564083099363,0.3240340650081634
2024-12-07 18:24:16.277324500,8.856324462890624,-0.4571304619312286,-1.2192418575286863,0.3278144299983978
2024-12-07 18:24:16.287298600,8.866298583984374,-0.4113248884677887,-0.8307532072067261,0.1656119376420974
2024-12-07 18:24:16.297272300,8.876272216796876,-0.3623773455619812,-0.5021927356719971,-0.1041930466890335
2024-12-07 18:24:16.307246300,8.886246337890626,-0.3452625572681427,-0.3536253273487091,-0.3466208577156067
2024-12-07 18:24:16.317220400,8.896220458984375,-0.3600568473339081,-0.4224084317684173,-0.4663287997245788
2024-12-07 18:24:16.327194400,8.9061943359375,-0.385833591222763,-0.6164074540138245,-0.4803599119186401
2024-12-07 18:24:16.337168400,8.91616845703125,-0.4146594107151031,-0.8360618948936462,-0.4403198659420013
2024-12-07 18:24:16.347141600,8.9261416015625,-0.4749525785446167,-0.941054344177246,-0.3912311494350433
2024-12-07 18:24:16.357115400,8.936115478515624,-0.568746030330658,-0.8704788088798523,-0.3578568994998932
2024-12-07 18:24:16.367089400,8.94608935546875,-0.6567059755325317,-0.651885986328125,-0.3328684568405151
2024-12-07 18:24:16.377063400,8.9560634765625,-0.6756008267402649,-0.3878934383392334,-0.3280441761016845
2024-12-07 18:24:16.387037400,8.966037353515626,-0.5921701192855835,-0.1858846843242645,-0.3624120056629181
2024-12-07 18:24:16.397011500,8.976011474609376,-0.4584853947162628,-0.1024862900376319,-0.4367819726467132
2024-12-07 18:24:16.406985500,8.9859853515625,-0.3298776149749756,-0.1399862617254257,-0.505424976348877
2024-12-07 18:24:16.416959500,8.99595947265625,-0.2263077646493911,-0.3193710446357727,-0.5160342454910278
2024-12-07 18:24:16.426933500,9.00593359375,-0.1531573981046676,-0.5721707940101624,-0.4546433091163635
2024-12-07 18:24:16.436906500,9.015906494140625,-0.0962145775556564,-0.7706026434898376,-0.3760626912117004
2024-12-07 18:24:16.446880500,9.025880615234374,-0.0532769635319709,-0.8426720499992371,-0.3249608874320984
2024-12-07 18:24:16.456854500,9.0358544921875,-0.0267432201653718,-0.8400987982749939,-0.3095681369304657
2024-12-07 18:24:16.466828500,9.04582861328125,-0.0223929472267627,-0.811991274356842,-0.3194386065006256
2024-12-07 18:24:16.476802600,9.055802490234376,-0.0285119526088237,-0.7666619420051575,-0.332999974489212
2024-12-07 18:24:16.486776600,9.065776611328126,-0.0342822223901748,-0.7124251127243042,-0.3244965076446533
2024-12-07 18:24:16.496750600,9.07575048828125,-0.0278582982718944,-0.6134347915649414,-0.3079741597175598
2024-12-07 18:24:16.506724600,9.085724609375,-0.0082302680239081,-0.4927043914794922,-0.2989124953746795
2024-12-07 18:24:16.516698600,9.09569873046875,-0.0008916743099689,-0.3560879826545715,-0.2880653738975525
2024-12-07 18:24:16.526671400,9.10567138671875,-0.0125880111008882,-0.2270000278949737,-0.2640673518180847
2024-12-07 18:24:16.536645400,9.115645263671874,-0.0283201448619365,-0.1347360163927078,-0.2309909015893936
2024-12-07 18:24:16.546619400,9.125619384765624,-0.0581270419061183,-0.1091222539544105,-0.1867938786745071
2024-12-07 18:24:16.556593400,9.135593505859376,-0.0753972977399826,-0.0682603567838668,-0.1635476052761078
2024-12-07 18:24:16.566567400,9.1455673828125,-0.0645046979188919,-0.0522646158933639,-0.1705368161201477
2024-12-07 18:24:16.576541400,9.15554150390625,-0.0349035374820232,-0.0849073901772499,-0.208163782954216
2024-12-07 18:24:16.586515500,9.165515380859375,-0.0152784390375018,-0.1599323600530624,-0.2809093296527862
2024-12-07 18:24:16.596489500,9.175489501953123,-0.0052649360150098,-0.2733600735664367,-0.3661234378814697
2024-12-07 18:24:16.606462500,9.18546240234375,-0.0009226517286151,-0.3751314282417297,-0.4357661604881286
2024-12-07 18:24:16.616436500,9.1954365234375,-0.0089416410773992,-0.4496843218803406,-0.4789131581783294
2024-12-07 18:24:16.626410500,9.205410400390624,-0.0083530824631452,-0.5094373822212219,-0.5109826922416687
2024-12-07 18:24:16.636384500,9.215384521484374,-0.0539685934782028,-0.6011843681335449,-0.5008456110954285
2024-12-07 18:24:16.646358500,9.225358642578126,-0.1059090197086334,-0.6544066071510315,-0.4827558100223541
2024-12-07 18:24:16.656332500,9.23533251953125,-0.1161054149270057,-0.6554458737373352,-0.4778156876564026
2024-12-07 18:24:16.666306600,9.245306640625,-0.1627405732870102,-0.6647616028785706,-0.4562989473342895
2024-12-07 18:24:16.676280600,9.255280517578123,-0.2134711891412735,-0.6428213119506836,-0.4300763309001922
2024-12-07 18:24:16.686254600,9.265254638671877,-0.2281800955533981,-0.5995910167694092,-0.4092386960983276
2024-12-07 18:24:16.696227600,9.2752275390625,-0.2248715907335281,-0.5630038380622864,-0.3893382847309112
2024-12-07 18:24:16.706201600,9.28520166015625,-0.2198989391326904,-0.5173583030700684,-0.382965087890625
2024-12-07 18:24:16.716175600,9.295175537109374,-0.2130493074655532,-0.4315473139286041,-0.3915179669857025
2024-12-07 18:24:16.726149600,9.305149658203124,-0.1996986120939254,-0.3217861950397491,-0.405332863330841
2024-12-07 18:24:16.736123600,9.31512353515625,-0.1752531230449676,-0.1711107641458511,-0.4292587637901306
2024-12-07 18:24:16.746097700,9.32509765625,-0.2050664126873016,-0.0402544774115085,-0.426800400018692
2024-12-07 18:24:16.756071700,9.33507177734375,-0.2428862899541854,0.0308594889938831,-0.3806078135967254
2024-12-07 18:24:16.766045700,9.345045654296875,-0.2486062198877334,0.0305723994970321,-0.3001188337802887
2024-12-07 18:24:16.776019500,9.35501953125,-0.2587720453739166,0.0085627045482397,-0.213843360543251
2024-12-07 18:24:16.785992400,9.364992431640625,-0.2814754843711853,0.013018705882132,-0.1465580612421035
2024-12-07 18:24:16.795966500,9.374966552734374,-0.305096685886383,0.0609419234097003,-0.120549701154232
2024-12-07 18:24:16.805940500,9.3849404296875,-0.3315024673938751,0.1365221738815307,-0.1223958060145378
2024-12-07 18:24:16.815914500,9.39491455078125,-0.3650089800357818,0.2075826525688171,-0.1254260092973709
2024-12-07 18:24:16.825888500,9.404888427734376,-0.3891630470752716,0.264747679233551,-0.1274878233671188
2024-12-07 18:24:16.835862300,9.4148623046875,-0.3842607140541076,0.3223008513450622,-0.128230333328247
2024-12-07 18:24:16.845836300,9.424836181640623,-0.353441834449768,0.3766618072986603,-0.1303283721208572
2024-12-07 18:24:16.855810300,9.434810302734377,-0.3130300641059875,0.4052359461784363,-0.134491428732872
2024-12-07 18:24:16.865784300,9.444784423828125,-0.2608188092708587,0.3836806118488312,-0.140098437666893
2024-12-07 18:24:16.875757600,9.454757568359376,-0.2083245664834976,0.3256621658802032,-0.141520544886589
2024-12-07 18:24:16.885731600,9.464731689453124,-0.1678437143564224,0.2601641118526459,-0.1554459482431411
2024-12-07 18:24:16.895705300,9.474705322265624,-0.1431068331003189,0.2265816628932953,-0.1869384199380874
2024-12-07 18:24:16.905679400,9.484679443359376,-0.1360947340726852,0.2086673825979232,-0.2230599373579025
2024-12-07 18:24:16.915653400,9.4946533203125,-0.1042087525129318,0.2265682369470596,-0.2666950225830078
2024-12-07 18:24:16.925627400,9.50462744140625,-0.0789169818162918,0.2386693805456161,-0.2857462167739868
2024-12-07 18:24:16.935601400,9.514601318359375,-0.1125363260507583,0.2191021591424942,-0.2165969461202621
2024-12-07 18:24:16.945575400,9.524575439453123,-0.1518573611974716,0.204318955540657,-0.1095083206892013
2024-12-07 18:24:16.955549400,9.534549560546877,-0.1426326781511306,0.2089625746011734,-0.0154649000614881
2024-12-07 18:24:16.965522400,9.5445224609375,-0.1065191328525543,0.208991602063179,0.0650555118918418
2024-12-07 18:24:16.975496400,9.554496337890624,-0.0577264614403247,0.1752776503562927,0.1237450912594795
2024-12-07 18:24:16.985470500,9.564470458984376,0.0069987392053008,0.1080253720283508,0.1579033285379409
2024-12-07 18:24:16.995444500,9.574444580078126,0.0955403968691825,0.0195641629397869,0.1718000471591949
2024-12-07 18:24:17.005418500,9.58441845703125,0.2111831158399582,-0.0416243560612201,0.1680439263582229
2024-12-07 18:24:17.015392500,9.594392578125,0.3290994763374328,-0.1033376678824424,0.163506731390953
2024-12-07 18:24:17.025366500,9.604366455078123,0.4049316644668579,-0.1316601336002349,0.2000455558300018
2024-12-07 18:24:17.035340500,9.614340576171877,0.4386384487152099,-0.1091445833444595,0.2595568895339966
2024-12-07 18:24:17.045313500,9.6243134765625,0.4434148073196411,-0.056048609316349,0.3406573235988617
2024-12-07 18:24:17.055287600,9.63428759765625,0.447112113237381,0.0227269530296325,0.4225706756114959
2024-12-07 18:24:17.065261600,9.644261474609374,0.4316548705101013,0.1303495466709137,0.5257719159126282
2024-12-07 18:24:17.075235600,9.654235595703126,0.4054036438465118,0.2756513953208923,0.6332831382751465
2024-12-07 18:24:17.085209300,9.664209228515626,0.3711274266242981,0.4430073797702789,0.7454488277435303
2024-12-07 18:24:17.095183400,9.674183349609375,0.3331879675388336,0.5596659183502197,0.8678127527236938
2024-12-07 18:24:17.105157400,9.684157470703123,0.3108341991901397,0.6122511029243469,0.9832186698913574
2024-12-07 18:24:17.115131400,9.69413134765625,0.3034437894821167,0.6635068655014038,1.0834736824035645
2024-12-07 18:24:17.125105400,9.70410546875,0.3126221001148224,0.7582597136497498,1.1673494577407837
2024-12-07 18:24:17.135078400,9.714078369140625,0.346025139093399,0.9474733471870422,1.2345657348632812
2024-12-07 18:24:17.145052400,9.724052490234374,0.3998265862464905,1.2317087650299072,1.3033416271209717
2024-12-07 18:24:17.155026400,9.7340263671875,0.4640852212905884,1.5851672887802124,1.3701839447021484
2024-12-07 18:24:17.165000400,9.74400048828125,0.5347146391868591,1.954403162002564,1.4145429134368896
2024-12-07 18:24:17.174974500,9.753974365234376,0.6127752065658569,2.2900609970092773,1.4328147172927856
2024-12-07 18:24:17.184948500,9.763948486328124,0.7221355438232422,2.487369537353516,1.4448479413986206
2024-12-07 18:24:17.194922500,9.773922607421875,0.8475309014320374,2.5145528316497803,1.499488353729248
2024-12-07 18:24:17.204896500,9.783896484375,0.9147512316703796,2.2853498458862305,1.591449737548828
2024-12-07 18:24:17.214870500,9.79387060546875,0.8636872172355652,1.8458478450775144,1.619018793106079
2024-12-07 18:24:17.224843500,9.803843505859374,0.7460076808929443,1.3482228517532349,1.5208269357681274
2024-12-07 18:24:17.234817500,9.813817626953124,0.6298103332519531,0.9568209648132324,1.3286508321762085
2024-12-07 18:24:17.244791600,9.82379150390625,0.5326302647590637,0.7459760904312134,1.118287205696106
2024-12-07 18:24:17.254765600,9.833765625,0.4526847600936889,0.716905415058136,0.9273472428321838
2024-12-07 18:24:17.264739600,9.843739501953126,0.3804803192615509,0.7640060782432556,0.786724328994751
2024-12-07 18:24:17.274713600,9.853713623046875,0.3307453989982605,0.7880064249038696,0.6974461674690247
2024-12-07 18:24:17.284687600,9.8636875,0.3405799269676208,0.7875717878341675,0.6219823360443115
2024-12-07 18:24:17.294661600,9.87366162109375,0.3621459603309631,0.74119633436203,0.5468482971191406
2024-12-07 18:24:17.304635600,9.8836357421875,0.3539285063743591,0.6930623650550842,0.4427945911884308
2024-12-07 18:24:17.314608600,9.893608642578124,0.2999211847782135,0.7242319583892822,0.3188056647777557
2024-12-07 18:24:17.324582700,9.903582763671874,0.2517813444137573,0.75002121925354,0.2192151546478271
2024-12-07 18:24:17.334556700,9.913556640625,0.2300525158643722,0.7881192564964294,0.1196053773164749
2024-12-07 18:24:17.344530700,9.92353076171875,0.2224467992782592,0.8025216460227966,0.0124269975349307
2024-12-07 18:24:17.354504700,9.933504638671875,0.223026841878891,0.7642307281494141,-0.1077434048056602
2024-12-07 18:24:17.364478500,9.943478515625,0.2449433207511901,0.6606585383415222,-0.2471007704734802
2024-12-07 18:24:17.374452500,9.953452392578123,0.2862617075443268,0.4521243870258331,-0.4035975039005279
2024-12-07 18:24:17.384426500,9.963426513671877,0.3364444673061371,0.1749138236045837,-0.5349323749542236
2024-12-07 18:24:17.394399500,9.9733994140625,0.3988675773143768,-0.0804216265678405,-0.6046750545501709
2024-12-07 18:24:17.404373500,9.98337353515625,0.4099271595478058,-0.301699161529541,-0.6329527497291565
2024-12-07 18:24:17.414347500,9.993347412109374,0.3687289953231811,-0.4410936534404754,-0.6585308313369751
2024-12-07 18:24:17.424321500,10.003321533203126,0.2872900366783142,-0.536124587059021,-0.6827237606048584
2024-12-07 18:24:17.434295300,10.01329541015625,0.1879338771104812,-0.6108039617538452,-0.6938894391059875
2024-12-07 18:24:17.444269300,10.023269287109375,0.1103304326534271,-0.6230579614639282,-0.6883684396743774
2024-12-07 18:24:17.454243300,10.033243408203123,0.0384677425026893,-0.6365481019020081,-0.648944079875946
2024-12-07 18:24:17.464217300,10.04321728515625,-0.0242811292409896,-0.5919100642204285,-0.6112601161003113
2024-12-07 18:24:17.474191400,10.05319140625,-0.0766601264476776,-0.4493121802806854,-0.5943198204040527
2024-12-07 18:24:17.484164400,10.063164306640624,-0.1430503278970718,-0.2535035312175751,-0.5935040712356567
2024-12-07 18:24:17.494138400,10.073138427734374,-0.2297555208206176,-0.1159191727638244,-0.569692850112915
2024-12-07 18:24:17.504112400,10.0831123046875,-0.3116732835769653,-0.0943291932344436,-0.5182011127471924
2024-12-07 18:24:17.514086400,10.09308642578125,-0.3724713325500488,-0.1001966819167137,-0.4773228764533996
2024-12-07 18:24:17.524060400,10.103060302734375,-0.4172984361648559,-0.0656474903225898,-0.4506891369819641
2024-12-07 18:24:17.534034400,10.113034423828124,-0.4450791776180267,-0.0704490691423416,-0.3545023798942566
2024-12-07 18:24:17.544008400,10.123008544921875,-0.4629327356815338,-0.0874368399381637,-0.2207994163036346
2024-12-07 18:24:17.553982500,10.132982421875,-0.4688199758529663,-0.0512973144650459,-0.1193634197115898
2024-12-07 18:24:17.563956500,10.14295654296875,-0.463645190000534,0.0137487966567277,-0.0549194514751434
2024-12-07 18:24:17.573929500,10.152929443359374,-0.4358907341957092,-0.0007570863235741,-0.0114422161132097
2024-12-07 18:24:17.583903500,10.162903564453124,-0.3720739185810089,-0.063205286860466,0.0138524863868951
2024-12-07 18:24:17.593877500,10.17287744140625,-0.2790510654449463,-0.0909632071852684,0.0233763493597507
2024-12-07 18:24:17.603851500,10.1828515625,-0.1722372621297836,-0.0402451641857624,0.0051281051710247
2024-12-07 18:24:17.613825500,10.192825439453124,-0.0568710416555404,-0.0207554828375577,-0.0542566701769828
2024-12-07 18:24:17.623799600,10.202799560546875,0.0427839122712612,-0.1606723815202713,-0.1286275684833526
2024-12-07 18:24:17.633773600,10.212773681640623,0.0936377942562103,-0.3570729792118072,-0.2270187139511108
2024-12-07 18:24:17.643747600,10.22274755859375,0.1032480746507644,-0.4616696834564209,-0.3510173559188843
2024-12-07 18:24:17.653721600,10.2327216796875,0.1059889942407608,-0.3648193478584289,-0.4689173102378845
2024-12-07 18:24:17.663694300,10.2426943359375,0.1202443614602088,-0.1060724854469299,-0.534860372543335
2024-12-07 18:24:17.673668400,10.25266845703125,0.1413843631744384,0.2230273783206939,-0.5292807221412659
2024-12-07 18:24:17.683642400,10.262642333984376,0.1550085544586181,0.5183205008506775,-0.4898739457130432
2024-12-07 18:24:17.693616400,10.272616455078126,0.1456734389066696,0.6995459794998169,-0.4369166493415832
2024-12-07 18:24:17.703590400,10.28259033203125,0.0987560078501701,0.6802164912223816,-0.3684987127780914
2024-12-07 18:24:17.713564400,10.292564453125,0.0169792249798774,0.4158956408500671,-0.2936970293521881
2024-12-07 18:24:17.723538400,10.302538330078123,-0.0859157294034957,-0.0609361641108989,-0.2302599847316742
2024-12-07 18:24:17.733512400,10.312512451171877,-0.1899656802415847,-0.6354822516441345,-0.1977569758892059
2024-12-07 18:24:17.743485400,10.3224853515625,-0.283465027809143,-1.1742687225341797,-0.1949377506971359
2024-12-07 18:24:17.753459500,10.33245947265625,-0.3641370832920074,-1.5688691139221191,-0.2254281640052795
2024-12-07 18:24:17.763433500,10.34243359375,-0.4575865864753723,-1.7301898002624512,-0.2536206543445587
2024-12-07 18:24:17.773407500,10.352407470703126,-0.5662761926651001,-1.6037721633911133,-0.2811971306800842
2024-12-07 18:24:17.783381500,10.362381591796876,-0.627699077129364,-1.148995876312256,-0.2592116892337799
2024-12-07 18:24:17.793355500,10.37235546875,-0.5979199409484863,-0.5150148272514343,-0.1527628004550933
2024-12-07 18:24:17.803329500,10.38232958984375,-0.510974645614624,-0.0079806558787822,0.007187717128545
2024-12-07 18:24:17.813303600,10.392303466796877,-0.4125897586345672,0.1978433579206466,0.1632962822914123
2024-12-07 18:24:17.823277600,10.402277587890625,-0.3447872698307037,0.1464209109544754,0.2510136067867279
2024-12-07 18:24:17.833250600,10.41225048828125,-0.3201151490211487,-0.0878744348883628,0.2428087741136551
2024-12-07 18:24:17.843224600,10.422224609375,-0.344221830368042,-0.4215642511844635,0.1476990282535553
2024-12-07 18:24:17.853198600,10.432198486328126,-0.3955375850200653,-0.8076556324958801,0.0163738019764423
2024-12-07 18:24:17.863172600,10.442172607421876,-0.4437951147556305,-1.1431989669799805,-0.1257782727479934
2024-12-07 18:24:17.873146600,10.452146728515626,-0.4817485213279724,-1.3080480098724363,-0.2650306820869446
2024-12-07 18:24:17.883120600,10.46212060546875,-0.5010727047920227,-1.2471375465393066,-0.3797540664672851
2024-12-07 18:24:17.893094700,10.4720947265625,-0.4869473874568939,-1.0277719497680664,-0.4238790869712829
2024-12-07 18:24:17.903069000,10.48206884765625,-0.4460151493549347,-0.7316766381263733,-0.3751538693904876
2024-12-07 18:24:17.913043000,10.49204296875,-0.380001038312912,-0.4715800583362579,-0.2522783577442169
2024-12-07 18:24:17.923016200,10.50201611328125,-0.2878817617893219,-0.3160727620124817,-0.1167373210191726
2024-12-07 18:24:17.932990000,10.511989990234374,-0.1769518703222274,-0.2900699377059936,-0.031533770263195
2024-12-07 18:24:17.942964000,10.5219638671875,-0.0961928367614746,-0.3747518062591553,-0.028776865452528
2024-12-07 18:24:17.952938000,10.53193798828125,-0.0665186420083046,-0.4952267706394195,-0.1082925498485565
2024-12-07 18:24:17.962912000,10.541912109375,-0.0639239251613617,-0.5639892816543579,-0.2272825837135315
2024-12-07 18:24:17.972886000,10.551885986328124,-0.0515630953013896,-0.5640853643417358,-0.3140259385108948
2024-12-07 18:24:17.982860000,10.561860107421875,-0.021454194560647,-0.508117139339447,-0.3306232690811157
2024-12-07 18:24:17.992834000,10.571833984375,0.0159254018217325,-0.4152713716030121,-0.2958466708660126
2024-12-07 18:24:18.002808000,10.58180810546875,0.042485374957323,-0.2983713746070862,-0.2475411742925644
2024-12-07 18:24:18.012781000,10.591781005859374,0.0468011647462844,-0.165748730301857,-0.216441348195076
2024-12-07 18:24:18.022755000,10.601755126953124,0.0368507951498031,-0.0398699082434177,-0.1958862692117691
2024-12-07 18:24:18.032728800,10.611728759765626,0.0135826859623193,0.0298250559717416,-0.1817055642604828
2024-12-07 18:24:18.042702800,10.621702880859376,-0.0187353063374757,0.0922186598181724,-0.1589187532663345
2024-12-07 18:24:18.052676900,10.6316767578125,-0.0577217489480972,0.1592305451631546,-0.1267367452383041
2024-12-07 18:24:18.062651000,10.64165087890625,-0.0798733830451965,0.2459356188774109,-0.0935212597250938
2024-12-07 18:24:18.072625000,10.651625,-0.0722179114818573,0.3244845867156982,-0.0684683248400688
2024-12-07 18:24:18.082599000,10.661598876953123,-0.0543020293116569,0.3860792517662048,-0.0754953399300575
2024-12-07 18:24:18.092573000,10.671572998046877,-0.0407309234142303,0.4292290806770324,-0.1300677359104156
2024-12-07 18:24:18.102546000,10.6815458984375,-0.034036535769701,0.4024222195148468,-0.2238368391990661
2024-12-07 18:24:18.112520000,10.69152001953125,-0.0319874882698059,0.3339561223983764,-0.3137340545654297
2024-12-07 18:24:18.122494000,10.701493896484376,-0.0310726910829544,0.2497544288635254,-0.3739904761314392
2024-12-07 18:24:18.132468000,10.711468017578126,-0.0256643984466791,0.1578573733568191,-0.3966829180717468
2024-12-07 18:24:18.142442000,10.72144189453125,-0.0455004200339317,0.0683272257447242,-0.365921288728714
2024-12-07 18:24:18.152416000,10.731416015625,-0.0636053755879402,-0.021854568272829,-0.3209477365016937
2024-12-07 18:24:18.162390000,10.74139013671875,-0.0814722552895546,-0.1075023561716079,-0.2961891293525696
2024-12-07 18:24:18.172364000,10.751364013671877,-0.1317881345748901,-0.1999827027320861,-0.270419716835022
2024-12-07 18:24:18.182338000,10.761338134765625,-0.1765713095664978,-0.2387194484472274,-0.249619647860527
2024-12-07 18:24:18.192311000,10.77131103515625,-0.1970456093549728,-0.235519602894783,-0.2350471913814544
2024-12-07 18:24:18.202285000,10.78128515625,-0.2035535722970962,-0.1995195150375366,-0.2295349836349487
2024-12-07 18:24:18.212259000,10.791259033203126,-0.2064372450113296,-0.163826510310173,-0.2341323941946029
2024-12-07 18:24:18.222233000,10.801233154296876,-0.2008192986249923,-0.1473010629415512,-0.2372903823852539
2024-12-07 18:24:18.232207000,10.81120703125,-0.1918524354696273,-0.1362132579088211,-0.2460362017154693
2024-12-07 18:24:18.242181000,10.82118115234375,-0.1798796653747558,-0.1298155337572097,-0.2538243234157562
2024-12-07 18:24:18.252155100,10.831155029296877,-0.1636520028114318,-0.1200514882802963,-0.2682104110717773
2024-12-07 18:24:18.262129200,10.841129150390625,-0.1275243610143661,-0.0814135447144508,-0.3052874803543091
2024-12-07 18:24:18.272102100,10.85110205078125,-0.1328546553850174,-0.0650387704372406,-0.3158400952816009
2024-12-07 18:24:18.282076200,10.861076171875,-0.1463792473077774,-0.0229240749031305,-0.3042833209037781
2024-12-07 18:24:18.292050200,10.87105029296875,-0.1382043212652206,0.024409145116806,-0.2861278653144836
2024-12-07 18:24:18.302024200,10.881024169921876,-0.135505735874176,0.0529502406716346,-0.2551941871643066
2024-12-07 18:24:18.311998200,10.890998291015626,-0.1368577182292938,0.0448886044323444,-0.202699065208435
2024-12-07 18:24:18.321972200,10.90097216796875,-0.1437100321054458,0.0250904001295566,-0.1428210884332656
2024-12-07 18:24:18.331946200,10.9109462890625,-0.1479028314352035,0.0358860455453395,-0.1174706891179084
2024-12-07 18:24:18.341920300,10.920920166015623,-0.1984810531139373,0.0293136313557624,-0.089299239218235
2024-12-07 18:24:18.351894000,10.93089404296875,-0.2466976195573806,0.0145441349595785,-0.0636202692985534
2024-12-07 18:24:18.361867000,10.940866943359374,-0.2609681785106659,-0.014481390826404,-0.0432454869151115
2024-12-07 18:24:18.371841000,10.950841064453124,-0.2661702036857605,-0.0408374145627021,-0.0303772464394569
2024-12-07 18:24:18.381815000,10.96081494140625,-0.277937114238739,-0.0549684129655361,-0.0337064638733863
2024-12-07 18:24:18.391789000,10.9707890625,-0.2836829423904419,-0.0736918523907661,-0.0557332709431648
2024-12-07 18:24:18.401763000,10.98076318359375,-0.282959371805191,-0.0829692408442497,-0.0955091789364814
2024-12-07 18:24:18.411737000,10.990737060546875,-0.2791430652141571,-0.0628185048699379,-0.1425199657678604
2024-12-07 18:24:18.421710800,11.0007109375,-0.2700150907039642,-0.0266881976276636,-0.1996554285287857
2024-12-07 18:24:18.431684900,11.010684814453125,-0.2623469829559326,0.0311657413840293,-0.2615408301353454
2024-12-07 18:24:18.441659000,11.020658935546876,-0.2552720308303833,0.1034114435315132,-0.3050659298896789
2024-12-07 18:24:18.451632000,11.030632080078124,-0.2460680454969406,0.2000610083341598,-0.3233871161937713
2024-12-07 18:24:18.461606100,11.040606201171874,-0.2208505868911743,0.3214945197105407,-0.3207378089427948
2024-12-07 18:24:18.471580000,11.050579833984376,-0.2110438048839569,0.3818519711494446,-0.25425785779953
2024-12-07 18:24:18.481554000,11.060553955078126,-0.2060133516788482,0.4239863753318786,-0.1747020483016967
2024-12-07 18:24:18.491528000,11.07052783203125,-0.2039187848567962,0.3970098793506622,-0.0979552865028381
2024-12-07 18:24:18.501502000,11.080501953125,-0.1968651413917541,0.3458745181560516,-0.0561886578798294
2024-12-07 18:24:18.511476000,11.09047607421875,-0.188344344496727,0.2870114743709564,-0.0480029582977294
2024-12-07 18:24:18.521450000,11.100449951171877,-0.1845259070396423,0.245417445898056,-0.0574158988893032
2024-12-07 18:24:18.531424000,11.110424072265625,-0.1716782450675964,0.2209316343069076,-0.0631568133831024
2024-12-07 18:24:18.541397000,11.12039697265625,-0.1431051939725875,0.2133107334375381,-0.0651310086250305
2024-12-07 18:24:18.551371000,11.13037109375,-0.1126109585165977,0.2110605686903,-0.0597419738769531
2024-12-07 18:24:18.561345000,11.140344970703126,-0.0665718242526054,0.231025218963623,-0.0715592131018638
2024-12-07 18:24:18.571319000,11.150319091796876,-0.0229753628373146,0.1613499820232391,-0.0501534603536129
2024-12-07 18:24:18.581293000,11.16029296875,-0.0157355591654777,0.1018861085176467,-0.0170050933957099
2024-12-07 18:24:18.591267000,11.17026708984375,-0.0128523241728544,0.0441325530409812,0.0088147409260272
2024-12-07 18:24:18.601241000,11.180240966796877,0.0005130162462592,-0.0405338630080223,0.0392674542963504
2024-12-07 18:24:18.611215000,11.190215087890625,0.0146357174962759,-0.1471682786941528,0.0812897309660911
2024-12-07 18:24:18.621189000,11.200189208984376,0.0605659261345863,-0.2358965575695037,0.1195447072386741
2024-12-07 18:24:18.631161900,11.210161865234374,0.14079050719738,-0.2701872885227203,0.1395455300807953
2024-12-07 18:24:18.641135900,11.220135986328126,0.238135427236557,-0.2925330698490143,0.1466899812221527
2024-12-07 18:24:18.651110000,11.23010986328125,0.3793655335903168,-0.2871931493282318,0.1323667019605636
2024-12-07 18:24:18.661084000,11.240083984375,0.468521237373352,-0.3013561069965362,0.1592864692211151
2024-12-07 18:24:18.671058000,11.250057861328123,0.4635389149188995,-0.2753146290779114,0.2230236083269119
2024-12-07 18:24:18.681032000,11.260031982421877,0.411537230014801,-0.2361067831516266,0.3058345913887024
2024-12-07 18:24:18.691006000,11.270005859375,0.4093977808952331,-0.163048431277275,0.3976881206035614
2024-12-07 18:24:18.700980000,11.27997998046875,0.4173057675361633,-0.0489935055375099,0.5311276912689209
2024-12-07 18:24:18.710954000,11.2899541015625,0.4013735055923462,0.0752408429980278,0.7043330073356628
2024-12-07 18:24:18.720927000,11.299927001953124,0.3837849199771881,0.202308788895607,0.8764485716819763
2024-12-07 18:24:18.730901000,11.30990087890625,0.3790032565593719,0.3311468064785003,1.0172301530838013
2024-12-07 18:24:18.740875000,11.319875,0.3862246870994568,0.4825232625007629,1.1218562126159668
2024-12-07 18:24:18.750849000,11.32984912109375,0.4113064110279083,0.651851236820221,1.206088900566101
