time,seconds_elapsed,z,y,x
2024-12-07 16:26:41.446979300,0.129979248046875,0.1590237617492675,-0.0507354736328125,0.0318366736173629
2024-12-07 16:26:41.456856000,0.13985595703125,0.1437306404113769,0.0192499160766601,-0.0394409298896789
2024-12-07 16:26:41.466766000,0.14976611328125,0.0749166011810302,0.1005096435546875,-0.1832659244537353
2024-12-07 16:26:41.476713000,0.159712890625,0.0395183563232421,0.1276359558105468,-0.2550128400325775
2024-12-07 16:26:41.486698200,0.1696982421875,0.0784121751785278,0.1315326690673828,-0.207674354314804
2024-12-07 16:26:41.496722200,0.17972216796875,0.1488908529281616,0.0601634979248046,-0.1115208864212036
2024-12-07 16:26:41.506783200,0.189783203125,0.0802830457687377,0.0607843399047851,-0.1342898309230804
2024-12-07 16:26:41.516878800,0.19987890625,-0.104420781135559,0.3265056610107422,-0.7203187942504883
2024-12-07 16:26:41.527004700,0.210004638671875,-0.2120065689086914,0.7809171676635742,-1.1968172788619995
2024-12-07 16:26:41.537155800,0.22015576171875,0.0744422674179077,0.1459064483642578,-0.187995970249176
2024-12-07 16:26:41.547326200,0.230326171875,0.2379548549652099,0.0892295837402343,-0.0315265953540802
2024-12-07 16:26:41.557509400,0.24050927734375,0.0115818977355957,0.076451301574707,-0.303746610879898
2024-12-07 16:26:41.567698700,0.25069873046875,-0.4217919111251831,1.396099090576172,1.372259497642517
2024-12-07 16:26:41.577872400,0.260872314453125,-0.357958972454071,1.110367774963379,0.386281669139862
2024-12-07 16:26:41.587900200,0.270900146484375,0.37935471534729,1.1550254821777344,-0.802078366279602
2024-12-07 16:26:41.597928000,0.280927978515625,0.4301480054855346,1.648756980895996,-1.1165510416030884
2024-12-07 16:26:41.607955700,0.290955810546875,0.1785293817520141,1.8763413429260256,-0.8335348963737488
2024-12-07 16:26:41.617983500,0.3009833984375,0.1938976049423217,1.185647964477539,-0.3556168675422668
2024-12-07 16:26:41.628011300,0.31101123046875,0.2201558351516723,0.2724285125732422,0.0626255273818969
2024-12-07 16:26:41.638039000,0.3210390625,-0.0113815069198608,-0.3866281509399414,0.455311119556427
2024-12-07 16:26:41.648066800,0.33106689453125,-0.1199858784675598,-0.912099838256836,0.8180971145629883
2024-12-07 16:26:41.658094600,0.341094482421875,-0.1035476326942443,-1.3736753463745115,1.15575909614563
2024-12-07 16:26:41.668122400,0.351122314453125,-0.0732001662254333,-0.8846559524536133,1.005805253982544
2024-12-07 16:26:41.678150100,0.361150146484375,-0.0396932363510131,-0.2674312591552734,0.671420693397522
2024-12-07 16:26:41.688178000,0.371177978515625,0.0716662406921386,0.0433292388916015,0.4160645604133606
2024-12-07 16:26:41.698205700,0.381205810546875,-0.0792402625083923,-0.0590896606445312,0.0593386888504028
2024-12-07 16:26:41.708233500,0.3912333984375,-0.1626490950584411,-0.2236185073852539,-0.2244567275047302
2024-12-07 16:26:41.718261200,0.40126123046875,-0.116005003452301,-0.2720975875854492,-0.2912356257438659
2024-12-07 16:26:41.728288800,0.411288818359375,-0.0260128378868103,-0.1331205368041992,-0.156467854976654
2024-12-07 16:26:41.738316500,0.421316650390625,0.1330165863037109,-0.2124137878417968,-0.0599154233932495
2024-12-07 16:26:41.748344300,0.43134423828125,0.2331961989402771,-0.5091581344604492,-0.0709509849548339
2024-12-07 16:26:41.758372000,0.4413720703125,0.3456076979637146,-0.6588497161865234,-0.1872100234031677
2024-12-07 16:26:41.768400000,0.45139990234375,0.4223232865333557,-0.3896923065185547,-0.3974305391311645
2024-12-07 16:26:41.778427600,0.461427734375,0.3345485329627991,0.0222673416137695,-0.7218718528747559
2024-12-07 16:26:41.788455400,0.471455322265625,0.4133618474006653,0.2419195175170898,-0.9689201712608336
2024-12-07 16:26:41.798483200,0.481483154296875,0.4074215888977051,0.0632162094116211,-1.0228946208953855
2024-12-07 16:26:41.808511000,0.491510986328125,0.4252668023109436,-0.6597385406494141,-0.7583680152893066
2024-12-07 16:26:41.818538800,0.501538818359375,0.3531456589698791,-0.590301513671875,-0.8749794363975525
2024-12-07 16:26:41.828566500,0.51156640625,0.4194380640983581,-0.5324029922485352,-0.7004223465919495
2024-12-07 16:26:41.838594300,0.52159423828125,0.4184420108795166,-0.672943115234375,-0.2126641273498535
2024-12-07 16:26:41.848622000,0.5316220703125,0.4400727748870849,-0.8995237350463867,0.2671648859977722
2024-12-07 16:26:41.858649900,0.54164990234375,0.3996396660804748,-0.7692174911499023,0.2687249779701233
2024-12-07 16:26:41.868677600,0.551677734375,0.3807575106620788,-0.5328569412231445,0.201395571231842
2024-12-07 16:26:41.878705400,0.561705322265625,0.458432137966156,-0.0699434280395507,0.0173900127410888
2024-12-07 16:26:41.888733200,0.571733154296875,0.3616512417793274,0.0793790817260742,-0.356103241443634
2024-12-07 16:26:41.898760700,0.5817607421875,0.1373806595802307,-0.3184375762939453,0.1593281030654907
2024-12-07 16:26:41.908788500,0.59178857421875,0.3662503957748413,-0.0680694580078125,0.1323235630989074
2024-12-07 16:26:41.918816300,0.601816162109375,0.0972341895103454,-0.0237798690795898,-0.1707438230514526
2024-12-07 16:26:41.928844000,0.611843994140625,-0.1079854965209961,-0.5767097473144531,0.2490198612213134
2024-12-07 16:26:41.938871800,0.621871826171875,0.1946917176246643,-0.0890884399414062,0.0243982672691345
2024-12-07 16:26:41.948899600,0.631899658203125,0.746038556098938,0.8520469665527344,-0.8782849907875061
2024-12-07 16:26:41.958927400,0.64192724609375,0.3108945488929748,-0.2604389190673828,0.2384775578975677
2024-12-07 16:26:41.968961000,0.6519609375,0.3270535469055176,0.3038349151611328,0.2536632418632507
2024-12-07 16:26:41.978988800,0.66198876953125,-0.3247615694999695,-0.2056446075439453,0.3507480919361114
2024-12-07 16:26:41.989016600,0.6720166015625,-0.0062488913536071,-1.231827735900879,-0.4591281116008758
2024-12-07 16:26:41.999044400,0.68204443359375,1.351291537284851,-1.401384353637695,-1.4982372522354126
2024-12-07 16:26:42.009072000,0.692072021484375,2.647282600402832,-1.3974056243896484,-1.332944393157959
2024-12-07 16:26:42.019099600,0.702099609375,0.9811365604400636,-1.3686199188232422,0.3932792246341705
2024-12-07 16:26:42.029127400,0.71212744140625,-1.2719519138336182,-1.4644222259521484,1.4084618091583252
2024-12-07 16:26:42.039155200,0.7221552734375,-2.2328128814697266,-1.473191261291504,1.8041929006576536
2024-12-07 16:26:42.049183000,0.732182861328125,-1.349132776260376,-1.353205680847168,1.9477250576019287
2024-12-07 16:26:42.059210800,0.742210693359375,-0.2362920343875885,-0.9136323928833008,0.8204646110534668
2024-12-07 16:26:42.069238500,0.752238525390625,-0.1141821444034576,-0.2820873260498047,0.0095831602811813
2024-12-07 16:26:42.079266300,0.762266357421875,-0.3633274435997009,0.1519279479980468,-0.4638670980930328
2024-12-07 16:26:42.089294000,0.772294189453125,-0.4881575107574463,0.7691383361816406,-0.7398240566253662
2024-12-07 16:26:42.099321900,0.78232177734375,-0.6628053188323975,1.4349212646484375,-0.7805165648460388
2024-12-07 16:26:42.109349600,0.792349609375,-0.9210327863693236,1.7377424240112305,-0.7628737688064575
2024-12-07 16:26:42.119377400,0.80237744140625,-0.9890553951263428,0.9688053131103516,0.0258575826883316
2024-12-07 16:26:42.129405200,0.8124052734375,-1.046768307685852,0.2336044311523437,0.4805736839771271
2024-12-07 16:26:42.139433000,0.822432861328125,-0.7561779618263245,0.1886415481567382,0.4033923745155334
2024-12-07 16:26:42.149460700,0.832460693359375,-0.420807808637619,0.0922870635986328,0.5394065380096436
2024-12-07 16:26:42.159487700,0.84248779296875,-0.2415625154972076,-0.2629737854003906,0.643503725528717
2024-12-07 16:26:42.169515500,0.852515625,-0.0752763748168945,-0.3916864395141601,0.456783652305603
2024-12-07 16:26:42.179543300,0.862543212890625,-0.0594339072704315,-0.3297786712646484,0.3579921424388885
2024-12-07 16:26:42.189571000,0.872571044921875,-0.1628012508153915,-0.2497892379760742,0.3505667150020599
2024-12-07 16:26:42.199598800,0.882598876953125,-0.2043893486261367,-0.2749319076538086,0.3102982342243194
2024-12-07 16:26:42.209626600,0.892626708984375,-0.2460291087627411,-0.2667303085327148,0.2707700729370117
2024-12-07 16:26:42.219654400,0.902654296875,-0.2914148867130279,-0.2349977493286132,0.4020038247108459
2024-12-07 16:26:42.229682200,0.91268212890625,-0.2086783796548843,-0.1705455780029297,0.5402684211730957
2024-12-07 16:26:42.239710000,0.9227099609375,-0.0858074724674224,-0.1305742263793945,0.3024356961250305
2024-12-07 16:26:42.249737700,0.93273779296875,-0.1617058962583542,-0.0059595108032226,0.4698663651943207
2024-12-07 16:26:42.259765500,0.942765625,-0.2998539805412292,0.0746240615844726,0.4666180610656738
2024-12-07 16:26:42.269793300,0.952793212890625,-0.4133522808551788,0.1401243209838867,0.3472384214401245
2024-12-07 16:26:42.279821000,0.962821044921875,-0.505790114402771,0.1954975128173828,0.2886658906936645
2024-12-07 16:26:42.289848800,0.972848876953125,-0.477954089641571,0.1271781921386718,0.1619705259799957
2024-12-07 16:26:42.299876600,0.982876708984375,-0.4397653937339782,0.0264806747436523,-0.0032019205391407
2024-12-07 16:26:42.309904400,0.992904296875,-0.4002655446529388,-0.0257215499877929,-0.1068249344825744
2024-12-07 16:26:42.319932000,1.002931884765625,-0.2794164717197418,-0.1010560989379882,-0.5122180581092834
2024-12-07 16:26:42.329959700,1.012959716796875,-0.3666747212409973,0.0234375,-0.4472396373748779
2024-12-07 16:26:42.339987500,1.022987548828125,-0.23347207903862,0.0992860794067382,-0.5529084205627441
2024-12-07 16:26:42.350015200,1.03301513671875,-0.1067877858877182,0.0795545578002929,-0.5246752500534058
2024-12-07 16:26:42.360043000,1.04304296875,-0.1813064068555832,-0.0395460128784179,-0.4028233289718628
2024-12-07 16:26:42.370070800,1.05307080078125,-0.1845024824142456,-0.1574821472167968,-0.2599843144416809
2024-12-07 16:26:42.380098600,1.0630986328125,-0.0600596666336059,-0.279026985168457,-0.0723690167069435
2024-12-07 16:26:42.390126300,1.073126220703125,0.1980142444372177,-0.1813240051269531,-0.1082140058279037
2024-12-07 16:26:42.400154000,1.083154052734375,-0.2311872541904449,-0.0798683166503906,-0.2113438695669174
2024-12-07 16:26:42.410182000,1.093181884765625,-0.0342568010091781,-0.007847785949707,-0.0702590942382812
2024-12-07 16:26:42.420209700,1.103209716796875,0.1161189824342727,0.1061458587646484,-0.0971951559185981
2024-12-07 16:26:42.430237400,1.113237548828125,-0.1529901623725891,0.1858606338500976,-0.0193581599742174
2024-12-07 16:26:42.440265200,1.12326513671875,-0.1350979655981063,0.2506122589111328,-0.0284844581037759
2024-12-07 16:26:42.450293000,1.13329296875,-0.2506629228591919,0.1487197875976562,-0.1047194823622703
2024-12-07 16:26:42.460320800,1.14332080078125,-0.3448795080184936,0.057265281677246,-0.1332801133394241
2024-12-07 16:26:42.470348500,1.1533486328125,-0.3981368541717529,-0.0048742294311523,-0.1099419519305229
2024-12-07 16:26:42.480376300,1.163376220703125,-0.3825457990169525,-0.0047588348388671,-0.0733044072985649
2024-12-07 16:26:42.490403800,1.17340380859375,-0.2757180035114288,-0.0094003677368164,-0.1132338717579841
2024-12-07 16:26:42.500431600,1.183431640625,-0.1457220911979675,-0.0235137939453125,-0.1575675755739212
2024-12-07 16:26:42.510459400,1.19345947265625,-0.1025472432374954,-0.0565185546875,-0.1873856633901596
2024-12-07 16:26:42.520487200,1.203487060546875,-0.0263472571969032,-0.0085601806640625,-0.2498771846294403
2024-12-07 16:26:42.530515000,1.213514892578125,0.1065657064318656,0.0437192916870117,-0.2973165214061737
2024-12-07 16:26:42.540542700,1.223542724609375,0.2390887290239334,0.0860481262207031,-0.3397636413574219
2024-12-07 16:26:42.550570500,1.233570556640625,0.3919203281402588,0.0610218048095703,-0.4167114198207855
2024-12-07 16:26:42.560598300,1.243598388671875,0.5614985227584839,-0.057769775390625,-0.5962056517601013
2024-12-07 16:26:42.570626000,1.2536259765625,0.5782363414764404,-0.1227827072143554,-0.7767165899276733
2024-12-07 16:26:42.580653800,1.26365380859375,0.6154119968414307,-0.2102327346801757,-0.9054911732673644
2024-12-07 16:26:42.590681600,1.273681640625,0.6122899651527405,-0.1314058303833007,-0.6259458065032959
2024-12-07 16:26:42.600709400,1.28370947265625,0.6652894616127014,-0.1433877944946289,-0.7217559814453125
2024-12-07 16:26:42.610737200,1.293737060546875,0.7542676329612732,-0.1174526214599609,-1.0624572038650513
2024-12-07 16:26:42.620765000,1.303764892578125,0.6654607653617859,0.0587387084960937,-0.1463735997676849
2024-12-07 16:26:42.630792700,1.313792724609375,0.7705875039100647,0.2178449630737304,0.0464867055416107
2024-12-07 16:26:42.640820500,1.323820556640625,0.8778710961341858,0.3318996429443359,0.3614921569824219
2024-12-07 16:26:42.650848000,1.333847900390625,0.9916682839393616,0.38751220703125,0.5874764323234558
2024-12-07 16:26:42.660875800,1.343875732421875,0.9943768382072448,0.3997468948364258,0.6253057718276978
2024-12-07 16:26:42.670903600,1.353903564453125,0.9450815320014954,0.3645896911621094,0.3702393770217895
2024-12-07 16:26:42.680931300,1.363931396484375,0.9153770804405212,0.2027578353881836,0.2040546238422393
2024-12-07 16:26:42.690959000,1.373958984375,0.896955132484436,-0.0366220474243164,-0.1966746896505355
2024-12-07 16:26:42.700987000,1.38398681640625,0.8772146701812744,-0.3756885528564453,-0.8356788754463196
2024-12-07 16:26:42.711014700,1.3940146484375,0.6181682348251343,-0.6667594909667969,-0.8229554295539856
2024-12-07 16:26:42.721042400,1.40404248046875,0.3141352534294128,-0.9766206741333008,-1.0807280540466309
2024-12-07 16:26:42.731070200,1.4140703125,0.1580152958631515,-1.1163864135742188,-1.7140600681304932
2024-12-07 16:26:42.741098000,1.424097900390625,-0.2858115136623382,-0.956589698791504,-1.4800329208374023
2024-12-07 16:26:42.751125800,1.434125732421875,-0.7526828646659851,-0.6837482452392578,-1.3225194215774536
2024-12-07 16:26:42.761153500,1.444153564453125,-0.9979101419448853,-0.4935531616210937,-1.1743888854980469
2024-12-07 16:26:42.771181300,1.454181396484375,-1.1744227409362793,-0.3997135162353515,-0.8377540111541748
2024-12-07 16:26:42.781209000,1.464208984375,-1.4862027168273926,-0.2256641387939453,-0.4439633190631866
2024-12-07 16:26:42.791236900,1.47423681640625,-1.7588491439819336,-0.0623188018798828,0.0770933032035827
2024-12-07 16:26:42.801264600,1.4842646484375,-1.7770434617996216,0.1188831329345703,0.6894935965538025
2024-12-07 16:26:42.811292400,1.49429248046875,-1.4663007259368896,0.3177728652954101,1.3101344108581543
2024-12-07 16:26:42.821320200,1.5043203125,-0.9688195586204528,0.434335708618164,1.7902382612228394
2024-12-07 16:26:42.831348000,1.514347900390625,-0.4971076250076294,0.46435546875,2.067931890487671
2024-12-07 16:26:42.841375700,1.524375732421875,-0.0005146414041519,0.3323230743408203,2.2158117294311523
2024-12-07 16:26:42.851403500,1.534403564453125,0.4476073980331421,0.0916223526000976,2.2198283672332764
2024-12-07 16:26:42.861431600,1.544431640625,0.7272962331771851,-0.1286296844482422,2.052086114883423
2024-12-07 16:26:42.871459300,1.554459228515625,0.8255687952041626,-0.2429742813110351,1.6430926322937012
2024-12-07 16:26:42.881487000,1.564487060546875,0.7795872092247009,-0.2948522567749023,1.2435978651046753
2024-12-07 16:26:42.891515000,1.574514892578125,0.5961066484451294,-0.2942018508911133,0.7637377977371216
2024-12-07 16:26:42.901542700,1.584542724609375,0.3398803472518921,-0.2651576995849609,0.4284268617630005
2024-12-07 16:26:42.911570400,1.5945703125,0.2454096674919128,-0.2126541137695312,0.1087244749069213
2024-12-07 16:26:42.921598200,1.60459814453125,0.2308005541563034,-0.1178121566772461,-0.1764413714408874
2024-12-07 16:26:42.931626200,1.614626220703125,0.295431524515152,0.0809612274169921,-0.4081682562828064
2024-12-07 16:26:42.941654000,1.624654052734375,0.2485620677471161,0.211674690246582,-0.4067533314228058
2024-12-07 16:26:42.951681800,1.634681884765625,0.5230700373649597,0.0369377136230468,-0.8336060643196106
2024-12-07 16:26:42.961709600,1.64470947265625,0.5495544672012329,-0.1460676193237304,-1.063713312149048
2024-12-07 16:26:42.971737300,1.6547373046875,0.3357161283493042,-0.223118782043457,-1.0083560943603516
2024-12-07 16:26:42.981765000,1.66476513671875,0.2319516390562057,-0.2900943756103515,-0.9745107293128968
2024-12-07 16:26:42.991793000,1.67479296875,0.2515121102333069,-0.3089513778686523,-0.8998594880104065
2024-12-07 16:26:43.001821000,1.684821044921875,0.2597619891166687,-0.2752361297607422,-0.7562915086746216
2024-12-07 16:26:43.011848700,1.6948486328125,0.2796418070793152,-0.2273530960083007,-0.6442558169364929
2024-12-07 16:26:43.021876500,1.70487646484375,0.3014560043811798,-0.2272815704345703,-0.4922750890254974
2024-12-07 16:26:43.031904300,1.714904296875,0.2959566116333008,-0.1652631759643554,-0.3954530954360962
2024-12-07 16:26:43.041932000,1.72493212890625,0.3671901822090149,-0.1558866500854492,-0.3052051663398742
2024-12-07 16:26:43.051959800,1.734959716796875,0.3910394310951233,-0.1560134887695312,-0.1830217838287353
2024-12-07 16:26:43.061987600,1.744987548828125,0.3114232420921325,-0.2512674331665039,0.1046385765075683
2024-12-07 16:26:43.072015400,1.755015380859375,0.3489019274711609,-0.4507274627685547,0.4081217646598816
2024-12-07 16:26:43.082043100,1.765043212890625,0.5446426272392273,-0.6873445510864258,0.583008348941803
2024-12-07 16:26:43.092071000,1.77507080078125,0.7669152021408081,-0.9373188018798828,0.7009142637252808
2024-12-07 16:26:43.102098700,1.7850986328125,0.9585270881652832,-1.1628437042236328,0.9858689904212952
2024-12-07 16:26:43.112126500,1.79512646484375,0.9399093985557556,-1.2266769409179688,1.47196364402771
2024-12-07 16:26:43.122154200,1.805154296875,0.6268874406814575,-1.163731575012207,1.7539145946502686
2024-12-07 16:26:43.132182000,1.81518212890625,0.3400962948799133,-0.8413925170898438,1.53330659866333
2024-12-07 16:26:43.142209800,1.825209716796875,0.2310981154441833,-0.4654455184936523,1.1929254531860352
2024-12-07 16:26:43.152237600,1.835237548828125,0.4040024280548095,-0.2264699935913086,0.8082928657531738
2024-12-07 16:26:43.162265300,1.845265380859375,0.3707064390182495,0.0191268920898437,0.482251226902008
2024-12-07 16:26:43.172293000,1.855293212890625,-0.0092597007751464,0.300053596496582,0.0928912758827209
2024-12-07 16:26:43.182321000,1.86532080078125,-0.8944045305252075,0.3931999206542969,-0.4767564833164215
2024-12-07 16:26:43.192348700,1.8753486328125,-1.810187816619873,0.3252630233764648,-1.4272013902664185
2024-12-07 16:26:43.202376400,1.88537646484375,-2.007351875305176,0.3225412368774414,-1.905128836631775
2024-12-07 16:26:43.212404200,1.895404296875,-1.5964051485061646,0.3703203201293945,-2.023158550262451
2024-12-07 16:26:43.222431700,1.905431640625,-1.339266300201416,0.344125747680664,-1.8863484859466555
2024-12-07 16:26:43.232459500,1.91545947265625,-0.6851675510406494,0.3674793243408203,-1.710331678390503
2024-12-07 16:26:43.242487300,1.9254873046875,-0.0004916191101074,0.1908493041992187,-0.864539623260498
2024-12-07 16:26:43.252515000,1.93551513671875,0.5436291694641113,0.2468338012695312,-0.357015311717987
2024-12-07 16:26:43.262542800,1.94554296875,-0.0877687931060791,0.2813358306884765,0.1280139982700348
2024-12-07 16:26:43.272570600,1.955570556640625,-0.8013489246368408,0.4100179672241211,0.1839308142662048
2024-12-07 16:26:43.282598400,1.965598388671875,-0.6843037605285645,0.6092987060546875,0.3432275950908661
2024-12-07 16:26:43.292626200,1.975626220703125,-0.3637090921401977,0.849675178527832,0.9070509672164916
2024-12-07 16:26:43.302654000,1.985654052734375,-0.1009664535522461,1.1731300354003906,1.5299445390701294
2024-12-07 16:26:43.312681700,1.995681640625,-0.4214733839035034,1.3177690505981443,2.250859260559082
2024-12-07 16:26:43.322709500,2.00570947265625,-0.9462090730667114,1.519880294799805,2.423825025558472
2024-12-07 16:26:43.332737300,2.0157373046875,-1.2697159051895142,1.6280498504638672,2.1940534114837646
2024-12-07 16:26:43.342765000,2.02576513671875,-1.3994548320770264,1.404754638671875,1.9394627809524536
2024-12-07 16:26:43.352792800,2.035792724609375,-1.0937702655792236,0.974639892578125,1.842821478843689
2024-12-07 16:26:43.362820600,2.045820556640625,-0.9137582778930664,0.5619192123413086,1.7709673643112185
2024-12-07 16:26:43.372848400,2.055848388671875,-0.8837807178497314,0.2995710372924804,1.3271420001983645
2024-12-07 16:26:43.382876200,2.065876220703125,-1.055319905281067,0.0536775588989257,0.9546738266944884
2024-12-07 16:26:43.392903700,2.075903564453125,-1.139850378036499,-0.0705175399780273,0.6407316327095032
2024-12-07 16:26:43.402931500,2.085931396484375,-1.090060472488403,-0.0877981185913086,0.3622633218765259
2024-12-07 16:26:43.412959200,2.095959228515625,-0.9888089895248412,-0.0465507507324218,0.2197576165199279
2024-12-07 16:26:43.422987000,2.105987060546875,-0.79990553855896,0.0715208053588867,0.2061808109283447
2024-12-07 16:26:43.433014800,2.116014892578125,-0.5640904903411865,0.151123046875,0.2433829307556152
2024-12-07 16:26:43.443042600,2.12604248046875,-0.344731330871582,0.1731033325195312,0.2592329382896423
2024-12-07 16:26:43.453070300,2.1360703125,-0.0895994901657104,0.1424951553344726,0.2258398532867431
2024-12-07 16:26:43.463098000,2.14609814453125,0.2856892347335815,0.0689287185668945,0.1067450642585754
2024-12-07 16:26:43.473126000,2.1561259765625,0.7493796348571777,0.0140581130981445,0.0505805611610412
2024-12-07 16:26:43.483153700,2.166153564453125,0.8939692974090576,0.020181655883789,0.0606623888015747
2024-12-07 16:26:43.493181400,2.176181396484375,0.8214577436447144,0.0011310577392578,0.1676848530769348
2024-12-07 16:26:43.503209200,2.186209228515625,0.8677339553833008,-0.0523014068603515,0.2373582124710083
2024-12-07 16:26:43.513237000,2.196237060546875,0.9814646244049072,-0.1302022933959961,0.4590516686439514
2024-12-07 16:26:43.523264800,2.2062646484375,1.0201539993286133,-0.0941877365112304,0.6207030415534973
2024-12-07 16:26:43.533292500,2.21629248046875,0.7845163345336914,0.0218744277954101,0.740066409111023
2024-12-07 16:26:43.543320300,2.2263203125,0.5727620124816895,0.1607646942138672,0.631939172744751
2024-12-07 16:26:43.553347800,2.236347900390625,0.438840389251709,0.2036771774291992,0.489676296710968
2024-12-07 16:26:43.563375600,2.246375732421875,0.4493281841278076,0.2369146347045898,0.366066575050354
2024-12-07 16:26:43.573403400,2.2564033203125,0.4035353660583496,0.2175989151000976,0.30740886926651
2024-12-07 16:26:43.583431200,2.26643115234375,0.3916678428649902,0.2649946212768554,-0.0491756200790405
2024-12-07 16:26:43.593459000,2.276458984375,0.5507025718688965,0.3070859909057617,-0.4490948021411896
2024-12-07 16:26:43.603486700,2.28648681640625,0.6305902004241943,0.2863750457763672,-0.7583712935447693
2024-12-07 16:26:43.613514500,2.296514404296875,0.5086891651153564,0.2654371261596679,-1.265891194343567
2024-12-07 16:26:43.623542300,2.306542236328125,0.4637491703033447,0.2399406433105468,-1.482095718383789
2024-12-07 16:26:43.633570000,2.316570068359375,0.3209595680236816,0.3057565689086914,-1.5883681774139404
2024-12-07 16:26:43.643597800,2.326597900390625,0.0545923709869384,0.4392805099487304,-1.4698399305343628
2024-12-07 16:26:43.653625600,2.33662548828125,-0.1185662746429443,0.6549282073974609,-1.2374730110168457
2024-12-07 16:26:43.663653400,2.3466533203125,-0.0649921894073486,0.8427600860595703,-0.9116868376731871
2024-12-07 16:26:43.673681200,2.35668115234375,0.127225637435913,0.9309816360473632,-0.5282802581787109
2024-12-07 16:26:43.683709000,2.366708984375,0.3372819423675537,0.8243122100830078,-0.1809496283531189
2024-12-07 16:26:43.693736700,2.37673681640625,0.6874823570251465,0.5374269485473633,0.0371170043945312
2024-12-07 16:26:43.703764500,2.386764404296875,0.9372570514678956,0.2470884323120117,0.0580855906009674
2024-12-07 16:26:43.713792300,2.396792236328125,1.1855199337005615,0.0959730148315429,-0.0645799189805984
2024-12-07 16:26:43.723819800,2.40681982421875,1.2211782932281494,0.1118459701538086,-0.3046283423900604
2024-12-07 16:26:43.733847600,2.41684765625,1.026567459106445,0.2512788772583008,-0.4352893531322479
2024-12-07 16:26:43.743875300,2.426875244140625,0.6673076152801514,0.4905681610107422,-0.4473319053649902
2024-12-07 16:26:43.753903000,2.436903076171875,0.385695219039917,0.72039794921875,-0.3080030977725982
2024-12-07 16:26:43.763931000,2.446930908203125,0.321021556854248,0.8886346817016602,-0.0098412632942199
2024-12-07 16:26:43.773958700,2.456958740234375,0.5720188617706299,0.9476423263549804,0.2007772177457809
2024-12-07 16:26:43.783986400,2.466986328125,0.958132266998291,0.8256072998046875,0.3229250311851501
2024-12-07 16:26:43.794014200,2.47701416015625,1.123426914215088,0.5560331344604492,0.4619209766387939
2024-12-07 16:26:43.804042000,2.4870419921875,1.053474187850952,0.2203750610351562,0.4434381425380707
2024-12-07 16:26:43.814069800,2.49706982421875,0.7788512706756592,-0.3381147384643554,0.4542356431484222
2024-12-07 16:26:43.824097500,2.50709765625,0.4934360980987549,-1.170400619506836,0.6590957641601562
2024-12-07 16:26:43.834125300,2.517125244140625,0.3573195934295654,-2.103102684020996,0.8625537157058716
2024-12-07 16:26:43.844153000,2.527153076171875,0.41973876953125,-2.782539367675781,0.8777375817298889
2024-12-07 16:26:43.854180900,2.537180908203125,0.4933845996856689,-2.9333086013793945,0.810911238193512
2024-12-07 16:26:43.864208600,2.547208740234375,0.5084613561630249,-2.4533472061157227,0.8665288090705872
2024-12-07 16:26:43.874236400,2.557236328125,0.2311280965805053,-1.4559965133666992,0.6274271011352539
2024-12-07 16:26:43.884264000,2.567263916015625,-0.3959081172943115,-0.3298425674438476,0.1417424082756042
2024-12-07 16:26:43.894291700,2.577291748046875,-1.0362403392791748,0.5481081008911133,0.1257032454013824
2024-12-07 16:26:43.904319500,2.587319580078125,-1.591636300086975,0.8644237518310547,0.5444211959838867
2024-12-07 16:26:43.914347300,2.59734716796875,-1.7680572271347046,0.9223031997680664,0.8219707012176514
2024-12-07 16:26:43.924375000,2.607375,-1.2223246097564695,0.8897953033447266,1.0399044752120972
2024-12-07 16:26:43.934402800,2.61740283203125,-0.3604339361190796,0.914325714111328,1.3319549560546875
2024-12-07 16:26:43.944430600,2.6274306640625,0.3926005363464355,0.8804483413696289,1.2981586456298828
2024-12-07 16:26:43.954458400,2.637458251953125,0.837404727935791,0.7640304565429688,1.3255534172058103
2024-12-07 16:26:43.964486100,2.647486083984375,0.8094128370285034,0.6221685409545898,1.4674906730651855
2024-12-07 16:26:43.974514000,2.657513916015625,0.5769480466842651,0.5265102386474609,1.2616050243377686
2024-12-07 16:26:43.984541700,2.667541748046875,0.3483761548995971,0.3820390701293945,0.7211684584617615
2024-12-07 16:26:43.994569500,2.677569580078125,0.3545746803283691,0.0559444427490234,-0.1064074635505676
2024-12-07 16:26:44.004597200,2.68759716796875,0.2281495332717895,-0.522028923034668,-1.162543535232544
2024-12-07 16:26:44.014625000,2.697625,-0.0957322120666503,-1.1355485916137695,-2.1222341060638428
2024-12-07 16:26:44.024652800,2.70765283203125,-0.4116536378860473,-1.4503374099731443,-2.6024112701416016
2024-12-07 16:26:44.034680600,2.7176806640625,-0.7487769722938538,-1.2911691665649414,-2.764145374298096
2024-12-07 16:26:44.044708400,2.727708251953125,-1.154561996459961,-0.7982082366943359,-2.748141527175904
2024-12-07 16:26:44.054736000,2.73773583984375,-1.371436595916748,-0.2208156585693359,-2.3596386909484863
2024-12-07 16:26:44.064763600,2.747763671875,-1.4809879064559937,0.1875715255737304,-1.4936537742614746
2024-12-07 16:26:44.074791400,2.75779150390625,-1.396687150001526,0.3890552520751953,-0.6062767505645752
2024-12-07 16:26:44.084819200,2.767819091796875,-1.2909929752349854,0.4938106536865234,0.0597169399261474
2024-12-07 16:26:44.094847000,2.777846923828125,-1.515052318572998,0.5357065200805664,0.417271077632904
2024-12-07 16:26:44.104874800,2.787874755859375,-1.9388341903686523,0.429779052734375,0.6067773699760437
2024-12-07 16:26:44.114902500,2.797902587890625,-2.260719060897827,0.1057281494140625,0.7781422734260559
2024-12-07 16:26:44.124930300,2.807930419921875,-2.3274083137512207,-0.3495454788208008,0.8717842102050781
2024-12-07 16:26:44.134958000,2.8179580078125,-2.127621650695801,-0.6160135269165039,0.6574347019195557
2024-12-07 16:26:44.144985900,2.82798583984375,-1.8603715896606443,-0.6993207931518555,0.3199053406715393
2024-12-07 16:26:44.155013600,2.838013671875,-1.5325812101364136,-0.643315315246582,0.0320311188697814
2024-12-07 16:26:44.165041400,2.84804150390625,-1.0707333087921145,-0.444101333618164,-0.2021320462226867
2024-12-07 16:26:44.175069200,2.858069091796875,-0.5087103843688965,-0.2218837738037109,-0.3434405028820038
2024-12-07 16:26:44.185097000,2.868096923828125,-0.1121295094490051,-0.0438013076782226,-0.320793479681015
2024-12-07 16:26:44.195124700,2.878124755859375,0.2058746814727783,0.0186872482299804,-0.2604016661643982
2024-12-07 16:26:44.205152500,2.888152587890625,0.4978938698768616,0.0040721893310546,-0.0635908246040344
2024-12-07 16:26:44.215180000,2.898179931640625,0.5643333792686462,-0.0302381515502929,0.3515004515647888
2024-12-07 16:26:44.225207800,2.908207763671875,0.5982802510261536,0.016005516052246,0.5941316485404968
2024-12-07 16:26:44.235235600,2.918235595703125,0.5670339465141296,0.047133445739746,0.8210178017616272
2024-12-07 16:26:44.245263400,2.928263427734375,0.3758246302604675,0.1443738937377929,0.9216919541358948
2024-12-07 16:26:44.255291100,2.938291015625,0.2981610894203186,0.1787710189819336,0.9536101818084716
2024-12-07 16:26:44.265319000,2.94831884765625,0.2187564373016357,0.1982402801513672,0.8830527067184448
2024-12-07 16:26:44.275346700,2.9583466796875,0.0234361290931701,0.169499397277832,0.6727286577224731
2024-12-07 16:26:44.285374500,2.96837451171875,-0.23360675573349,0.1739683151245117,0.4764454960823059
2024-12-07 16:26:44.295402200,2.97840234375,-0.5411243438720703,0.1973552703857422,0.2041670382022857
2024-12-07 16:26:44.305430000,2.988429931640625,-0.8783903121948242,0.1252269744873047,-0.0708916783332824
2024-12-07 16:26:44.315457800,2.998457763671875,-1.2484498023986816,0.010573387145996,-0.3137434720993042
2024-12-07 16:26:44.325485600,3.008485595703125,-1.5829989910125732,-0.1605968475341797,-0.484022706747055
2024-12-07 16:26:44.335513300,3.018513427734375,-1.820406198501587,-0.3689374923706054,-0.5556123852729797
2024-12-07 16:26:44.345541000,3.028541015625,-1.9425959587097168,-0.4902524948120117,-0.3603413999080658
2024-12-07 16:26:44.355569000,3.03856884765625,-1.903502941131592,-0.4677019119262695,0.033775508403778
2024-12-07 16:26:44.365596700,3.0485966796875,-1.5667846202850342,-0.2780103683471679,0.425824761390686
2024-12-07 16:26:44.375624200,3.058624267578125,-1.1869040727615356,-0.0221519470214843,1.1374431848526
2024-12-07 16:26:44.385652000,3.06865185546875,-0.5942520499229431,0.1228160858154296,1.6683285236358645
2024-12-07 16:26:44.395679700,3.0786796875,-0.102026343345642,0.1999788284301757,2.0019264221191406
2024-12-07 16:26:44.405707500,3.08870751953125,0.264267235994339,0.1091794967651367,2.118046283721924
2024-12-07 16:26:44.415735300,3.0987353515625,0.5171234607696533,-0.0823202133178711,1.969109296798706
2024-12-07 16:26:44.425762800,3.1087626953125,0.4499597549438476,-0.2167177200317382,1.2751460075378418
2024-12-07 16:26:44.435790600,3.11879052734375,-0.1157258749008178,-0.1842374801635742,0.6462323665618896
2024-12-07 16:26:44.445818400,3.128818359375,-0.5019858479499817,-0.176030158996582,-0.2489652037620544
2024-12-07 16:26:44.455846100,3.13884619140625,-0.8030722141265869,-0.0961647033691406,-0.8417574167251587
2024-12-07 16:26:44.465873700,3.148873779296875,-1.0694200992584229,0.0123672485351562,-1.1321187019348145
2024-12-07 16:26:44.475901400,3.1589013671875,-1.137434005737305,0.044586181640625,-1.2494250535964966
2024-12-07 16:26:44.485929200,3.16892919921875,-0.9308998584747314,0.0389528274536132,-1.1036427021026611
2024-12-07 16:26:44.495957000,3.17895703125,-0.784618616104126,0.0956535339355468,-0.6551542282104492
2024-12-07 16:26:44.505984500,3.188984619140625,-0.6727440357208252,0.2668600082397461,-0.222518503665924
2024-12-07 16:26:44.516012300,3.19901220703125,-0.384803295135498,0.4041700363159179,-0.0023017525672912
2024-12-07 16:26:44.526040000,3.2090400390625,-0.1091458648443222,0.4359579086303711,0.1055951118469238
2024-12-07 16:26:44.536067600,3.219067626953125,0.1045162379741668,0.3528604507446289,0.09586763381958
2024-12-07 16:26:44.546095400,3.229095458984375,0.1973645985126495,0.2314901351928711,0.0779650211334228
2024-12-07 16:26:44.556123100,3.239123046875,0.1840238273143768,0.038487434387207,-0.0918555259704589
2024-12-07 16:26:44.566151000,3.24915087890625,0.2700235545635223,-0.1969890594482422,-0.2709470391273498
2024-12-07 16:26:44.576178400,3.259178466796875,0.2146147489547729,-0.2790708541870117,-0.1638306975364685
2024-12-07 16:26:44.586206200,3.269206298828125,0.4014487266540527,-0.3562793731689453,-0.2400630116462707
2024-12-07 16:26:44.596234000,3.27923388671875,0.7696952819824219,-0.4761791229248047,-0.505673885345459
2024-12-07 16:26:44.606261800,3.28926171875,0.9394044876098632,-0.5622396469116211,-0.5680887699127197
2024-12-07 16:26:44.616289300,3.299289306640625,0.7156760096549988,-0.5478219985961914,-0.5245926380157471
2024-12-07 16:26:44.626317000,3.309317138671875,0.4578354954719543,-0.600346565246582,-0.3950345516204834
2024-12-07 16:26:44.636344800,3.3193447265625,0.4076842367649078,-0.6147060394287109,-0.4957717061042785
2024-12-07 16:26:44.646372600,3.32937255859375,0.3367968201637268,-0.590601921081543,-0.4923094511032104
2024-12-07 16:26:44.656400100,3.339400146484375,0.0602320507168769,-0.6096019744873047,-0.0779522061347961
2024-12-07 16:26:44.666428000,3.349427978515625,-0.0136633887887001,-0.6954870223999023,0.1820713281631469
2024-12-07 16:26:44.676455700,3.35945556640625,0.1107158362865448,-0.752619743347168,0.4739741086959839
2024-12-07 16:26:44.686483500,3.3694833984375,0.305041640996933,-0.7191333770751953,0.7106753587722778
2024-12-07 16:26:44.696511200,3.37951123046875,0.5794932842254639,-0.6813774108886719,0.829005241394043
2024-12-07 16:26:44.706539000,3.3895390625,0.8942160606384277,-0.529667854309082,0.6092022657394409
2024-12-07 16:26:44.716566800,3.39956689453125,1.017825961112976,-0.3121356964111328,0.5011898279190063
2024-12-07 16:26:44.726594600,3.409594482421875,0.9018445014953612,-0.0289363861083984,0.0806468725204467
2024-12-07 16:26:44.736622300,3.419622314453125,0.5094993114471436,0.1814403533935547,-0.3014450669288635
2024-12-07 16:26:44.746650000,3.429650146484375,0.1018406152725219,0.3098678588867187,-0.5912964940071106
2024-12-07 16:26:44.756678000,3.439677978515625,-0.1753835082054138,0.2803754806518554,-0.7835409641265869
2024-12-07 16:26:44.766705700,3.44970556640625,-0.31083545088768,0.1603841781616211,-0.8256796598434448
2024-12-07 16:26:44.776733400,3.4597333984375,-0.18415167927742,0.0218687057495117,-0.889884352684021
2024-12-07 16:26:44.786761200,3.46976123046875,0.1366479098796844,-0.0299463272094726,-1.0182336568832395
2024-12-07 16:26:44.796788700,3.479788818359375,0.4155144393444061,-0.0333938598632812,-1.1141012907028198
2024-12-07 16:26:44.806816500,3.48981640625,0.5361772179603577,-0.0220327377319335,-1.1057229042053225
2024-12-07 16:26:44.816844300,3.49984423828125,0.4546273052692413,0.0326833724975585,-0.9553623199462892
2024-12-07 16:26:44.826872000,3.5098720703125,0.2624940872192383,0.125762939453125,-0.7167324423789978
2024-12-07 16:26:44.836899800,3.51989990234375,0.1532950401306152,0.2332649230957031,-0.5145701766014099
2024-12-07 16:26:44.846927600,3.529927734375,0.290933221578598,0.3410215377807617,-0.3193576335906982
2024-12-07 16:26:44.856955400,3.539955322265625,0.704164981842041,0.3867654800415039,0.0452477931976318
2024-12-07 16:26:44.866983200,3.549983154296875,0.9565734267234802,0.3461732864379883,0.4377831220626831
2024-12-07 16:26:44.877011000,3.560010986328125,1.1082314252853394,0.200322151184082,0.3908555507659912
2024-12-07 16:26:44.887038700,3.570038818359375,0.947618007659912,-0.1122608184814453,0.4866558313369751
2024-12-07 16:26:44.897066500,3.58006640625,0.4854463338851928,-0.5290927886962891,0.5849243402481079
2024-12-07 16:26:44.907094300,3.59009423828125,0.2328841090202331,-0.8442478179931641,0.3953708410263061
2024-12-07 16:26:44.917122000,3.6001220703125,-0.052584171295166,-1.0100650787353516,-0.0972653627395629
2024-12-07 16:26:44.927149800,3.61014990234375,0.0508240461349487,-0.9746084213256836,-0.8598608374595642
2024-12-07 16:26:44.937177600,3.620177490234375,0.8463598489761353,-0.8152484893798828,-2.347006797790528
2024-12-07 16:26:44.947205400,3.630205322265625,1.916337966918945,-0.7077293395996094,-3.8637733459472656
2024-12-07 16:26:44.957233000,3.64023291015625,3.8159008026123047,-0.3311948776245117,-4.219576358795166
2024-12-07 16:26:44.967260700,3.6502607421875,5.358379364013672,0.1144533157348632,-2.007230043411255
2024-12-07 16:26:44.977288400,3.660288330078125,3.717184543609619,0.0667953491210937,0.8498384952545166
2024-12-07 16:26:44.987316200,3.670316162109375,0.3574883937835693,-0.2240638732910156,2.5262551307678223
2024-12-07 16:26:44.997344000,3.680343994140625,-2.440957546234131,-0.1819334030151367,2.5857973098754883
2024-12-07 16:26:45.007371800,3.690371826171875,-4.093520641326904,0.4188680648803711,1.5430691242218018
2024-12-07 16:26:45.017399600,3.700399658203125,-4.532474994659424,1.1776247024536133,0.3483481407165527
2024-12-07 16:26:45.027427300,3.71042724609375,-3.815387725830078,1.465010643005371,0.0879415869712829
2024-12-07 16:26:45.037455000,3.720455078125,-2.520784378051758,1.502131462097168,0.1918099522590637
2024-12-07 16:26:45.047483000,3.73048291015625,-1.3346261978149414,1.2366514205932615,0.3201539516448974
2024-12-07 16:26:45.057510700,3.7405107421875,-0.5016260147094727,0.8874130249023438,0.6510317921638489
2024-12-07 16:26:45.067538400,3.750538330078125,-0.1331218481063842,0.7397985458374023,0.8379250764846802
2024-12-07 16:26:45.077566200,3.760566162109375,0.046607494354248,0.563776969909668,0.7104381322860718
2024-12-07 16:26:45.087594000,3.770593994140625,0.3099061250686645,0.2544155120849609,0.6284972429275513
2024-12-07 16:26:45.097621800,3.780621826171875,0.6659784317016602,-0.059025764465332,0.6203278303146362
2024-12-07 16:26:45.107649500,3.7906494140625,1.1083319187164309,-0.3242568969726562,0.642267107963562
2024-12-07 16:26:45.117677300,3.80067724609375,1.515129566192627,-0.5369911193847656,0.6125481128692627
2024-12-07 16:26:45.127704800,3.810704833984375,1.7698091268539429,-0.6450681686401367,0.4792592525482178
2024-12-07 16:26:45.137732600,3.820732666015625,1.9757330417633057,-0.6633396148681641,0.34358811378479
2024-12-07 16:26:45.147760400,3.830760498046875,1.9218579530715945,-0.5636072158813477,0.2721540927886963
2024-12-07 16:26:45.157788200,3.8407880859375,1.5668901205062866,-0.4273738861083984,0.2449994087219238
2024-12-07 16:26:45.167816000,3.85081591796875,1.105769157409668,-0.1971750259399414,0.2177152633666992
2024-12-07 16:26:45.177843700,3.86084375,0.5951323509216309,0.132028579711914,0.1135928630828857
2024-12-07 16:26:45.187871500,3.87087158203125,0.162634015083313,0.4745359420776367,0.0617924928665161
2024-12-07 16:26:45.197899300,3.880899169921875,-0.1139682531356811,0.7493495941162109,0.2145507931709289
2024-12-07 16:26:45.207927000,3.890927001953125,-0.1965490579605102,0.9614076614379884,0.427053153514862
2024-12-07 16:26:45.217954800,3.900954833984375,-0.2190301418304443,1.0822105407714844,0.6075113415718079
2024-12-07 16:26:45.227982600,3.910982666015625,-0.241776704788208,1.164926528930664,0.6417130827903748
2024-12-07 16:26:45.238010400,3.92101025390625,-0.1292399168014526,1.114501953125,0.6828761100769043
2024-12-07 16:26:45.248038100,3.9310380859375,-0.0379050970077514,0.8360300064086914,0.60169517993927
2024-12-07 16:26:45.258066000,3.94106591796875,-0.0151566267013549,0.4544277191162109,0.2845278978347778
2024-12-07 16:26:45.268093700,3.95109375,0.033873438835144,0.1276960372924804,-0.2177128195762634
2024-12-07 16:26:45.278121500,3.96112158203125,0.1405391693115234,-0.0297527313232421,-0.7346562743186951
2024-12-07 16:26:45.288149000,3.97114892578125,0.2800357341766357,-0.0852441787719726,-1.179180145263672
2024-12-07 16:26:45.298176800,3.9811767578125,0.296054482460022,-0.010106086730957,-1.6752662658691406
2024-12-07 16:26:45.308204500,3.99120458984375,0.3451704978942871,0.228668212890625,-1.848516821861267
2024-12-07 16:26:45.318232300,4.001232421875,0.3159223794937134,0.6397562026977539,-1.739356517791748
2024-12-07 16:26:45.328260000,4.011260009765625,0.2663569450378418,1.084075927734375,-1.627330303192139
2024-12-07 16:26:45.338287900,4.021287841796875,0.3640148639678955,1.2463960647583008,-1.449549436569214
2024-12-07 16:26:45.348315600,4.031315673828125,0.6403886079788208,1.0984268188476562,-0.9866374135017396
2024-12-07 16:26:45.358343400,4.041343505859375,0.9304499626159668,0.8552694320678711,-0.6380093693733215
2024-12-07 16:26:45.368371200,4.05137109375,1.0606544017791748,0.4689340591430664,-0.4629892408847809
2024-12-07 16:26:45.378399000,4.06139892578125,0.8776336908340454,-0.0364532470703125,-0.4753100275993347
2024-12-07 16:26:45.388426800,4.0714267578125,0.4071327447891235,-0.3164262771606445,-0.4348202347755432
2024-12-07 16:26:45.398454500,4.08145458984375,-0.0594803094863891,-0.4481210708618164,0.0207612514495849
2024-12-07 16:26:45.408482300,4.091482421875,-0.3320716619491577,-0.7236833572387695,0.6860247850418091
2024-12-07 16:26:45.418510000,4.101510009765625,-0.5113999247550964,-1.0427799224853516,1.235447645187378
2024-12-07 16:26:45.428537900,4.111537841796875,-0.74440997838974,-1.1854619979858398,1.5818142890930176
2024-12-07 16:26:45.438565600,4.121565673828125,-0.958781123161316,-1.0420150756835938,1.8381985425949097
2024-12-07 16:26:45.448593200,4.13159326171875,-0.9063501358032228,-0.6175909042358398,1.985666036605835
2024-12-07 16:26:45.458621000,4.141620849609375,-0.5734246969223022,-0.1656713485717773,2.071987628936768
2024-12-07 16:26:45.468648700,4.151648681640625,-0.1427204608917236,-0.0203876495361328,2.101456642150879
2024-12-07 16:26:45.478676500,4.161676513671875,0.818734884262085,-0.0902004241943359,1.895037293434143
2024-12-07 16:26:45.488704300,4.171704345703125,1.829586148262024,-0.2184095382690429,1.2561264038085938
2024-12-07 16:26:45.498732000,4.18173193359375,1.7688716650009155,-0.1093406677246093,-0.1267492175102234
2024-12-07 16:26:45.508759800,4.191759765625,0.6911360025405884,0.2133646011352539,-0.9819425344467164
2024-12-07 16:26:45.518787600,4.20178759765625,-0.3863883018493652,0.6976118087768555,-1.2094812393188477
2024-12-07 16:26:45.528815400,4.2118154296875,-0.979937732219696,1.2194757461547852,-1.090287446975708
2024-12-07 16:26:45.538843100,4.221843017578125,-0.9657920598983764,1.4732437133789062,-0.8599470853805542
2024-12-07 16:26:45.548871000,4.231870849609375,-0.890798032283783,1.2540082931518557,-0.3526713252067566
2024-12-07 16:26:45.558898700,4.241898681640625,-0.9563463926315308,0.7728214263916016,0.1317176818847656
2024-12-07 16:26:45.568926500,4.251926513671875,-1.1724917888641355,0.2688970565795898,0.5242494344711304
2024-12-07 16:26:45.578954200,4.261954345703125,-1.4714889526367188,-0.2242517471313476,0.7189794778823853
2024-12-07 16:26:45.588982000,4.27198193359375,-1.717565894126892,-0.6872091293334961,0.8175102472305298
2024-12-07 16:26:45.599009800,4.282009765625,-1.9146630764007568,-0.9287176132202148,0.7980749607086182
2024-12-07 16:26:45.609037600,4.29203759765625,-1.9467887878417969,-1.0589056015014648,0.905717670917511
2024-12-07 16:26:45.619065000,4.302065185546875,-1.642574906349182,-1.059061050415039,0.9865242838859558
2024-12-07 16:26:45.629092900,4.3120927734375,-1.101953148841858,-0.8773860931396484,0.7557517886161804
2024-12-07 16:26:45.639120600,4.32212060546875,-0.6669264435768127,-0.6339225769042969,0.3643792867660522
2024-12-07 16:26:45.649148400,4.3321484375,-0.4428563117980957,-0.4339103698730469,0.0477907061576843
2024-12-07 16:26:45.659176200,4.34217626953125,-0.3824636340141296,-0.2772855758666992,-0.1214231848716735
2024-12-07 16:26:45.669204000,4.352203857421875,-0.3766022324562073,-0.2118539810180664,-0.1533237099647522
2024-12-07 16:26:45.679231700,4.362231689453125,-0.359207808971405,-0.1563196182250976,-0.1296772360801696
2024-12-07 16:26:45.689259500,4.372259521484375,-0.4358918070793152,-0.1251125335693359,0.0104833245277404
2024-12-07 16:26:45.699287300,4.382287353515625,-0.5492064356803894,-0.1660146713256836,0.2658694386482239
2024-12-07 16:26:45.709315000,4.392315185546875,-0.6413614749908447,-0.1881933212280273,0.6626788973808289
2024-12-07 16:26:45.719342800,4.4023427734375,-0.7500628232955933,-0.2252206802368164,0.9881079196929932
2024-12-07 16:26:45.729370600,4.41237060546875,-0.8443785905838013,-0.2864332199096679,1.3364343643188477
2024-12-07 16:26:45.739398400,4.4223984375,-0.8175069093704224,-0.2712430953979492,1.368619441986084
2024-12-07 16:26:45.749426200,4.43242626953125,-0.817163348197937,-0.3181333541870117,1.445785641670227
2024-12-07 16:26:45.759454000,4.442453857421875,-0.909561276435852,-0.4459447860717773,1.5589599609375
2024-12-07 16:26:45.769481700,4.452481689453125,-0.7789411544799805,-0.5589008331298828,1.5269677639007568
2024-12-07 16:26:45.779509200,4.46250927734375,-0.5750355124473572,-0.6141138076782227,1.3894340991973877
2024-12-07 16:26:45.789537000,4.472537109375,-0.4857086539268493,-0.3827056884765625,1.0884647369384766
2024-12-07 16:26:45.799564800,4.482564697265625,-0.4306871294975281,-0.1140069961547851,0.6234258413314819
2024-12-07 16:26:45.809592600,4.492592529296875,-0.4343085885047912,0.0200481414794921,0.0445383787155151
2024-12-07 16:26:45.819620400,4.502620361328125,-0.5627725720405579,0.0439834594726562,-0.4255415499210357
2024-12-07 16:26:45.829648100,4.512648193359375,-0.7335418462753296,-0.0367794036865234,-0.6698009967803955
2024-12-07 16:26:45.839676000,4.522676025390625,-0.7978833913803101,-0.088113784790039,-0.7694278359413147
2024-12-07 16:26:45.849703700,4.53270361328125,-0.747297465801239,-0.0766983032226562,-0.6909137964248657
2024-12-07 16:26:45.859731500,4.5427314453125,-0.7215600609779358,-0.0029659271240234,-0.4748097956180572
2024-12-07 16:26:45.869759200,4.55275927734375,-0.7498278617858887,0.1470184326171875,-0.2524032592773437
2024-12-07 16:26:45.879787000,4.562787109375,-0.8796185851097107,0.2583484649658203,-0.0200115442276
2024-12-07 16:26:45.889814800,4.572814697265625,-0.9379647374153136,0.2976226806640625,0.249364972114563
2024-12-07 16:26:45.899842600,4.582842529296875,-0.7870907187461853,0.3412160873413086,0.5631985068321228
2024-12-07 16:26:45.909870300,4.592870361328125,-0.5721582174301147,0.3411083221435547,0.6190748810768127
2024-12-07 16:26:45.919898000,4.602898193359375,-0.5224011540412903,0.3404388427734375,0.6566739082336426
2024-12-07 16:26:45.929926000,4.61292578125,-0.3738322257995605,0.2102718353271484,0.6132962107658386
2024-12-07 16:26:45.939953700,4.62295361328125,-0.2746284604072571,0.0848236083984375,0.3570561408996582
2024-12-07 16:26:45.949981200,4.632981201171875,-0.2189331650733947,-0.0596094131469726,0.0568127632141113
2024-12-07 16:26:45.960009000,4.643009033203125,-0.1527750492095947,-0.2179641723632812,-0.2812625765800476
2024-12-07 16:26:45.970036700,4.65303662109375,-0.1079782843589782,-0.323068618774414,-0.4887329936027527
2024-12-07 16:26:45.980064500,4.663064453125,-0.1596887111663818,-0.2891454696655273,-0.4913676083087921
2024-12-07 16:26:45.990092300,4.67309228515625,-0.1449866294860839,-0.2408294677734375,-0.6060621738433838
2024-12-07 16:26:46.000120000,4.6831201171875,-0.1127830743789672,-0.1591882705688476,-0.7228569388389587
2024-12-07 16:26:46.010147800,4.69314794921875,-0.1068121194839477,-0.0731077194213867,-0.7945148944854736
2024-12-07 16:26:46.020175600,4.703175537109375,-0.1083267927169799,-0.0686588287353515,-0.7639608383178711
2024-12-07 16:26:46.030203400,4.713203369140625,0.0108231306076049,-0.155369758605957,-0.6273783445358276
2024-12-07 16:26:46.040231200,4.723231201171875,0.2252706885337829,-0.2710886001586914,-0.5954943895339966
2024-12-07 16:26:46.050259000,4.733259033203125,0.3768743276596069,-0.3393049240112304,-0.5766342282295227
2024-12-07 16:26:46.060286700,4.74328662109375,0.5431807041168213,-0.3122415542602539,-0.6464009284973145
2024-12-07 16:26:46.070314500,4.753314453125,0.5776721239089966,-0.1186141967773437,-0.5149419903755188
2024-12-07 16:26:46.080342300,4.76334228515625,0.904352605342865,-0.193364143371582,-1.0257368087768557
2024-12-07 16:26:46.090370000,4.7733701171875,0.9339492321014404,-0.1870431900024414,-1.105756163597107
2024-12-07 16:26:46.100397800,4.783397705078125,0.8153057098388672,-0.1234416961669921,-1.2697088718414309
2024-12-07 16:26:46.110425300,4.79342529296875,0.749650776386261,-0.1456365585327148,-1.218928575515747
2024-12-07 16:26:46.120453000,4.803453125,0.8661676645278931,-0.1673107147216797,-1.1493544578552246
2024-12-07 16:26:46.130481000,4.81348095703125,1.0301523208618164,-0.1310834884643554,-1.1179654598236084
2024-12-07 16:26:46.140508700,4.8235087890625,1.111790657043457,-0.0513219833374023,-1.0236570835113523
2024-12-07 16:26:46.150536400,4.833536376953125,1.1216039657592771,0.0191030502319335,-0.8399907350540161
2024-12-07 16:26:46.160564200,4.843564208984375,1.1891765594482422,-0.0203495025634765,-0.7793893218040466
2024-12-07 16:26:46.170592000,4.853592041015625,1.399347186088562,-0.1791582107543945,-0.7661774754524231
2024-12-07 16:26:46.180619800,4.863619873046875,1.6308804750442505,-0.4332284927368164,-0.7765167355537415
2024-12-07 16:26:46.190647600,4.8736474609375,1.751928210258484,-0.7439088821411133,-0.7223163843154907
2024-12-07 16:26:46.200675300,4.88367529296875,1.7903316020965576,-1.015422821044922,-0.6650832891464233
2024-12-07 16:26:46.210703000,4.893703125,1.8122332096099856,-1.2335329055786133,-0.7241116166114807
2024-12-07 16:26:46.220731000,4.90373095703125,1.7776607275009155,-1.3553581237792969,-0.869863748550415
2024-12-07 16:26:46.230758700,4.913758544921875,1.5895957946777344,-1.271406173706055,-0.997319221496582
2024-12-07 16:26:46.240786400,4.923786376953125,1.2933852672576904,-1.0444154739379885,-1.0551552772521973
2024-12-07 16:26:46.250814200,4.933814208984375,0.993870496749878,-0.7370500564575195,-0.8740335702896118
2024-12-07 16:26:46.260842000,4.943842041015625,0.7471484541893005,-0.4260940551757812,-0.6716044545173645
2024-12-07 16:26:46.270869800,4.953869873046875,0.7074349522590637,-0.0922985076904296,-0.5334398746490479
2024-12-07 16:26:46.280897300,4.963897216796875,1.005582571029663,0.1831312179565429,-0.2814478874206543
2024-12-07 16:26:46.290925000,4.973925048828125,1.2139182090759275,0.4524469375610351,-0.1118406057357788
2024-12-07 16:26:46.300952800,4.983952880859375,1.1295535564422607,0.6631021499633789,-0.1040544509887695
2024-12-07 16:26:46.310980600,4.993980712890625,0.9083235859870912,0.7727212905883789,-0.1306402683258056
2024-12-07 16:26:46.321008400,5.00400830078125,0.6854764819145203,0.7387552261352539,-0.0897397994995117
2024-12-07 16:26:46.331036200,5.0140361328125,0.5654939413070679,0.6711568832397461,-0.1826181411743164
2024-12-07 16:26:46.341064000,5.02406396484375,0.3804675936698913,0.6178903579711914,-0.4926948547363281
2024-12-07 16:26:46.351091700,5.034091796875,0.1954041719436645,0.3547134399414062,-0.7408490777015686
2024-12-07 16:26:46.361119500,5.044119384765625,0.0800460577011108,-0.0794649124145507,-1.065379023551941
2024-12-07 16:26:46.371147300,5.054147216796875,0.1033055782318115,-0.3497629165649414,-1.461262583732605
2024-12-07 16:26:46.381175000,5.064175048828125,0.9074664115905762,-0.4625167846679687,-1.766756892204285
2024-12-07 16:26:46.391202800,5.074202880859375,1.4326975345611572,-0.7593107223510742,-1.982407689094544
2024-12-07 16:26:46.401230600,5.084230712890625,1.160975217819214,-1.0904598236083984,-2.015824317932129
2024-12-07 16:26:46.411258400,5.09425830078125,0.6765103340148926,-1.3674259185791016,-1.1423492431640625
2024-12-07 16:26:46.421286100,5.1042861328125,-0.2222615480422973,-1.2706680297851562,1.1742454767227173
2024-12-07 16:26:46.431314000,5.11431396484375,-1.2102255821228027,-0.9843788146972656,3.2020463943481445
2024-12-07 16:26:46.441341400,5.124341552734375,-2.2722179889678955,-0.6914539337158203,4.518714904785156
2024-12-07 16:26:46.451369200,5.134369140625,-3.2358312606811523,-0.2282648086547851,4.967096328735352
2024-12-07 16:26:46.461397000,5.14439697265625,-3.6802773475646977,0.426727294921875,4.607656478881836
2024-12-07 16:26:46.471424800,5.1544248046875,-3.170538902282715,0.8691987991333008,4.031946659088135
2024-12-07 16:26:46.481452500,5.16445263671875,-1.9519267082214355,1.0855655670166016,2.968700408935547
2024-12-07 16:26:46.491480000,5.17447998046875,-1.0310691595077517,0.9983396530151368,1.764927864074707
2024-12-07 16:26:46.501507800,5.1845078125,-0.4734015464782715,0.7171335220336914,0.180397629737854
2024-12-07 16:26:46.511535600,5.19453564453125,0.0644674301147461,0.3141984939575195,-1.0107672214508057
2024-12-07 16:26:46.521563400,5.2045634765625,0.6256455183029175,-0.0959730148315429,-1.546753168106079
2024-12-07 16:26:46.531591000,5.2145908203125,1.0386508703231812,-0.4379701614379883,-1.3641014099121094
2024-12-07 16:26:46.541618700,5.22461865234375,1.491979718208313,-0.512507438659668,-0.7905139923095703
2024-12-07 16:26:46.551646500,5.234646484375,1.7477566003799438,-0.3068141937255859,-0.2159547805786132
2024-12-07 16:26:46.561674200,5.24467431640625,1.5254088640213013,-0.141667366027832,0.6009990572929382
2024-12-07 16:26:46.571701800,5.25470166015625,1.4052034616470337,0.0163679122924804,1.197687029838562
2024-12-07 16:26:46.581729500,5.2647294921875,1.0474534034729004,0.200592041015625,1.377784252166748
2024-12-07 16:26:46.591757300,5.27475732421875,0.679407000541687,0.3779506683349609,1.2863166332244873
2024-12-07 16:26:46.601784800,5.284784912109375,0.3790037631988525,0.5582914352416992,1.0532305240631104
2024-12-07 16:26:46.611812600,5.2948125,0.0382024049758911,0.7228946685791016,0.9323658347129822
2024-12-07 16:26:46.621840400,5.30484033203125,-0.1920279264450073,0.9248638153076172,0.851435661315918
2024-12-07 16:26:46.631868200,5.3148681640625,-0.2379858493804931,1.1597681045532229,0.8096935749053955
2024-12-07 16:26:46.641895700,5.324895751953125,-0.2039657831192016,1.394304275512695,0.8538581132888794
2024-12-07 16:26:46.651923500,5.33492333984375,-0.1174352169036865,1.547454833984375,1.0154297351837158
2024-12-07 16:26:46.661951200,5.344951171875,-0.0340712070465087,1.6340513229370115,1.0110924243927002
2024-12-07 16:26:46.671979000,5.35497900390625,-0.0181009769439697,1.6358089447021484,0.928268551826477
2024-12-07 16:26:46.682006500,5.365006591796875,0.1174452304840087,1.5244970321655271,0.7637801170349121
2024-12-07 16:26:46.692034300,5.375034423828125,0.2556796073913574,1.2141132354736328,0.5291850566864014
2024-12-07 16:26:46.702062000,5.38506201171875,0.2994506359100342,0.9246759414672852,0.1455740928649902
2024-12-07 16:26:46.712089900,5.39508984375,0.4301798343658447,0.6035652160644531,-0.2568767070770263
2024-12-07 16:26:46.722117400,5.405117431640625,0.9454226493835448,0.1978435516357422,-0.7332605123519897
2024-12-07 16:26:46.732145200,5.415145263671875,1.4736740589141846,-0.2544307708740234,-1.6349434852600098
2024-12-07 16:26:46.742173000,5.4251728515625,1.83070170879364,-0.8438625335693359,-2.76476526260376
2024-12-07 16:26:46.752200700,5.43520068359375,1.9840744733810425,-1.178548812866211,-3.9009909629821777
2024-12-07 16:26:46.762228500,5.445228515625,1.618565320968628,-1.0340957641601562,-4.994890213012695
2024-12-07 16:26:46.772256300,5.45525634765625,0.9276443719863892,-0.653986930847168,-5.299140930175781
2024-12-07 16:26:46.782283800,5.46528369140625,0.2427953481674194,-0.1911802291870117,-4.256246089935303
2024-12-07 16:26:46.792311600,5.4753115234375,-0.0797851085662841,0.6353769302368164,-2.909917116165161
2024-12-07 16:26:46.802339300,5.48533935546875,-0.1689307689666748,1.5567283630371094,-1.6259807348251345
2024-12-07 16:26:46.812367000,5.4953671875,-0.4247000217437744,2.0467991828918457,0.0258370041847229
2024-12-07 16:26:46.822395000,5.505394775390625,-0.3347558975219726,1.991652488708496,1.46268630027771
2024-12-07 16:26:46.832422700,5.515422607421875,-0.3046950101852417,1.4204473495483398,2.4607949256896973
2024-12-07 16:26:46.842450400,5.525450439453125,-0.5575598478317261,0.4341745376586914,3.0066494941711426
2024-12-07 16:26:46.852478200,5.535478271484375,-0.3282945156097412,-0.8378257751464844,3.324000835418701
2024-12-07 16:26:46.862506000,5.545506103515625,0.0610941648483276,-1.9990215301513672,3.289618492126465
2024-12-07 16:26:46.872533800,5.55553369140625,0.3910399675369262,-2.719954490661621,2.863466262817383
2024-12-07 16:26:46.882561500,5.5655615234375,0.593264102935791,-2.83393669128418,2.538784980773926
2024-12-07 16:26:46.892589300,5.57558935546875,0.8089311122894287,-2.309114456176758,2.828106164932251
2024-12-07 16:26:46.902617000,5.5856171875,0.8721814155578613,-1.6108999252319336,2.253523111343384
2024-12-07 16:26:46.912644900,5.595644775390625,0.9289227724075316,-1.1219377517700195,1.437504529953003
2024-12-07 16:26:46.922672600,5.605672607421875,0.5565571784973145,-0.6842880249023438,0.741392970085144
2024-12-07 16:26:46.932700400,5.615700439453125,-0.1576030254364013,-0.1544132232666015,0.1093365550041198
2024-12-07 16:26:46.942728200,5.625728271484375,-1.1230887174606323,0.4729108810424804,-0.3372703790664673
2024-12-07 16:26:46.952755700,5.635755615234375,-2.1805570125579834,1.1603364944458008,-0.4391818642616272
2024-12-07 16:26:46.962783500,5.645783447265625,-3.1234347820281982,1.899129867553711,-0.297828197479248
2024-12-07 16:26:46.972811300,5.655811279296875,-3.555551052093506,2.417718410491944,0.0565385818481445
2024-12-07 16:26:46.982839000,5.665839111328125,-3.360163927078247,2.4542384147644043,0.7003216743469238
2024-12-07 16:26:46.992866800,5.67586669921875,-3.105825662612915,2.0813775062561035,1.2122368812561035
2024-12-07 16:26:47.002894600,5.68589453125,-3.01527738571167,1.4629030227661133,0.7903276681900024
2024-12-07 16:26:47.012922400,5.69592236328125,-2.666452169418335,0.5522918701171875,-0.1668785810470581
2024-12-07 16:26:47.022950100,5.7059501953125,-1.7486246824264526,-0.5783109664916992,-1.1226023435592651
2024-12-07 16:26:47.032978000,5.71597802734375,-0.5869073867797852,-1.6142091751098633,-1.8006237745285034
2024-12-07 16:26:47.043005700,5.726005615234375,0.3343183994293213,-2.2173290252685547,-1.9322433471679688
2024-12-07 16:26:47.053033500,5.736033447265625,0.8368325233459473,-2.222050666809082,-1.4630959033966064
2024-12-07 16:26:47.063061200,5.746061279296875,1.081551194190979,-1.8115005493164065,-0.8105116486549377
2024-12-07 16:26:47.073089000,5.756089111328125,1.2038114070892334,-1.3308019638061523,-0.2936950922012329
2024-12-07 16:26:47.083116800,5.76611669921875,1.1557718515396118,-0.9236249923706056,0.1386878490447998
2024-12-07 16:26:47.093144600,5.77614453125,1.0484867095947266,-0.5420236587524414,0.5809473991394043
2024-12-07 16:26:47.103172400,5.78617236328125,0.9123375415802002,-0.0424976348876953,0.9745802879333496
2024-12-07 16:26:47.113199900,5.796199951171875,0.5976123809814453,0.4461822509765625,1.2051260471343994
2024-12-07 16:26:47.123227600,5.8062275390625,0.3740909099578857,0.6999053955078125,1.2594900131225586
2024-12-07 16:26:47.133255400,5.81625537109375,0.3592529296875,0.7381258010864258,1.110061526298523
2024-12-07 16:26:47.143283200,5.826283203125,0.0962305068969726,0.7091436386108398,0.8062242269515991
2024-12-07 16:26:47.153311000,5.83631103515625,-0.3898881673812866,0.5989522933959961,0.4398289918899536
2024-12-07 16:26:47.163338800,5.8463388671875,-0.7158510684967041,0.3124351501464844,-0.049788475036621
2024-12-07 16:26:47.173366500,5.856366455078125,-0.7488232254981995,-0.1069498062133789,-0.4798147082328796
2024-12-07 16:26:47.183394300,5.866394287109375,-0.6196146011352539,-0.4870233535766601,-0.8881105780601501
2024-12-07 16:26:47.193422000,5.876422119140625,-0.4205023646354675,-0.7516374588012695,-1.2080986499786377
2024-12-07 16:26:47.203449900,5.886449951171875,-0.3905680179595947,-0.77679443359375,-1.4487384557724
2024-12-07 16:26:47.213477600,5.8964775390625,-0.3842810988426208,-0.6438016891479492,-1.4935425519943235
2024-12-07 16:26:47.223505400,5.90650537109375,-0.2954534292221069,-0.3767614364624023,-1.2424039840698242
2024-12-07 16:26:47.233533200,5.916533203125,-0.1768122911453247,-0.0668849945068359,-0.8069422245025635
2024-12-07 16:26:47.243561000,5.92656103515625,-0.1582404375076294,0.1707649230957031,-0.3088456392288208
2024-12-07 16:26:47.253588700,5.936588623046875,-0.1932677030563354,0.350341796875,0.0926985740661621
2024-12-07 16:26:47.263616500,5.946616455078125,-0.2783166766166687,0.5672836303710938,0.3924520015716553
2024-12-07 16:26:47.273644300,5.956644287109375,-0.3118857145309448,0.7451009750366211,0.6994353532791138
2024-12-07 16:26:47.283671800,5.966671875,-0.2109729051589965,0.769190788269043,1.034698724746704
2024-12-07 16:26:47.293699600,5.976699462890625,0.0914963483810424,0.6014976501464844,1.1520291566848757
2024-12-07 16:26:47.303727400,5.986727294921875,0.3311684131622314,0.3616237640380859,0.9218976497650146
2024-12-07 16:26:47.313755100,5.996755126953125,0.3069725036621094,0.0642232894897461,0.505024790763855
2024-12-07 16:26:47.323783000,6.006782958984375,0.2583235502243042,-0.2186508178710937,0.1146339178085327
2024-12-07 16:26:47.333810700,6.016810791015625,0.1799522638320922,-0.3578367233276367,-0.1225301027297973
2024-12-07 16:26:47.343838500,6.02683837890625,0.0717911720275878,-0.3583145141601562,-0.0956528186798095
2024-12-07 16:26:47.353866200,6.0368662109375,0.0827679634094238,-0.2298717498779297,0.0084520578384399
2024-12-07 16:26:47.363894000,6.04689404296875,-0.0149357318878173,-0.1112604141235351,0.2365326881408691
2024-12-07 16:26:47.373921800,6.056921875,-0.0137573480606079,0.0309696197509765,0.1186723709106445
2024-12-07 16:26:47.383949600,6.066949462890625,-0.0284832715988159,0.1731243133544922,-0.3327224254608154
2024-12-07 16:26:47.393977300,6.076977294921875,-0.1454238891601562,0.2151575088500976,-0.6798848509788513
2024-12-07 16:26:47.404005000,6.087005126953125,-0.1779396533966064,0.238743782043457,-0.8546483516693115
2024-12-07 16:26:47.414033000,6.097032958984375,-0.0685673952102661,0.2582960128784179,-0.819165050983429
2024-12-07 16:26:47.424060700,6.107060791015625,0.2111770510673523,0.1781044006347656,-0.5801175236701965
2024-12-07 16:26:47.434088400,6.11708837890625,0.5929260849952698,-0.0021181106567382,-0.236490249633789
2024-12-07 16:26:47.444116000,6.127115966796875,0.9742715358734132,-0.1775465011596679,-0.1443265676498413
2024-12-07 16:26:47.454143700,6.137143798828125,1.2919633388519287,-0.2816629409790039,-0.1040320396423339
2024-12-07 16:26:47.464171500,6.147171630859375,1.488295078277588,-0.3053350448608398,-0.2552918195724487
2024-12-07 16:26:47.474199300,6.15719921875,1.5303161144256592,-0.2582197189331054,-0.4966267347335815
2024-12-07 16:26:47.484227000,6.16722705078125,1.4476754665374756,-0.2835474014282226,-0.6305140256881714
2024-12-07 16:26:47.494254800,6.1772548828125,1.4091531038284302,-0.2709236145019531,-0.7222035527229309
2024-12-07 16:26:47.504282600,6.18728271484375,1.3248238563537598,-0.2009840011596679,-0.6551634669303894
2024-12-07 16:26:47.514310400,6.197310302734375,1.1864471435546875,-0.0929460525512695,-0.3487222194671631
2024-12-07 16:26:47.524338200,6.207338134765625,0.95709490776062,0.0577306747436523,-0.0767443180084228
2024-12-07 16:26:47.534366000,6.217365966796875,0.6332113146781921,0.1552610397338867,0.2651658058166504
2024-12-07 16:26:47.544393700,6.227393798828125,0.4209247827529907,0.1133375167846679,0.526494026184082
2024-12-07 16:26:47.554421500,6.23742138671875,0.1844272315502166,-0.2018404006958007,0.5295515060424805
2024-12-07 16:26:47.564449300,6.24744921875,0.1800072193145752,-0.6943359375,0.3850607872009277
2024-12-07 16:26:47.574477000,6.25747705078125,0.2450957596302032,-1.0431461334228516,-0.3084743022918701
2024-12-07 16:26:47.584504800,6.2675048828125,-0.0108427256345748,-0.870213508605957,-1.0621049404144287
2024-12-07 16:26:47.594532600,6.27753271484375,-0.3212534189224243,-0.2340774536132812,-1.533206820487976
2024-12-07 16:26:47.604560400,6.287560302734375,-0.3393638432025909,0.1472597122192382,-1.7350735664367676
2024-12-07 16:26:47.614588000,6.297587890625,-0.2085202038288116,0.0167512893676757,-1.6481242179870603
2024-12-07 16:26:47.624615700,6.30761572265625,0.0070552304387092,-0.303476333618164,-1.5220892429351809
2024-12-07 16:26:47.634643500,6.3176435546875,0.369048923254013,-0.7693195343017578,-1.105567455291748
2024-12-07 16:26:47.644671200,6.327671142578125,0.5262393355369568,-1.1751327514648438,-0.3857766389846802
2024-12-07 16:26:47.654699000,6.337698974609375,0.6879596710205078,-1.344524383544922,0.3343698978424072
2024-12-07 16:26:47.664726800,6.347726806640625,1.3502779006958008,-1.2405147552490234,0.994743824005127
2024-12-07 16:26:47.674754600,6.357754638671875,1.005443453788757,-0.9990348815917968,1.1973625421524048
2024-12-07 16:26:47.684782300,6.3677822265625,0.1461879014968872,-0.7350797653198242,0.8146677017211914
2024-12-07 16:26:47.694810000,6.37781005859375,0.1089857369661331,-0.5633773803710938,0.6797422170639038
2024-12-07 16:26:47.704838000,6.387837890625,1.188157558441162,-0.5645065307617188,0.0824604034423828
2024-12-07 16:26:47.714865700,6.39786572265625,2.625509738922119,-0.4007415771484375,-1.417243480682373
2024-12-07 16:26:47.724893400,6.4078935546875,3.7540934085845934,-0.2665157318115234,-2.523121833801269
2024-12-07 16:26:47.734921200,6.417921142578125,4.964828968048096,-0.3833904266357422,-2.736896276473999
2024-12-07 16:26:47.744949000,6.427948974609375,4.35061502456665,-0.4575233459472656,-2.574339866638184
2024-12-07 16:26:47.754976800,6.437976806640625,1.5047228336334229,-0.4904460906982422,-1.985754132270813
2024-12-07 16:26:47.765004500,6.448004638671875,-2.0807063579559326,-0.3629903793334961,-1.4335685968399048
2024-12-07 16:26:47.775032000,6.458031982421875,-4.205800533294678,-0.1310501098632812,-1.4669442176818848
2024-12-07 16:26:47.785059800,6.468059814453125,-4.54537296295166,0.1403217315673828,-0.8312538266181946
2024-12-07 16:26:47.795087600,6.478087646484375,-3.9120936393737793,0.1125745773315429,0.4804279804229736
2024-12-07 16:26:47.805115400,6.488115478515625,-2.511775255203247,0.0100831985473632,2.278939723968506
2024-12-07 16:26:47.815143200,6.49814306640625,-1.0651729106903076,0.0031681060791015,3.5787181854248047
2024-12-07 16:26:47.825171000,6.5081708984375,0.3164935111999511,0.0092058181762695,4.055086135864258
2024-12-07 16:26:47.835198700,6.51819873046875,0.8167133331298828,0.0514335632324218,3.94248104095459
2024-12-07 16:26:47.845226500,6.5282265625,1.0619388818740845,0.0579996109008789,3.4760375022888184
2024-12-07 16:26:47.855254300,6.538254150390625,1.322805404663086,0.0384368896484375,2.6576128005981445
2024-12-07 16:26:47.865282000,6.548281982421875,1.460230588912964,-0.15972900390625,2.026405572891236
2024-12-07 16:26:47.875309800,6.558309814453125,1.6030102968215942,-0.3398275375366211,1.1806117296218872
2024-12-07 16:26:47.885337600,6.568337646484375,1.3100091218948364,-0.4677715301513672,0.5017027854919434
2024-12-07 16:26:47.895365400,6.578365478515625,1.2408151626586914,-0.5001697540283203,0.0852031707763671
2024-12-07 16:26:47.905393200,6.58839306640625,1.3473328351974487,-0.3418598175048828,-0.1278870701789856
2024-12-07 16:26:47.915421000,6.5984208984375,0.9895341396331788,0.0161085128784179,-0.110961377620697
2024-12-07 16:26:47.925448700,6.60844873046875,0.6207736730575562,0.5782766342163086,0.0564256310462951
2024-12-07 16:26:47.935476200,6.618476318359375,0.4137784242630005,1.134012222290039,0.3292935490608215
2024-12-07 16:26:47.945504000,6.62850390625,0.3153805732727051,1.5351285934448242,0.5669608116149902
2024-12-07 16:26:47.955531800,6.63853173828125,0.208552598953247,1.7481718063354492,0.6872878670692444
2024-12-07 16:26:47.965559600,6.6485595703125,-0.0174634456634521,1.844991683959961,0.8276962637901306
2024-12-07 16:26:47.975587300,6.65858740234375,-0.2942116260528564,1.830763816833496,0.9054238796234132
2024-12-07 16:26:47.985615000,6.668614990234375,-0.5410282611846924,1.7448348999023438,0.863832414150238
2024-12-07 16:26:47.995643000,6.678642822265625,-0.557878851890564,1.7221746444702148,0.7335639595985413
2024-12-07 16:26:48.005670700,6.688670654296875,-0.449772834777832,1.8156061172485352,0.536534309387207
2024-12-07 16:26:48.015698400,6.698698486328125,-0.3509423732757568,2.0106101036071777,0.2834624052047729
2024-12-07 16:26:48.025726200,6.708726318359375,-0.1996177434921264,2.23998498916626,-0.0542213916778564
2024-12-07 16:26:48.035754000,6.71875390625,-0.1297661066055297,2.4750475883483887,-0.6807194352149963
2024-12-07 16:26:48.045781800,6.72878173828125,0.0399999618530273,2.5727319717407227,-1.4633417129516602
2024-12-07 16:26:48.055809500,6.7388095703125,0.3603450059890747,2.490365982055664,-2.246115207672119
2024-12-07 16:26:48.065837300,6.74883740234375,0.5578190088272095,2.2283520698547363,-3.023209571838379
2024-12-07 16:26:48.075865000,6.758864990234375,0.806647539138794,1.6825780868530271,-3.392143726348877
2024-12-07 16:26:48.085892900,6.768892822265625,1.953566074371338,0.5896501541137695,-3.061016082763672
2024-12-07 16:26:48.095920600,6.778920654296875,2.959628105163574,-1.1850156784057615,-2.706292629241944
2024-12-07 16:26:48.105948200,6.7889482421875,2.8773908615112305,-3.258284568786621,-1.8611081838607788
2024-12-07 16:26:48.115976000,6.798975830078125,1.5598174333572388,-5.208949089050293,-0.468015193939209
2024-12-07 16:26:48.126003700,6.809003662109375,-0.2011017799377441,-6.668560028076172,0.7957396507263184
2024-12-07 16:26:48.136031500,6.819031494140625,-1.5499649047851562,-6.542795181274414,1.4821865558624268
2024-12-07 16:26:48.146059300,6.829059326171875,-2.801260471343994,-4.395072937011719,1.900144934654236
2024-12-07 16:26:48.156087000,6.839087158203125,-4.319301605224609,-1.3996906280517578,2.604199409484864
2024-12-07 16:26:48.166114800,6.84911474609375,-4.282131195068359,1.7880840301513672,2.8271636962890625
2024-12-07 16:26:48.176142600,6.859142578125,-2.89441990852356,3.633232116699219,3.912209510803222
2024-12-07 16:26:48.186170400,6.86917041015625,-1.3512967824935913,4.092263698577881,4.606819152832031
2024-12-07 16:26:48.196198100,6.8791982421875,-0.1158578395843505,3.595881462097168,3.10586166381836
2024-12-07 16:26:48.206226000,6.889225830078125,0.6099668741226196,2.548053741455078,0.9188873767852784
2024-12-07 16:26:48.216253700,6.899253662109375,0.6551306247711182,1.266683578491211,-0.6999622583389282
2024-12-07 16:26:48.226281500,6.909281494140625,0.3154865503311157,-0.0452899932861328,-1.9483139514923096
2024-12-07 16:26:48.236309200,6.919309326171875,0.1988955736160278,-0.9758358001708984,-2.513798236846924
2024-12-07 16:26:48.246337000,6.9293369140625,0.1532555818557739,-1.3008317947387695,-2.185826301574707
2024-12-07 16:26:48.256364800,6.93936474609375,0.3013159036636352,-1.241581916809082,-1.453850269317627
2024-12-07 16:26:48.266392300,6.949392333984375,0.3907521963119507,-1.0527877807617188,-0.8692495822906494
2024-12-07 16:26:48.276420000,6.959420166015625,0.248874545097351,-0.9171009063720704,-0.3461318016052246
2024-12-07 16:26:48.286447900,6.96944775390625,0.0133709907531738,-0.7778511047363281,0.0345920324325561
2024-12-07 16:26:48.296475600,6.9794755859375,-0.1583664417266845,-0.5541486740112305,0.1087085008621215
2024-12-07 16:26:48.306503400,6.98950341796875,-0.4467077255249023,-0.3798456192016601,0.0765188932418823
2024-12-07 16:26:48.316531200,6.99953125,-0.8157417178153992,-0.2544937133789062,0.0048760175704956
2024-12-07 16:26:48.326559000,7.00955908203125,-1.191103219985962,-0.096282958984375,-0.1435316801071167
2024-12-07 16:26:48.336586800,7.019586669921875,-1.2702704668045044,0.0903606414794921,-0.2092735171318054
2024-12-07 16:26:48.346614300,7.0296142578125,-1.0893220901489258,0.2814054489135742,-0.1476489305496215
2024-12-07 16:26:48.356642000,7.03964208984375,-0.7754568457603455,0.4098196029663086,-0.0049524307250976
2024-12-07 16:26:48.366669800,7.049669921875,-0.5684236884117126,0.4088602066040039,0.1809260845184326
2024-12-07 16:26:48.376697600,7.059697509765625,-0.581527829170227,0.3125581741333008,0.2675173282623291
2024-12-07 16:26:48.386725000,7.06972509765625,-0.8041975498199463,0.1834897994995117,0.4666622877120971
2024-12-07 16:26:48.396753000,7.0797529296875,-1.1203434467315674,0.0505828857421875,0.682996392250061
2024-12-07 16:26:48.406780700,7.08978076171875,-1.4376946687698364,-0.0573234558105468,0.9497768878936768
2024-12-07 16:26:48.416808400,7.099808349609375,-1.588207483291626,-0.1021804809570312,1.3033126592636108
2024-12-07 16:26:48.426836000,7.1098359375,-1.5300735235214231,-0.022475242614746,1.7170112133026123
2024-12-07 16:26:48.436863700,7.11986376953125,-1.3650219440460205,-0.0292158126831054,2.0870611667633057
2024-12-07 16:26:48.446891500,7.1298916015625,-1.102689266204834,-0.0938911437988281,2.319646120071411
2024-12-07 16:26:48.456919000,7.1399189453125,-0.7529698014259338,-0.1068572998046875,2.269254207611084
2024-12-07 16:26:48.466946800,7.14994677734375,-0.4843476414680481,-0.1257781982421875,1.6834641695022583
2024-12-07 16:26:48.476974600,7.159974609375,-0.3504422307014465,-0.2220869064331054,0.7869250774383545
2024-12-07 16:26:48.487002400,7.17000244140625,-0.3745851516723633,-0.3665456771850586,-0.0820676088333129
2024-12-07 16:26:48.497030000,7.18002978515625,-0.4944742918014526,-0.4200239181518554,-0.7285139560699463
2024-12-07 16:26:48.507057700,7.1900576171875,-0.5478367209434509,-0.3585414886474609,-1.2268060445785522
2024-12-07 16:26:48.517085400,7.20008544921875,-0.7119150161743164,-0.1822710037231445,-1.3042242527008057
2024-12-07 16:26:48.527113200,7.21011328125,-0.8617129921913147,0.0225610733032226,-1.3157497644424438
2024-12-07 16:26:48.537140700,7.220140625,-0.928751528263092,0.1891946792602539,-1.1423958539962769
2024-12-07 16:26:48.547168500,7.23016845703125,-0.9166648983955384,0.2412595748901367,-0.991411030292511
2024-12-07 16:26:48.557196300,7.2401962890625,-0.8254168033599854,0.1408214569091797,-0.8915751576423645
2024-12-07 16:26:48.567224000,7.25022412109375,-0.6649655103683472,-0.0641918182373046,-0.7149941921234131
2024-12-07 16:26:48.577251600,7.26025146484375,-0.4590139985084533,-0.2876243591308594,-0.7060865163803101
2024-12-07 16:26:48.587279400,7.270279296875,-0.3128306865692138,-0.4386749267578125,-0.5728238224983215
2024-12-07 16:26:48.597307100,7.28030712890625,-0.1313897371292114,-0.5416393280029297,-0.5552423596382141
2024-12-07 16:26:48.607335000,7.2903349609375,0.1020183563232421,-0.5395755767822266,-0.4811898469924927
2024-12-07 16:26:48.617362700,7.30036279296875,0.2421346306800842,-0.4236221313476562,-0.3524839878082275
2024-12-07 16:26:48.627390500,7.310390380859375,0.3926571011543274,-0.2705097198486328,-0.4647198915481567
2024-12-07 16:26:48.637418200,7.320418212890625,0.300504982471466,-0.0515518188476562,-0.4633030891418457
2024-12-07 16:26:48.647445800,7.33044580078125,0.1878818273544311,0.1998786926269531,-0.4675869941711426
2024-12-07 16:26:48.657473500,7.3404736328125,0.1670278310775756,0.4028263092041015,-0.4050828218460083
2024-12-07 16:26:48.667501300,7.350501220703125,0.3722526431083679,0.4476709365844726,-0.3615528345108032
2024-12-07 16:26:48.677529000,7.360529052734375,0.5492450594902039,0.3920650482177734,-0.2796696424484253
2024-12-07 16:26:48.687556900,7.370556884765625,0.697680652141571,0.2361936569213867,-0.2982305288314819
2024-12-07 16:26:48.697584600,7.380584716796875,0.8134686350822449,0.0855531692504882,-0.373296856880188
2024-12-07 16:26:48.707612400,7.3906123046875,0.9831936359405518,-0.1075286865234375,-0.4851936101913452
2024-12-07 16:26:48.717640200,7.40064013671875,1.2344796657562256,-0.2665166854858398,-0.576135516166687
2024-12-07 16:26:48.727668000,7.41066796875,1.5174018144607544,-0.3055553436279297,-0.7270070314407349
2024-12-07 16:26:48.737695700,7.42069580078125,1.6967389583587646,-0.3014030456542969,-0.8133888244628906
2024-12-07 16:26:48.747723500,7.4307236328125,1.720065951347351,-0.2445688247680664,-0.8687757849693298
2024-12-07 16:26:48.757751300,7.440751220703125,1.6796177625656128,-0.1877088546752929,-0.7646317481994629
2024-12-07 16:26:48.767779000,7.450779052734375,1.6922024488449097,-0.1356210708618164,-0.5737044811248779
2024-12-07 16:26:48.777806800,7.460806884765625,1.9066702127456665,-0.1982269287109375,-0.378027081489563
2024-12-07 16:26:48.787834600,7.470834716796875,2.1541907787323,-0.380615234375,-0.2091227769851684
2024-12-07 16:26:48.797862400,7.4808623046875,2.25806212425232,-0.7546539306640625,-0.3360910415649414
2024-12-07 16:26:48.807890200,7.49089013671875,2.1865949630737305,-1.1622819900512695,-0.7854874134063721
2024-12-07 16:26:48.817917700,7.500917724609375,1.723171353340149,-1.2877988815307615,-1.6057937145233154
2024-12-07 16:26:48.827945500,7.510945556640625,0.8361241817474365,-0.901494026184082,-2.5847318172454834
2024-12-07 16:26:48.837973200,7.52097314453125,-0.3493973612785339,-0.3758735656738281,-3.0014333724975586
2024-12-07 16:26:48.848001000,7.5310009765625,-1.1260106563568115,-0.2978658676147461,-2.5550878047943115
2024-12-07 16:26:48.858028800,7.54102880859375,-0.8188706040382385,-0.5758199691772461,-1.2640587091445925
2024-12-07 16:26:48.868056600,7.551056640625,-0.1406156718730926,-0.8140163421630859,0.0022507905960083
2024-12-07 16:26:48.878084400,7.56108447265625,0.5202772617340088,-1.1420917510986328,0.7490679025650024
2024-12-07 16:26:48.888112000,7.571112060546875,1.3231008052825928,-1.526576042175293,1.5172834396362305
2024-12-07 16:26:48.898140000,7.581139892578125,1.808119773864746,-1.4147844314575195,2.1940174102783203
2024-12-07 16:26:48.908167700,7.591167724609375,0.919844686985016,-0.9576435089111328,2.4597973823547363
2024-12-07 16:26:48.918195500,7.601195556640625,-0.2734517455101013,-0.3752346038818359,1.7503737211227417
2024-12-07 16:26:48.928223200,7.61122314453125,-0.066885232925415,0.1824636459350586,0.3172625303268432
2024-12-07 16:26:48.938251000,7.6212509765625,1.010154366493225,0.5983247756958008,-0.5429717302322388
2024-12-07 16:26:48.948278800,7.63127880859375,1.6162354946136477,1.0913677215576172,-0.3717767000198364
2024-12-07 16:26:48.958306600,7.641306640625,1.0389342308044434,1.386526107788086,0.4796417951583862
2024-12-07 16:26:48.968334300,7.651334228515625,-0.1350641250610351,1.535356521606445,0.8229453563690186
2024-12-07 16:26:48.978361900,7.66136181640625,-1.417672634124756,1.443593978881836,0.3718757629394531
2024-12-07 16:26:48.988389600,7.6713896484375,-2.3200020790100098,1.008469581604004,-0.0056293010711669
2024-12-07 16:26:48.998417400,7.68141748046875,-2.514342784881592,0.4220418930053711,0.3071078062057495
2024-12-07 16:26:49.008445200,7.691445068359375,-1.7194719314575195,-0.2489833831787109,0.6020940542221069
2024-12-07 16:26:49.018473000,7.701472900390625,-0.8921607136726379,-0.7270421981811523,1.1742346286773682
2024-12-07 16:26:49.028500700,7.711500732421875,-0.1372164487838745,-0.8071212768554688,2.0089564323425293
2024-12-07 16:26:49.038528500,7.721528564453125,0.7092173099517822,-0.6533317565917969,2.444044589996338
2024-12-07 16:26:49.048556300,7.731556396484375,1.3222405910491943,-0.5149011611938477,2.5098230838775635
2024-12-07 16:26:49.058584000,7.741583984375,1.6052932739257812,-0.2198801040649414,2.293888092041016
2024-12-07 16:26:49.068611800,7.75161181640625,1.6515750885009766,0.0596799850463867,1.924538493156433
2024-12-07 16:26:49.078639600,7.7616396484375,1.4827358722686768,0.2518386840820312,1.5194108486175537
2024-12-07 16:26:49.088667400,7.77166748046875,1.351090431213379,0.3807058334350586,0.7479315996170044
2024-12-07 16:26:49.098695200,7.781695068359375,1.0770119428634644,0.3082036972045898,-0.2495218515396118
2024-12-07 16:26:49.108723000,7.791722900390625,0.7636631727218628,0.1312007904052734,-1.206284999847412
2024-12-07 16:26:49.118750700,7.801750732421875,0.6662485599517822,-0.0966873168945312,-2.047369956970215
2024-12-07 16:26:49.128778500,7.811778564453125,0.7227530479431152,-0.2985153198242187,-2.3698179721832275
2024-12-07 16:26:49.138806000,7.821805908203125,0.7520320415496826,-0.3838253021240234,-2.224062204360962
2024-12-07 16:26:49.148833800,7.831833740234375,0.6356230974197388,-0.2626571655273437,-1.9248957633972168
2024-12-07 16:26:49.158861600,7.841861572265625,0.4465266466140747,-0.0171136856079101,-1.3705745935440063
2024-12-07 16:26:49.168889300,7.851889404296875,0.3620630502700805,0.2801723480224609,-0.8291393518447876
2024-12-07 16:26:49.178917000,7.861917236328125,0.3007829189300537,0.5523138046264648,-0.3892146348953247
2024-12-07 16:26:49.188945000,7.87194482421875,0.3429872989654541,0.7701740264892578,0.1896669864654541
2024-12-07 16:26:49.198972700,7.88197265625,0.5200756788253784,1.0622625350952148,0.3598111867904663
2024-12-07 16:26:49.209000400,7.89200048828125,0.7246804237365723,1.227524757385254,0.3274548053741455
2024-12-07 16:26:49.219028200,7.9020283203125,0.7838280200958252,1.323659896850586,0.1135840415954589
2024-12-07 16:26:49.229056000,7.912055908203125,0.7071026563644409,1.337111473083496,-0.2099647521972656
2024-12-07 16:26:49.239083800,7.922083740234375,0.3870759010314941,1.2740840911865234,-0.2692171335220337
2024-12-07 16:26:49.249111600,7.932111572265625,0.347952127456665,1.178792953491211,-0.1904102563858032
2024-12-07 16:26:49.259139300,7.942139404296875,0.5049796104431152,1.118687629699707,0.0698980093002319
2024-12-07 16:26:49.269167400,7.95216748046875,0.923648238182068,0.95013427734375,0.5628793239593506
2024-12-07 16:26:49.279195100,7.962195068359375,1.20407235622406,0.6914997100830078,0.997866153717041
2024-12-07 16:26:49.289223000,7.972222900390625,1.110767841339111,0.5191583633422852,1.0819199085235596
2024-12-07 16:26:49.299250700,7.982250732421875,0.9267299175262452,0.5238285064697266,0.7212948799133301
2024-12-07 16:26:49.309278500,7.992278564453125,0.7785462141036987,0.6386566162109375,0.2231230735778808
2024-12-07 16:26:49.319306200,8.00230615234375,0.9119572639465332,0.7536935806274414,-0.2133330106735229
2024-12-07 16:26:49.329334000,8.012333984375,1.1352360248565674,0.74444580078125,-0.6859825849533081
2024-12-07 16:26:49.339362000,8.022362060546875,1.2920869588851929,0.6727066040039062,-1.032378911972046
2024-12-07 16:26:49.349389800,8.032389892578125,1.028794288635254,0.6630382537841797,-1.7189552783966064
2024-12-07 16:26:49.359417600,8.04241748046875,0.3876183032989502,0.7738742828369141,-2.5397956371307373
2024-12-07 16:26:49.369445400,8.0524453125,-0.5366767644882202,0.9633798599243164,-3.1690454483032227
2024-12-07 16:26:49.379473200,8.06247314453125,-1.2545123100280762,1.1269140243530271,-3.141666889190674
2024-12-07 16:26:49.389501000,8.0725009765625,-1.5586061477661133,1.1444778442382812,-2.469578981399536
2024-12-07 16:26:49.399528700,8.08252880859375,-1.5824997425079346,0.8720779418945312,-1.3569105863571167
2024-12-07 16:26:49.409556700,8.092556640625,-1.6848140954971311,0.0947198867797851,0.4381687641143799
2024-12-07 16:26:49.419584500,8.10258447265625,-1.336637258529663,-1.431501388549805,2.637046337127685
2024-12-07 16:26:49.429612300,8.1126123046875,-0.6838186979293823,-3.4297027587890625,4.376737117767334
2024-12-07 16:26:49.439640000,8.12264013671875,-0.0893194675445556,-5.207027435302734,5.121634006500244
2024-12-07 16:26:49.449667800,8.132667724609375,0.3885800838470459,-5.454736709594727,4.378355026245117
2024-12-07 16:26:49.459695600,8.142695556640625,0.4128811359405517,-3.78853988647461,2.9805264472961426
2024-12-07 16:26:49.469723400,8.152723388671875,-0.334680438041687,-1.682948112487793,1.9773880243301392
2024-12-07 16:26:49.479751400,8.16275146484375,-0.5222651958465576,0.4716901779174804,0.7676677703857422
2024-12-07 16:26:49.489779200,8.172779296875,-0.8413099050521851,1.892600059509277,0.6330918073654175
2024-12-07 16:26:49.499807000,8.182806884765625,-1.5514096021652222,2.8480329513549805,0.5631715059280396
2024-12-07 16:26:49.509834800,8.192834716796876,-2.480275630950928,3.381387233734131,0.3292574882507324
2024-12-07 16:26:49.519862500,8.202862548828126,-3.2778563499450684,3.2549262046813965,0.1608860492706298
2024-12-07 16:26:49.529890300,8.212890380859376,-3.3611960411071777,2.523477554321289,-0.2242343425750732
2024-12-07 16:26:49.539918000,8.22291796875,-2.492473125457764,1.3315792083740234,-0.4206935167312622
2024-12-07 16:26:49.549946000,8.232946044921874,-1.5518033504486084,0.0561237335205078,-0.2051516771316528
2024-12-07 16:26:49.559974000,8.242973876953124,-1.03197979927063,-0.8399486541748047,-0.4750171899795532
2024-12-07 16:26:49.570001700,8.253001708984375,-0.7833970785140991,-1.4381017684936523,-0.8725678324699402
2024-12-07 16:26:49.580029400,8.263029541015625,-0.4876283407211303,-1.743154525756836,-1.276764154434204
2024-12-07 16:26:49.590057200,8.27305712890625,-0.1566027402877807,-1.7693510055541992,-1.8047456741333008
2024-12-07 16:26:49.600085000,8.2830849609375,0.3697175979614258,-1.6312522888183594,-2.1864051818847656
2024-12-07 16:26:49.610112800,8.29311279296875,0.8969606161117554,-1.4821882247924805,-2.0037612915039062
2024-12-07 16:26:49.620140800,8.303140869140625,1.225322723388672,-1.0935945510864258,-1.5924232006072998
2024-12-07 16:26:49.630168600,8.31316845703125,1.215050458908081,-0.5242795944213867,-0.9758681058883668
2024-12-07 16:26:49.640196400,8.3231962890625,1.0117264986038208,0.0283613204956054,-0.3450073003768921
2024-12-07 16:26:49.650224000,8.33322412109375,0.5651936531066895,0.3773651123046875,0.0445446968078613
2024-12-07 16:26:49.660252000,8.343251953125,-0.0056830644607543,0.5135335922241211,0.2551559209823608
2024-12-07 16:26:49.670279700,8.35327978515625,-0.5707589983940125,0.571537971496582,0.4082643985748291
2024-12-07 16:26:49.680307500,8.363307373046876,-0.8458318710327148,0.5807170867919922,0.6099821329116821
2024-12-07 16:26:49.690335500,8.37333544921875,-0.786848247051239,0.6035833358764648,0.707625150680542
2024-12-07 16:26:49.700363300,8.38336328125,-0.6698662638664246,0.6260814666748047,0.6158628463745117
2024-12-07 16:26:49.710391000,8.39339111328125,-0.6503992676734924,0.5483236312866211,0.412363052368164
2024-12-07 16:26:49.720418800,8.403418701171875,-0.6982365846633911,0.3326091766357422,0.2556755542755127
2024-12-07 16:26:49.730446600,8.413446533203125,-0.7278158068656921,-0.0253858566284179,0.0945005416870117
2024-12-07 16:26:49.740474400,8.423474365234375,-0.8167423009872437,-0.3867950439453125,-0.0556980371475219
2024-12-07 16:26:49.750502100,8.433502197265625,-0.7748689651489258,-0.7136201858520508,-0.0998729467391967
2024-12-07 16:26:49.760530200,8.4435302734375,-0.7904216647148132,-0.8724794387817383,-0.1724313497543335
2024-12-07 16:26:49.770558000,8.453557861328125,-0.9454011917114258,-0.8303403854370117,-0.2532976865768432
2024-12-07 16:26:49.780585700,8.463585693359375,-1.2145390510559082,-0.5062036514282227,-0.245807409286499
2024-12-07 16:26:49.790613500,8.473613525390626,-1.4321926832199097,-0.0626611709594726,-0.1873570680618286
2024-12-07 16:26:49.800641300,8.483641357421876,-1.3584338426589966,0.2993049621582031,0.1117310523986816
2024-12-07 16:26:49.810669000,8.4936689453125,-1.0338149070739746,0.5507087707519531,0.4099681377410888
2024-12-07 16:26:49.820696800,8.50369677734375,-0.4426233768463135,0.5763998031616211,0.88102126121521
2024-12-07 16:26:49.830724900,8.513724853515624,-0.0031224489212036,0.4431076049804687,1.1773229837417605
2024-12-07 16:26:49.840752600,8.523752685546874,-0.0117547512054443,0.2371034622192382,1.002949357032776
2024-12-07 16:26:49.850780400,8.533780517578125,-0.1892777681350708,-0.064767837524414,0.586398720741272
2024-12-07 16:26:49.860808200,8.54380810546875,-0.3190056085586548,-0.3231754302978515,0.174734354019165
2024-12-07 16:26:49.870836000,8.5538359375,-0.361630916595459,-0.4709043502807617,-0.1487506628036499
2024-12-07 16:26:49.880863700,8.56386376953125,-0.3315759897232055,-0.4364709854125976,-0.3263320922851562
2024-12-07 16:26:49.890891500,8.5738916015625,-0.3000264763832092,-0.3015022277832031,-0.4493312835693359
2024-12-07 16:26:49.900919600,8.58391943359375,-0.1294979453086853,-0.1522789001464843,-0.4841883182525635
2024-12-07 16:26:49.910947300,8.593947265625,0.0920225381851196,-0.0941410064697265,-0.417294979095459
2024-12-07 16:26:49.920975000,8.60397509765625,0.3301334381103515,-0.1175012588500976,-0.3739445209503174
2024-12-07 16:26:49.931003000,8.6140029296875,0.5322113037109375,-0.1601095199584961,-0.4117424488067627
2024-12-07 16:26:49.941030700,8.62403076171875,0.6600106358528137,-0.1980209350585937,-0.4922128915786743
2024-12-07 16:26:49.951058400,8.634058349609376,0.780373215675354,-0.2647027969360351,-0.5484904050827026
2024-12-07 16:26:49.961086200,8.644086181640626,0.8781832456588745,-0.3027687072753906,-0.623343825340271
2024-12-07 16:26:49.971114000,8.654114013671874,0.9592656493186952,-0.2310247421264648,-0.5640140771865845
2024-12-07 16:26:49.981142000,8.66414208984375,1.0970075130462646,-0.1025066375732421,-0.3776859045028686
2024-12-07 16:26:49.991169800,8.674169677734374,1.24891996383667,0.1205434799194336,-0.3676437139511108
2024-12-07 16:26:50.001197600,8.684197509765625,1.2084447145462036,0.241887092590332,-0.5051769018173218
2024-12-07 16:26:50.011225300,8.694225341796875,1.026869297027588,0.2377834320068359,-0.5270209312438965
2024-12-07 16:26:50.021253000,8.704253173828125,0.7704264521598816,0.0893745422363281,-0.4953891038894653
2024-12-07 16:26:50.031281000,8.714281005859375,0.4873087406158447,-0.1405439376831054,-0.5231053829193115
2024-12-07 16:26:50.041308700,8.72430859375,0.2038772106170654,-0.2315731048583984,-0.5366474390029907
2024-12-07 16:26:50.051336700,8.734336669921875,0.0714964866638183,-0.1930437088012695,-0.7205784320831299
2024-12-07 16:26:50.061364500,8.744364501953125,0.1963007450103759,-0.2348499298095703,-0.5083634853363037
2024-12-07 16:26:50.071392300,8.754392333984375,0.3771183490753174,-0.3093175888061523,-0.1892286539077758
2024-12-07 16:26:50.081420000,8.764419921875,0.440829336643219,-0.4306259155273437,-0.2833752632141113
2024-12-07 16:26:50.091447800,8.77444775390625,0.3447489142417907,-0.7608413696289062,-0.4925748109817505
2024-12-07 16:26:50.101475600,8.7844755859375,0.1071476340293884,-1.1702156066894531,-0.8052724599838257
2024-12-07 16:26:50.111503400,8.79450341796875,-0.3786765933036804,-1.3333072662353516,-1.2278625965118408
2024-12-07 16:26:50.121531400,8.804531494140624,-0.8124657273292542,-1.1832561492919922,-1.4937968254089355
2024-12-07 16:26:50.131559200,8.81455908203125,-0.997068166732788,-0.6303472518920898,-1.3566051721572876
2024-12-07 16:26:50.141587000,8.8245869140625,-0.8337679505348206,0.156193733215332,-0.876133143901825
2024-12-07 16:26:50.151614700,8.83461474609375,-0.3525876402854919,0.6968450546264648,-0.4275391101837158
2024-12-07 16:26:50.161642500,8.844642578125,0.2175481915473938,0.7477912902832031,-0.0380942821502685
2024-12-07 16:26:50.171670500,8.85467041015625,0.3829947113990783,0.5343160629272461,0.1229746341705322
2024-12-07 16:26:50.181698300,8.8646982421875,0.3093383908271789,0.3678388595581054,0.3258240222930908
2024-12-07 16:26:50.191726000,8.87472607421875,-0.5993958711624146,0.4767904281616211,0.8806643486022949
2024-12-07 16:26:50.201754000,8.884754150390625,-1.7689695358276367,0.5447216033935547,1.1236517429351809
2024-12-07 16:26:50.211782000,8.894781982421875,-1.8809908628463743,0.2677288055419922,0.6678680181503296
2024-12-07 16:26:50.221809700,8.9048095703125,-0.1701592206954956,-0.2983808517456054,-0.1955887079238891
2024-12-07 16:26:50.231837700,8.914837646484376,3.870535373687744,-0.970423698425293,-0.8736711144447327
2024-12-07 16:26:50.241865500,8.924865478515626,5.850869655609131,-1.6206779479980469,-0.6439774036407471
2024-12-07 16:26:50.251893200,8.934893310546874,4.843806743621826,-2.11257553100586,-0.3695367574691772
2024-12-07 16:26:50.261921300,8.94492138671875,1.8288449048995967,-2.1362438201904297,0.1287496089935302
2024-12-07 16:26:50.271949000,8.954948974609374,-1.1847379207611084,-1.5771636962890625,0.4030094146728515
2024-12-07 16:26:50.281976800,8.964976806640625,-2.1614882946014404,-0.8365602493286133,0.4973084926605224
2024-12-07 16:26:50.292004900,8.9750048828125,-1.7124056816101074,-0.197300910949707,1.362002730369568
2024-12-07 16:26:50.302032600,8.98503271484375,-1.4369053840637207,0.3676033020019531,2.2838287353515625
2024-12-07 16:26:50.312060400,8.995060302734375,-1.3015730381011963,0.9201021194458008,1.972879409790039
2024-12-07 16:26:50.322088400,9.00508837890625,-1.2268669605255127,1.1514625549316406,1.4004420042037964
2024-12-07 16:26:50.332116200,9.0151162109375,-0.9672741889953612,1.1064023971557615,1.1780340671539309
2024-12-07 16:26:50.342144000,9.02514404296875,-0.0683050751686096,0.971721649169922,0.7659882307052612
2024-12-07 16:26:50.352172000,9.035172119140626,0.9974539875984192,0.7709274291992188,0.1941478252410888
2024-12-07 16:26:50.362199800,9.04519970703125,1.785068392753601,0.5420684814453125,-0.3165630102157593
2024-12-07 16:26:50.372227600,9.0552275390625,2.2938973903656006,0.3091659545898437,-0.8988507390022278
2024-12-07 16:26:50.382255600,9.065255615234374,2.806016445159912,0.0723276138305664,-1.3079742193222046
2024-12-07 16:26:50.392283400,9.075283447265624,3.384878158569336,-0.1069183349609375,-1.5027451515197754
2024-12-07 16:26:50.402311400,9.0853115234375,3.572047233581543,-0.1339426040649414,-1.3898005485534668
2024-12-07 16:26:50.412339200,9.095339111328125,3.085700273513794,-0.0863676071166992,-1.140906810760498
2024-12-07 16:26:50.422367000,9.105366943359376,2.198166608810425,0.0308742523193359,-0.8719881772994995
2024-12-07 16:26:50.432395000,9.11539501953125,1.3124358654022217,0.13226318359375,-0.6489747166633606
2024-12-07 16:26:50.442422800,9.1254228515625,0.5466355085372925,0.2374114990234375,-0.4614015817642212
2024-12-07 16:26:50.452450600,9.135450439453123,-0.0595332384109497,0.2988786697387695,-0.2223806381225586
2024-12-07 16:26:50.462478600,9.145478515625,-0.3959242105484009,0.3361625671386719,-0.0119963884353637
2024-12-07 16:26:50.472506400,9.15550634765625,-0.5426014065742493,0.4165639877319336,0.2135556936264038
2024-12-07 16:26:50.482534100,9.1655341796875,-0.5595926642417908,0.5641508102416992,0.5538309812545776
2024-12-07 16:26:50.492562200,9.175562255859376,-0.3508143424987793,0.6974611282348633,0.8583729267120361
2024-12-07 16:26:50.502590000,9.18558984375,-0.0184341669082641,0.7968835830688477,0.8280807733535767
2024-12-07 16:26:50.512617700,9.19561767578125,0.1540440320968628,0.8430767059326172,0.3240468502044678
2024-12-07 16:26:50.522645800,9.205645751953124,0.1180599927902221,0.8029613494873047,-0.4301790595054626
2024-12-07 16:26:50.532673500,9.215673583984374,-0.0776910781860351,0.6726446151733398,-1.0477113723754885
2024-12-07 16:26:50.542701300,9.225701416015625,-0.2069407701492309,0.491180419921875,-1.516674280166626
2024-12-07 16:26:50.552729300,9.235729248046876,-0.4065498113632202,0.426548957824707,-1.5243641138076782
2024-12-07 16:26:50.562757000,9.245757080078125,-0.3940483331680298,0.5307960510253906,-0.6059691309928894
2024-12-07 16:26:50.572785000,9.255784912109377,-0.1526616811752319,0.8261442184448242,0.5222113132476807
2024-12-07 16:26:50.582813000,9.26581298828125,0.0164616107940673,1.0776395797729492,1.1918613910675049
2024-12-07 16:26:50.592840700,9.2758408203125,0.3568586111068725,1.1467924118041992,1.2890663146972656
2024-12-07 16:26:50.602868500,9.285868408203124,0.6650524139404297,1.115213394165039,0.989903211593628
2024-12-07 16:26:50.612896500,9.295896484375,0.5013147592544556,1.0216951370239258,0.4750524759292602
2024-12-07 16:26:50.622924300,9.30592431640625,0.0172960758209228,1.029458999633789,-0.1908090114593505
2024-12-07 16:26:50.632952000,9.3159521484375,-0.4077645540237427,1.1388397216796875,-1.0042297840118408
2024-12-07 16:26:50.642980000,9.32597998046875,-0.612214982509613,0.9964351654052734,-1.6512198448181152
2024-12-07 16:26:50.653008100,9.336008056640624,-0.717390239238739,0.5742177963256836,-1.910499930381775
2024-12-07 16:26:50.663036000,9.346035888671874,-0.7476551532745361,0.0018587112426757,-1.653154969215393
2024-12-07 16:26:50.673064000,9.35606396484375,-0.5981996059417725,-0.7400522232055664,-0.4645886421203613
2024-12-07 16:26:50.683091700,9.366091796875,-0.1885483264923095,-1.7723922729492188,1.0041921138763428
2024-12-07 16:26:50.693119700,9.37611962890625,-0.3891223669052124,-2.804295539855957,1.8551139831542969
2024-12-07 16:26:50.703147500,9.3861474609375,-0.7362748980522156,-3.329343795776367,2.277672052383423
2024-12-07 16:26:50.713175600,9.396175537109375,-0.6670255661010742,-2.808555603027344,2.311394691467285
2024-12-07 16:26:50.723203300,9.406203369140623,-0.724628746509552,-1.5688867568969729,2.3498315811157227
2024-12-07 16:26:50.733231400,9.4162314453125,-1.168008804321289,-0.3757343292236328,2.1112425327301025
2024-12-07 16:26:50.743259400,9.42625927734375,-1.2679632902145386,0.6717643737792969,1.677741289138794
2024-12-07 16:26:50.753287200,9.436287109375,-0.5518646240234375,1.4640350341796875,1.5261532068252563
2024-12-07 16:26:50.763315200,9.446315185546876,0.0757515430450439,1.876595497131348,1.3958628177642822
2024-12-07 16:26:50.773343000,9.456343017578124,0.0912456512451171,1.9576539993286133,1.1291767358779907
2024-12-07 16:26:50.783371000,9.46637109375,-0.4699485301971435,1.784746170043945,0.8957332372665405
2024-12-07 16:26:50.793398800,9.476398681640624,-0.7689415812492371,1.3635921478271484,0.6583693027496338
2024-12-07 16:26:50.803426800,9.4864267578125,-0.2983331680297851,0.8952674865722656,0.3382254838943481
2024-12-07 16:26:50.813454600,9.49645458984375,-0.0246156454086303,0.2934522628784179,0.3521323204040527
2024-12-07 16:26:50.823482600,9.506482666015623,-0.0958198308944702,-0.2219829559326172,0.354449987411499
2024-12-07 16:26:50.833510400,9.516510498046877,-0.2384753227233886,-0.6080160140991211,0.1699202060699463
2024-12-07 16:26:50.843538400,9.526538330078123,-0.5905367732048035,-0.8742551803588867,-0.2043386697769165
2024-12-07 16:26:50.853566500,9.53656640625,-1.0871922969818115,-1.020524024963379,-0.5709013342857361
2024-12-07 16:26:50.863594200,9.54659423828125,-1.4999799728393557,-1.0465116500854492,-0.8860777616500854
2024-12-07 16:26:50.873622300,9.556622314453126,-1.630365967750549,-0.9616165161132812,-1.1019291877746582
2024-12-07 16:26:50.883650000,9.566650146484376,-1.5314737558364868,-0.8950033187866211,-1.017819881439209
2024-12-07 16:26:50.893678000,9.576677978515624,-1.2186505794525146,-0.7798671722412109,-0.8307077884674072
2024-12-07 16:26:50.903705900,9.586705810546874,-0.9466160535812378,-0.5876541137695312,-0.7835622429847717
2024-12-07 16:26:50.913734000,9.59673388671875,-0.8551738262176514,-0.3853635787963867,-0.7361059188842773
2024-12-07 16:26:50.923761700,9.60676171875,-0.9483095407485962,-0.1823434829711914,-0.7445709705352783
2024-12-07 16:26:50.933789700,9.616789794921877,-1.0619410276412964,0.0024833679199218,-0.7273514270782471
2024-12-07 16:26:50.943817700,9.626817626953123,-1.213990330696106,0.1501178741455078,-0.837588906288147
2024-12-07 16:26:50.953845500,9.636845458984377,-1.1935640573501587,0.1076679229736328,-0.8084321618080139
2024-12-07 16:26:50.963873500,9.64687353515625,-0.8593026995658875,-0.0343751907348632,-0.7627058625221252
2024-12-07 16:26:50.973901300,9.6569013671875,-0.3627687692642212,-0.1904888153076172,-0.9320639371871948
2024-12-07 16:26:50.983929300,9.666929443359376,-0.0409957766532897,-0.2655172348022461,-1.083035945892334
2024-12-07 16:26:50.993957000,9.67695703125,0.2111403346061706,-0.2597818374633789,-1.0109522342681885
2024-12-07 16:26:51.003985200,9.686985107421876,0.5421752333641052,-0.159311294555664,-0.6317882537841797
2024-12-07 16:26:51.014013000,9.697012939453124,0.7102375030517578,0.0404644012451171,-0.128932237625122
2024-12-07 16:26:51.024041000,9.707041015625,0.9838004112243652,0.1145191192626953,0.3756670951843261
2024-12-07 16:26:51.034068700,9.71706884765625,1.0360326766967771,0.091588020324707,0.5805723667144775
2024-12-07 16:26:51.044096800,9.7270966796875,0.8031173348426819,0.0915508270263671,0.6373064517974854
2024-12-07 16:26:51.054124800,9.737124755859377,0.5376431345939636,0.162388801574707,0.7396410703659058
2024-12-07 16:26:51.064152600,9.747152587890625,0.3626891374588012,0.2897367477416992,0.7980449199676514
2024-12-07 16:26:51.074180600,9.7571806640625,0.1722738742828369,0.5022449493408203,0.9473581314086914
2024-12-07 16:26:51.084208400,9.76720849609375,-0.13106369972229,0.6709041595458984,1.1678301095962524
2024-12-07 16:26:51.094236400,9.777236328125,-0.271480530500412,0.65740966796875,1.401059627532959
2024-12-07 16:26:51.104264200,9.78726416015625,-0.1138834953308105,0.4669532775878906,1.44541597366333
2024-12-07 16:26:51.114292200,9.797292236328126,0.2448124885559082,0.1237087249755859,1.1719231605529783
2024-12-07 16:26:51.124320000,9.807320068359376,0.5441504716873169,-0.3003120422363281,0.4962376356124878
2024-12-07 16:26:51.134348000,9.81734814453125,0.6266729831695557,-0.7472047805786133,-0.3491560220718384
2024-12-07 16:26:51.144375800,9.827375732421874,0.7142693996429443,-1.1257925033569336,-1.104584813117981
2024-12-07 16:26:51.154403800,9.83740380859375,0.7501630783081055,-1.3164997100830078,-1.7448177337646484
2024-12-07 16:26:51.164432000,9.847431884765625,0.6678845882415771,-1.3099870681762695,-2.144750595092773
2024-12-07 16:26:51.174459600,9.857459716796876,0.58695387840271,-1.0398130416870115,-2.299833059310913
2024-12-07 16:26:51.184487700,9.86748779296875,0.3539273142814636,-0.5209550857543945,-2.081451416015625
2024-12-07 16:26:51.194515500,9.877515380859377,0.3707021474838257,-0.1266870498657226,-1.792036771774292
2024-12-07 16:26:51.204543500,9.88754345703125,0.5184505581855774,-0.0192232131958007,-1.3325307369232178
2024-12-07 16:26:51.214571300,9.8975712890625,0.7974815964698792,-0.1074857711791992,-0.6722569465637207
2024-12-07 16:26:51.224599300,9.907599365234375,1.049065351486206,-0.3005380630493164,-0.0948954820632934
2024-12-07 16:26:51.234627000,9.917626953125,1.2573473453521729,-0.5123624801635742,0.3847783803939819
2024-12-07 16:26:51.244655000,9.927655029296876,1.397193431854248,-0.6286220550537109,0.7463793754577637
2024-12-07 16:26:51.254683100,9.93768310546875,1.4630486965179443,-0.5780878067016602,0.8939003944396973
2024-12-07 16:26:51.264711000,9.9477109375,1.5221736431121826,-0.4757070541381836,0.91911780834198
2024-12-07 16:26:51.274739000,9.957739013671874,1.531665563583374,-0.3359127044677734,0.8940722942352295
2024-12-07 16:26:51.284766700,9.9677666015625,1.565953254699707,-0.1301345825195312,0.8338760137557983
2024-12-07 16:26:51.294794800,9.977794677734376,1.6014610528945925,0.0504817962646484,0.8485027551651001
2024-12-07 16:26:51.304822500,9.987822509765625,1.6268718242645264,0.1526966094970703,0.7110937833786011
2024-12-07 16:26:51.314850600,9.9978505859375,0.6567879319190979,0.0187883377075195,0.5312613248825073
2024-12-07 16:26:51.324878300,10.00787841796875,-0.7651748657226562,0.0947904586791992,0.1887903213500976
2024-12-07 16:26:51.334906400,10.01790625,-1.7380468845367432,0.5751132965087891,0.7492148876190186
2024-12-07 16:26:51.344934100,10.02793408203125,-1.471889853477478,0.5876970291137695,1.1744225025177002
2024-12-07 16:26:51.354962200,10.037962158203126,-1.1242413520812988,0.0400753021240234,1.0311944484710691
2024-12-07 16:26:51.364990200,10.047990234375,0.5148788690567017,-0.2936019897460937,0.1805201768875122
2024-12-07 16:26:51.375018000,10.05801806640625,2.3212456703186035,-0.3566150665283203,0.2647345066070556
2024-12-07 16:26:51.385046000,10.0680458984375,1.5151522159576416,-0.3920974731445312,0.6951659917831421
2024-12-07 16:26:51.395073800,10.07807373046875,0.3918755054473877,-0.2094049453735351,-0.010394811630249
2024-12-07 16:26:51.405101800,10.088101806640625,-1.1280033588409424,-0.0465755462646484,-0.9373236894607544
2024-12-07 16:26:51.415129600,10.098129638671876,-2.5113847255706787,0.0555124282836914,-1.6414748430252075
2024-12-07 16:26:51.425157600,10.10815771484375,-3.126205921173096,-0.0106067657470703,-2.009351968765259
2024-12-07 16:26:51.435185400,10.118185302734377,-2.63423490524292,-0.2866115570068359,-1.584869384765625
2024-12-07 16:26:51.445213400,10.12821337890625,-1.588628888130188,-0.4913101196289062,-0.5824708938598633
2024-12-07 16:26:51.455241500,10.138241455078123,-0.4661313891410827,-0.5882101058959961,0.3912482261657715
2024-12-07 16:26:51.465269200,10.148269287109375,0.110838770866394,-0.4546747207641601,1.299970030784607
2024-12-07 16:26:51.475297300,10.15829736328125,0.3261868357658386,-0.0924310684204101,1.9155298471450808
2024-12-07 16:26:51.485325000,10.168324951171876,0.4921121597290039,0.4307003021240234,2.145526885986328
2024-12-07 16:26:51.495353000,10.17835302734375,0.7143097519874573,0.884552001953125,2.14566707611084
2024-12-07 16:26:51.505380900,10.188380859375,1.0613884925842283,1.1444225311279297,1.7803689241409302
2024-12-07 16:26:51.515409000,10.198408935546874,1.573725938796997,1.1487493515014648,1.2282809019088743
2024-12-07 16:26:51.525436700,10.208436767578124,2.22806453704834,0.8982982635498047,0.6353020668029785
2024-12-07 16:26:51.535464700,10.218464599609376,2.9641809463500977,0.4130411148071289,0.018132209777832
2024-12-07 16:26:51.545492500,10.228492431640625,3.707794666290283,-0.2965507507324219,-0.758599042892456
2024-12-07 16:26:51.555520500,10.2385205078125,4.001838684082031,-0.923752784729004,-1.622922420501709
2024-12-07 16:26:51.565548500,10.248548583984377,3.776421546936035,-1.2816762924194336,-2.4737110137939453
2024-12-07 16:26:51.575576300,10.258576416015623,3.107884407043457,-1.4516716003417969,-2.997477769851685
2024-12-07 16:26:51.585604400,10.268604248046875,2.189145565032959,-1.424300193786621,-3.1939945220947266
2024-12-07 16:26:51.595632000,10.278632080078124,1.0705448389053345,-1.0999021530151367,-3.1197967529296875
2024-12-07 16:26:51.605660200,10.28866015625,0.3041079044342041,-0.5751171112060547,-2.9833712577819824
2024-12-07 16:26:51.615688000,10.29868798828125,-0.0897616147994995,-0.0371351242065429,-2.8264451026916504
2024-12-07 16:26:51.625716000,10.308716064453124,0.0139170885086059,0.4278287887573242,-2.680302143096924
2024-12-07 16:26:51.635743700,10.31874365234375,0.708100438117981,0.8195552825927734,-2.159387350082397
2024-12-07 16:26:51.645771800,10.328771728515624,1.4874073266983032,1.0655231475830078,-1.2124534845352173
2024-12-07 16:26:51.655799800,10.3387998046875,1.213829755783081,1.3802490234375,-0.271442711353302
2024-12-07 16:26:51.665827600,10.34882763671875,0.3724949359893799,1.8596258163452148,0.7113649845123291
2024-12-07 16:26:51.675855600,10.358855712890623,-0.6382545232772827,2.2175164222717285,1.4591320753097534
2024-12-07 16:26:51.685883400,10.36888330078125,-1.3217062950134275,2.560720443725586,1.6062192916870115
2024-12-07 16:26:51.695911400,10.378911376953123,-1.4876068830490112,2.780189514160156,1.4068334102630615
2024-12-07 16:26:51.705939200,10.388939208984375,-1.569950819015503,2.728242874145508,1.081186056137085
2024-12-07 16:26:51.715967200,10.39896728515625,-1.341578245162964,2.496328830718994,0.7186529636383057
2024-12-07 16:26:51.725995000,10.4089951171875,-0.6661297082901001,2.1516261100769043,0.5783367156982422
2024-12-07 16:26:51.736023000,10.41902294921875,0.1419354677200317,1.9181146621704104,0.523905873298645
2024-12-07 16:26:51.746050800,10.42905078125,0.5732361078262329,1.799396514892578,0.7239840030670166
2024-12-07 16:26:51.756078800,10.439078857421874,0.837655782699585,1.7898635864257812,0.8508131504058838
2024-12-07 16:26:51.766107000,10.44910693359375,0.8446708917617798,1.7697525024414062,0.5371972322463989
2024-12-07 16:26:51.776134700,10.459134765625,0.6373742818832397,1.648484230041504,0.1550310850143432
2024-12-07 16:26:51.786162700,10.46916259765625,0.4266961812973022,1.1543712615966797,-0.0107899904251098
2024-12-07 16:26:51.796190500,10.4791904296875,1.0280057191848757,-0.1415729522705078,0.2037910223007202
2024-12-07 16:26:51.806218500,10.489218505859377,1.738418698310852,-2.386686325073242,0.6089742183685303
2024-12-07 16:26:51.816246300,10.499246337890623,0.8617502450942993,-4.6949968338012695,0.6279247999191284
2024-12-07 16:26:51.826274300,10.5092744140625,-0.7666878700256348,-7.07414436340332,0.8065036535263062
2024-12-07 16:26:51.836302000,10.519302001953124,-1.5425841808319092,-8.724138259887695,0.980491042137146
2024-12-07 16:26:51.846330000,10.529330078125,-0.4409565925598144,-7.621494293212891,0.4299969673156738
2024-12-07 16:26:51.856358100,10.539358154296876,-1.250909447669983,-4.252309799194336,0.1589703559875488
2024-12-07 16:26:51.866386000,10.549385986328126,-3.247565269470215,-0.6785488128662109,0.2504338026046753
2024-12-07 16:26:51.876414000,10.5594140625,-3.1773881912231445,2.222531795501709,1.5789649486541748
2024-12-07 16:26:51.886441700,10.569441650390624,-2.259007692337036,3.9963412284851074,3.6032345294952393
2024-12-07 16:26:51.896469800,10.5794697265625,-2.040343999862671,4.895137786865234,4.41913652420044
2024-12-07 16:26:51.906497500,10.58949755859375,-2.408735990524292,4.944171905517578,3.0897698402404785
2024-12-07 16:26:51.916525600,10.599525634765625,-2.504956007003784,4.0985636711120605,1.809350609779358
2024-12-07 16:26:51.926553300,10.60955322265625,-2.5237371921539307,2.7857723236083984,0.4603126049041748
2024-12-07 16:26:51.936581400,10.619581298828123,-2.324977159500122,1.2800092697143557,-1.1816810369491575
2024-12-07 16:26:51.946609200,10.629609130859375,-1.8930025100708008,-0.3790340423583984,-1.960750699043274
2024-12-07 16:26:51.956637200,10.63963720703125,-1.1209864616394043,-1.7226457595825195,-2.191697120666504
2024-12-07 16:26:51.966665200,10.649665283203126,-0.476538598537445,-2.4554271697998047,-2.122299909591675
2024-12-07 16:26:51.976693000,10.65969287109375,-0.1958295106887817,-2.583576202392578,-1.957351922988892
2024-12-07 16:26:51.986721000,10.669720947265626,-0.0503710508346557,-2.117464065551758,-1.7250711917877195
2024-12-07 16:26:51.996749000,10.6797490234375,0.4546364545822143,-1.5122098922729492,-0.9493572115898132
2024-12-07 16:26:52.006776800,10.68977685546875,1.1073389053344729,-1.0176477432250977,-0.1102325916290283
2024-12-07 16:26:52.016804900,10.699804931640625,1.3965668678283691,-0.6009483337402344,0.5812467336654663
2024-12-07 16:26:52.026833000,10.7098330078125,1.2611360549926758,-0.1622610092163086,1.073559045791626
2024-12-07 16:26:52.036861000,10.71986083984375,0.7584846019744873,0.2927961349487304,1.38179349899292
2024-12-07 16:26:52.046888700,10.729888671875,0.2252939939498901,0.582493782043457,1.3509581089019775
2024-12-07 16:26:52.056916700,10.739916748046875,-0.0693817138671875,0.6882333755493164,0.9764044284820556
2024-12-07 16:26:52.066944800,10.74994482421875,-0.2595541477203369,0.6298456192016602,0.2985692024230957
2024-12-07 16:26:52.076972800,10.759972900390624,-0.4404608011245727,0.5084199905395508,-0.3310847282409668
2024-12-07 16:26:52.087000600,10.77000048828125,-0.4881749749183655,0.3340225219726562,-0.6809411644935608
2024-12-07 16:26:52.097028600,10.780028564453126,-0.6743069887161255,0.1836280822753906,-0.8118361830711365
2024-12-07 16:26:52.107056600,10.790056640625,-0.7480400800704956,0.0384283065795898,-0.8142247796058655
2024-12-07 16:26:52.117084700,10.800084716796874,-0.7478137016296387,-0.0679912567138671,-0.7781531810760498
2024-12-07 16:26:52.127112400,10.810112548828124,-1.0698509216308594,-0.1258935928344726,-0.5875970125198364
2024-12-07 16:26:52.137140500,10.820140380859376,-1.0061129331588743,-0.1735353469848632,-0.4241372346878052
2024-12-07 16:26:52.147168500,10.83016845703125,-0.7978174090385437,-0.234903335571289,-0.2777218818664551
2024-12-07 16:26:52.157196500,10.840196533203123,-0.6667088866233826,-0.3434953689575195,-0.1766068935394287
2024-12-07 16:26:52.167224300,10.850224365234377,-0.4883752167224884,-0.4130859375,-0.15821373462677
2024-12-07 16:26:52.177252400,10.86025244140625,-0.3582534193992615,-0.4772500991821289,-0.0746545791625976
2024-12-07 16:26:52.187280400,10.8702802734375,-0.1521517038345337,-0.4787321090698242,-0.0409722328186035
2024-12-07 16:26:52.197308400,10.880308349609376,-0.057138979434967,-0.4704504013061523,0.0995938777923584
2024-12-07 16:26:52.207336200,10.890336181640626,-0.0730317234992981,-0.3668127059936523,0.2635179758071899
2024-12-07 16:26:52.217364200,10.9003642578125,-0.0896297693252563,-0.2159395217895507,0.0726693868637085
2024-12-07 16:26:52.227392300,10.910392333984374,-0.1312295198440551,-0.1086387634277343,0.216246485710144
2024-12-07 16:26:52.237420300,10.920420166015624,-0.1642219424247741,-0.0165052413940429,0.4619742631912231
2024-12-07 16:26:52.247448000,10.930447998046876,-0.1605846881866455,0.0604848861694335,0.4467353820800781
2024-12-07 16:26:52.257476000,10.94047607421875,-0.19212007522583,0.0076589584350585,0.5242035388946533
2024-12-07 16:26:52.267504000,10.950504150390625,-0.076723039150238,-0.1027717590332031,0.3896087408065796
2024-12-07 16:26:52.277532200,10.9605322265625,-0.047067105770111,-0.1796674728393554,0.3259800672531128
2024-12-07 16:26:52.287560000,10.970559814453123,0.1327269077301025,-0.2323989868164062,-0.0002970695495605
2024-12-07 16:26:52.297588000,10.980587890625,0.4286970496177673,-0.2178936004638672,-0.3631635904312134
2024-12-07 16:26:52.307616000,10.990615966796875,0.6290753483772278,-0.1506986618041992,-0.6285578012466431
2024-12-07 16:26:52.317644000,11.00064404296875,0.7426339983940125,-0.0406198501586914,-1.0597529411315918
2024-12-07 16:26:52.327671800,11.010671875,0.8364585041999817,0.0744543075561523,-1.3769406080245972
2024-12-07 16:26:52.337699800,11.020699951171874,0.8532513976097107,0.036971092224121,-1.4510245323181152
2024-12-07 16:26:52.347728000,11.030727783203124,0.7103859186172485,-0.0764913558959961,-1.3979904651641846
2024-12-07 16:26:52.357756000,11.040755859375,0.4785168170928955,-0.2613382339477539,-1.1816210746765137
2024-12-07 16:26:52.367783700,11.05078369140625,0.382525622844696,-0.4126901626586914,-0.8093430399894714
2024-12-07 16:26:52.377811700,11.060811767578125,0.5003481507301331,-0.4827260971069336,-0.5058596134185791
2024-12-07 16:26:52.387839700,11.07083984375,0.8527261018753052,-0.447575569152832,-0.0031133890151977
2024-12-07 16:26:52.397867800,11.08086767578125,1.433895230293274,-0.3460865020751953,0.3381962776184082
2024-12-07 16:26:52.407895600,11.0908955078125,1.9586076736450195,-0.2073202133178711,0.4463329315185547
2024-12-07 16:26:52.417923600,11.100923583984375,2.1989145278930664,-0.1128730773925781,0.4979627132415771
2024-12-07 16:26:52.427951600,11.11095166015625,2.178692102432251,-0.1584300994873047,0.549369215965271
2024-12-07 16:26:52.437979600,11.120979736328126,2.0103673934936523,-0.377145767211914,0.4278781414031982
2024-12-07 16:26:52.448007400,11.13100732421875,1.7764724493026731,-0.6821069717407227,0.0745459794998169
2024-12-07 16:26:52.458035500,11.141035400390624,1.5625832080841064,-1.0149011611938477,-0.3426309823989868
2024-12-07 16:26:52.468063500,11.1510634765625,1.2593421936035156,-1.2789373397827148,-0.7801908254623413
2024-12-07 16:26:52.478091500,11.161091552734376,0.7533289194107056,-1.3540515899658203,-1.0823285579681396
2024-12-07 16:26:52.488119600,11.17111962890625,0.3793918490409851,-1.1253652572631836,-1.3111016750335691
2024-12-07 16:26:52.498147300,11.181147216796877,0.7114719152450562,-0.8661460876464844,-1.533660650253296
2024-12-07 16:26:52.508175400,11.19117529296875,0.8587214946746826,-0.6259145736694336,-1.7630102634429932
2024-12-07 16:26:52.518203400,11.201203369140623,-0.2004089653491974,-0.400491714477539,-2.1246817111968994
2024-12-07 16:26:52.528231400,11.2112314453125,-2.215709686279297,0.1780385971069336,-2.097886085510254
2024-12-07 16:26:52.538259200,11.22125927734375,-4.453579425811768,0.8980951309204102,-1.523807168006897
2024-12-07 16:26:52.548287200,11.231287353515626,-4.319310188293457,1.0235977172851562,-0.9773150086402892
2024-12-07 16:26:52.558315300,11.241315185546876,-0.3402369618415832,0.7758245468139648,-1.312149167060852
2024-12-07 16:26:52.568343300,11.25134326171875,5.8661417961120605,-0.1215734481811523,-0.983154594898224
2024-12-07 16:26:52.578371000,11.26137109375,9.172561645507812,-0.6272363662719727,0.2056125402450561
2024-12-07 16:26:52.588399000,11.271399169921876,7.619677543640137,-0.696380615234375,2.309619188308716
2024-12-07 16:26:52.598427100,11.28142724609375,2.812361717224121,-0.447265625,4.124716281890869
2024-12-07 16:26:52.608455200,11.291455078125,-2.384995937347412,0.1294174194335937,4.270741939544678
2024-12-07 16:26:52.618483000,11.30148291015625,-4.514200210571289,0.7063722610473633,2.986289501190185
2024-12-07 16:26:52.628511000,11.311510986328123,-4.317603588104248,0.8720741271972656,1.3922646045684814
2024-12-07 16:26:52.638539000,11.3215390625,-3.640711307525635,0.5265483856201172,0.2527155876159668
2024-12-07 16:26:52.648567000,11.331567138671875,-2.58133316040039,-0.2170429229736328,-0.209073781967163
2024-12-07 16:26:52.658594800,11.3415947265625,-1.4828137159347534,-0.8813066482543945,-0.5894514322280884
2024-12-07 16:26:52.668622800,11.351622802734376,-0.6656339764595032,-0.9805688858032228,-1.3224186897277832
2024-12-07 16:26:52.678651000,11.36165087890625,-0.3988562822341919,-0.7223176956176758,-2.117034435272217
2024-12-07 16:26:52.688679000,11.371678955078124,-0.4115581512451172,-0.2984256744384765,-2.581390857696533
2024-12-07 16:26:52.698707000,11.38170703125,0.0883495807647705,0.1751613616943359,-2.45562744140625
2024-12-07 16:26:52.708735000,11.39173486328125,0.9277997016906738,0.6014251708984375,-1.944016933441162
2024-12-07 16:26:52.718763000,11.401762939453125,1.7868379354476929,0.8545379638671875,-1.1829413175582886
2024-12-07 16:26:52.728791000,11.411791015625,2.306338310241699,1.053278923034668,-0.5279993414878845
2024-12-07 16:26:52.738819000,11.421819091796875,2.5911123752593994,1.1779394149780271,0.14481782913208
2024-12-07 16:26:52.748847000,11.43184716796875,2.714774370193481,1.2851066589355469,1.0877238512039185
2024-12-07 16:26:52.758875100,11.441875244140626,2.511768102645874,1.5794525146484375,1.9078350067138672
2024-12-07 16:26:52.768903200,11.451903076171876,1.8349697589874268,1.917357444763184,2.4273123741149902
2024-12-07 16:26:52.778931200,11.46193115234375,1.0571060180664062,2.2564330101013184,2.4514174461364746
2024-12-07 16:26:52.788959200,11.471959228515624,0.4875900745391845,2.5545668601989746,2.1089296340942383
2024-12-07 16:26:52.798987000,11.481987060546874,0.3727059364318847,2.7264604568481445,1.6693439483642578
2024-12-07 16:26:52.809015000,11.49201513671875,0.4499968290328979,2.7392702102661133,1.1815979480743408
2024-12-07 16:26:52.819043000,11.50204296875,0.5762170553207397,2.564858913421631,0.961891770362854
2024-12-07 16:26:52.829071000,11.512071044921877,0.92928946018219,2.098680019378662,1.1187852621078491
2024-12-07 16:26:52.839099100,11.52209912109375,1.2937198877334597,1.3651962280273438,1.2401279211044312
2024-12-07 16:26:52.849127200,11.532127197265623,1.530429720878601,0.4748344421386719,1.3319016695022583
2024-12-07 16:26:52.859155200,11.5421552734375,1.715468168258667,-0.3618631362915039,1.0333105325698853
2024-12-07 16:26:52.869183200,11.552183349609376,1.9013710021972656,-0.9918146133422852,0.1775015592575073
2024-12-07 16:26:52.879211300,11.562211181640626,1.9020631313323977,-1.5435762405395508,-1.2319988012313845
2024-12-07 16:26:52.889239300,11.5722392578125,1.6491717100143433,-2.049562454223633,-3.049909830093384
2024-12-07 16:26:52.899267300,11.582267333984374,1.716623306274414,-2.561540603637696,-4.797229766845703
