time,seconds_elapsed,z,y,x
2024-12-07 16:32:16.740130300,0.14013037109375,0.0784130096435546,-0.2842483520507812,-0.1635266542434692
2024-12-07 16:32:16.750173200,0.150173095703125,0.1722772121429443,-0.2537307739257812,-0.1362593173980713
2024-12-07 16:32:16.760219400,0.160219482421875,0.1805377006530761,-0.1838970184326172,-0.1791368722915649
2024-12-07 16:32:16.770268000,0.170267822265625,0.0963537693023681,-0.1383800506591797,-0.1984212398529052
2024-12-07 16:32:16.780317700,0.180317626953125,0.1031739711761474,-0.13250732421875,-0.1420247554779052
2024-12-07 16:32:16.790368300,0.1903681640625,0.109919786453247,-0.1188154220581054,-0.0721715688705444
2024-12-07 16:32:16.800409300,0.200409423828125,0.0625796318054199,-0.0707626342773437,-0.0423187017440795
2024-12-07 16:32:16.810437600,0.210437744140625,0.067683458328247,-0.0664815902709961,-0.0229741334915161
2024-12-07 16:32:16.820465700,0.220465576171875,0.0816245079040527,-0.0445938110351562,0.0854808092117309
2024-12-07 16:32:16.830494000,0.230493896484375,0.0088341236114501,-0.0421018600463867,0.0928530693054199
2024-12-07 16:32:16.840522200,0.240522216796875,-0.0509402751922607,0.0057029724121093,0.0728257894515991
2024-12-07 16:32:16.850550300,0.25055029296875,-0.0896213054656982,0.0421104431152343,0.0268973112106323
2024-12-07 16:32:16.860578600,0.26057861328125,-0.121730089187622,0.0449962615966796,0.0613887310028076
2024-12-07 16:32:16.870606600,0.270606689453125,-0.088008165359497,0.011301040649414,0.1086102724075317
2024-12-07 16:32:16.880635000,0.280634765625,-0.0191199779510498,-0.0255460739135742,0.1310981512069702
2024-12-07 16:32:16.890663000,0.290662841796875,0.0050904750823974,-0.0472822189331054,0.1159524917602539
2024-12-07 16:32:16.900691200,0.300691162109375,0.0051054954528808,-0.0822410583496093,0.0930616855621337
2024-12-07 16:32:16.910719500,0.310719482421875,0.0609197616577148,-0.1297864913940429,0.1913646459579467
2024-12-07 16:32:16.920747500,0.32074755859375,0.128859281539917,-0.1156778335571289,0.1336328983306884
2024-12-07 16:32:16.930775800,0.33077587890625,0.124901533126831,-0.1392440795898437,0.0777798891067504
2024-12-07 16:32:16.940803800,0.340803955078125,0.0419435501098632,-0.1114339828491211,0.0285341739654541
2024-12-07 16:32:16.950832000,0.35083203125,0.0493495464324951,-0.1263675689697265,0.0266379117965698
2024-12-07 16:32:16.960860200,0.360860107421875,0.0469870567321777,-0.1455202102661132,-0.0227092504501342
2024-12-07 16:32:16.970888400,0.370888427734375,0.0167255401611328,-0.0946302413940429,-0.1169918775558471
2024-12-07 16:32:16.980916700,0.380916748046875,0.0340924263000488,-0.0452518463134765,-0.0041636228561401
2024-12-07 16:32:16.990944800,0.39094482421875,0.0137791633605957,-0.0018520355224609,0.0487663745880126
2024-12-07 16:32:17.000973000,0.40097314453125,-0.0426654815673828,0.040511131286621,0.0488395690917968
2024-12-07 16:32:17.011001000,0.4110009765625,-0.0502810478210449,0.044656753540039,0.081748366355896
2024-12-07 16:32:17.021029400,0.421029296875,0.0129356384277343,-0.0722455978393554,0.1227484941482544
2024-12-07 16:32:17.031057400,0.431057373046875,0.0556581020355224,-0.1021051406860351,-0.0344043970108032
2024-12-07 16:32:17.041085700,0.441085693359375,0.0548148155212402,-0.0521326065063476,-0.1264055967330932
2024-12-07 16:32:17.051113700,0.45111376953125,0.068058967590332,-0.0267906188964843,-0.0759233236312866
2024-12-07 16:32:17.061142000,0.46114208984375,0.0250244140625,-0.0347394943237304,-0.0035089254379272
2024-12-07 16:32:17.071170300,0.47117041015625,0.0020859241485595,-0.0235881805419921,0.0148485898971557
2024-12-07 16:32:17.081198300,0.4811982421875,0.0033848285675048,0.0062980651855468,0.0126259326934814
2024-12-07 16:32:17.091226600,0.4912265625,0.0048646926879882,0.0308895111083984,-0.1299836635589599
2024-12-07 16:32:17.101254700,0.501254638671875,-0.0122756958007812,0.1016759872436523,-0.1184775829315185
2024-12-07 16:32:17.111283000,0.511282958984375,-0.0102267265319824,0.105255126953125,0.0157233476638793
2024-12-07 16:32:17.121311000,0.52131103515625,0.0620825290679931,0.033827781677246,0.0436397790908813
2024-12-07 16:32:17.131339300,0.53133935546875,0.1556799411773681,0.0245885848999023,0.0199329853057861
2024-12-07 16:32:17.141367600,0.541367431640625,0.1476538181304931,0.0011320114135742,-0.0173627138137817
2024-12-07 16:32:17.151395600,0.5513955078125,0.0269191265106201,0.0390863418579101,-0.0397921800613403
2024-12-07 16:32:17.161424000,0.561423828125,0.008096694946289,-0.1065149307250976,-0.0059304237365722
2024-12-07 16:32:17.171452000,0.571451904296875,-0.1556534767150879,0.1639928817749023,-0.3006994724273681
2024-12-07 16:32:17.181480200,0.581480224609375,-0.1700842380523681,0.1567621231079101,-0.2395850419998169
2024-12-07 16:32:17.191508200,0.59150830078125,-0.1601200103759765,0.0181665420532226,-0.1366910934448242
2024-12-07 16:32:17.201536500,0.60153662109375,-0.2401809692382812,0.0981512069702148,-0.0818374156951904
2024-12-07 16:32:17.211564800,0.611564697265625,-0.0836834907531738,-0.1526250839233398,0.1843268871307373
2024-12-07 16:32:17.221592800,0.6215927734375,0.0891013145446777,-0.4690656661987304,0.3192343711853027
2024-12-07 16:32:17.231621000,0.63162109375,0.0980498790740966,-0.3283338546752929,0.167394757270813
2024-12-07 16:32:17.241649200,0.641649169921875,0.1302478313446045,-0.3218202590942383,0.3610284924507141
2024-12-07 16:32:17.251677400,0.651677490234375,0.1897439956665039,-0.1645698547363281,0.2385072708129882
2024-12-07 16:32:17.261705500,0.66170556640625,0.0922324657440185,-0.0805072784423828,0.1962637901306152
2024-12-07 16:32:17.271733800,0.671733642578125,0.0376620292663574,-0.0310325622558593,-0.0011463165283203
2024-12-07 16:32:17.281762000,0.681761962890625,-0.0731561183929443,-0.0344438552856445,-0.0015622377395629
2024-12-07 16:32:17.291790000,0.6917900390625,-0.1025781631469726,-0.0004091262817382,-0.0668002367019653
2024-12-07 16:32:17.301818400,0.701818359375,-0.1873223781585693,0.037825584411621,-0.0264601707458496
2024-12-07 16:32:17.311846400,0.711846435546875,-0.1949038505554199,0.3202104568481445,-0.3669116497039795
2024-12-07 16:32:17.321874700,0.721874755859375,-0.0613963603973388,0.1926698684692382,-0.1397620439529419
2024-12-07 16:32:17.331902700,0.73190283203125,-0.0668656826019287,0.0298328399658203,0.1565454006195068
2024-12-07 16:32:17.341931000,0.741930908203125,-0.2158560752868652,0.5435523986816406,-0.3518019914627075
2024-12-07 16:32:17.351959000,0.751958984375,-0.0716786384582519,-0.1012763977050781,-0.1063402891159057
2024-12-07 16:32:17.361987300,0.7619873046875,-0.0179195404052734,-0.0190410614013671,-0.2152705192565918
2024-12-07 16:32:17.372015600,0.772015625,0.0450708866119384,0.1466703414916992,-0.1756818294525146
2024-12-07 16:32:17.382043600,0.782043701171875,0.0560038089752197,0.1729259490966797,-0.1810494661331176
2024-12-07 16:32:17.392072000,0.792072021484375,0.0874483585357666,0.1561918258666992,0.0212972164154052
2024-12-07 16:32:17.402100000,0.802099853515625,0.4119148254394531,-0.1327219009399414,-0.0687322616577148
2024-12-07 16:32:17.412128300,0.812128173828125,0.4779813289642334,0.1061553955078125,-0.0442131757736206
2024-12-07 16:32:17.422156300,0.82215625,0.7829439640045166,0.109893798828125,-0.1441489458084106
2024-12-07 16:32:17.432184600,0.8321845703125,0.6666417121887207,0.1880149841308593,0.0668286085128784
2024-12-07 16:32:17.442212900,0.842212890625,0.466409683227539,0.2031354904174804,0.0826565027236938
2024-12-07 16:32:17.452241000,0.852240966796875,0.3167691230773926,0.2180900573730468,0.1448873281478881
2024-12-07 16:32:17.462269200,0.862269287109375,0.2141990661621093,0.3791751861572265,0.2495839595794677
2024-12-07 16:32:17.472297200,0.872297119140625,0.3182086944580078,0.2131271362304687,0.3490665555000305
2024-12-07 16:32:17.482325500,0.882325439453125,0.3675816059112549,0.1262664794921875,0.506918728351593
2024-12-07 16:32:17.492353500,0.892353515625,0.7269608974456787,-0.2683629989624023,0.5184684991836548
2024-12-07 16:32:17.502381800,0.9023818359375,1.120982646942139,-0.4584989547729492,0.2333602905273437
2024-12-07 16:32:17.512410000,0.91241015625,1.106389045715332,0.3224372863769531,-0.5339177846908569
2024-12-07 16:32:17.522438100,0.922438232421875,0.6784989833831787,0.7816600799560547,0.2164317369461059
2024-12-07 16:32:17.532466400,0.932466552734375,-0.0360562801361084,-0.0431251525878906,0.0442478656768798
2024-12-07 16:32:17.542494500,0.942494384765625,-0.0800135135650634,-0.5087318420410156,0.2425554990768432
2024-12-07 16:32:17.552522800,0.952522705078125,0.0832865238189697,-0.2774295806884765,0.1881942749023437
2024-12-07 16:32:17.562550800,0.96255078125,-0.0341048240661621,0.5819330215454102,-0.1556346416473388
2024-12-07 16:32:17.572579000,0.9725791015625,-0.0827126502990722,0.2324085235595703,0.2456638813018798
2024-12-07 16:32:17.582607400,0.982607421875,0.1122651100158691,0.1252288818359375,0.3922445178031921
2024-12-07 16:32:17.592635400,0.992635498046875,0.3188800811767578,-0.0231342315673828,0.1564476490020752
2024-12-07 16:32:17.602663700,1.00266357421875,-0.0545015335083007,1.0028305053710938,0.1037253141403198
2024-12-07 16:32:17.612691700,1.012691650390625,0.0690836906433105,1.573198318481445,-0.1585829257965088
2024-12-07 16:32:17.622720000,1.022719970703125,0.4992938041687011,1.8050637245178225,0.7232638001441956
2024-12-07 16:32:17.632748000,1.032748046875,0.500086784362793,3.56070613861084,2.3321950435638428
2024-12-07 16:32:17.642776300,1.0427763671875,0.2418293952941894,3.511155128479004,1.1052266359329224
2024-12-07 16:32:17.652804400,1.052804443359375,0.7977609634399414,3.0709919929504395,0.5766345262527466
2024-12-07 16:32:17.662832600,1.06283251953125,0.5521001815795898,2.0856242179870605,0.0890144109725952
2024-12-07 16:32:17.672861000,1.07286083984375,0.5097198486328125,1.1700124740600586,-0.0560227632522583
2024-12-07 16:32:17.682889000,1.082888916015625,0.6315867900848389,0.3893375396728515,-0.0556752681732177
2024-12-07 16:32:17.692917200,1.092917236328125,-0.1584630012512207,-0.0478849411010742,0.1345852017402649
2024-12-07 16:32:17.702945300,1.1029453125,0.1375586986541748,0.1031885147094726,-0.221527099609375
2024-12-07 16:32:17.712973600,1.1129736328125,0.1098818778991699,0.119420051574707,-0.3206250667572021
2024-12-07 16:32:17.723001600,1.123001708984375,-0.2864693403244018,0.5825309753417969,-0.5836203098297119
2024-12-07 16:32:17.733030000,1.13302978515625,-0.4105441570281982,1.0720243453979492,-1.0473414659500122
2024-12-07 16:32:17.743058200,1.14305810546875,0.1725468635559082,1.230905532836914,-0.9555744528770448
2024-12-07 16:32:17.753086200,1.153086181640625,0.2323989868164062,1.099529266357422,-0.3985731601715088
2024-12-07 16:32:17.763114500,1.163114501953125,-0.0253456830978393,1.2790250778198242,-0.0670691728591919
2024-12-07 16:32:17.773142500,1.173142578125,-0.3267688751220703,0.9266576766967772,-0.0258623957633972
2024-12-07 16:32:17.783170800,1.1831708984375,-0.3950874805450439,-1.7290153503417969,0.5773742198944092
2024-12-07 16:32:17.793198800,1.19319873046875,-0.6213823556900024,-6.896368026733398,1.1868343353271484
2024-12-07 16:32:17.803227100,1.20322705078125,0.521051287651062,-8.048905372619629,0.0188296437263488
2024-12-07 16:32:17.813255400,1.21325537109375,1.2946579456329346,-4.009361267089844,-2.648520469665528
2024-12-07 16:32:17.823283500,1.223283447265625,0.1908415555953979,-1.7407150268554688,-2.998718738555908
2024-12-07 16:32:17.833311700,1.233311767578125,0.1435317993164062,-2.420638084411621,-1.4230501651763916
2024-12-07 16:32:17.843339800,1.24333984375,1.044769287109375,-2.031680107116699,-0.685834527015686
2024-12-07 16:32:17.853368000,1.2533681640625,1.1538927555084229,-1.2338876724243164,-0.2685883641242981
2024-12-07 16:32:17.863396000,1.26339599609375,0.6527860164642334,-0.3483247756958008,0.1629801988601684
2024-12-07 16:32:17.873424400,1.27342431640625,0.0303047895431518,-0.262298583984375,0.6334894895553589
2024-12-07 16:32:17.883452700,1.28345263671875,0.2071133852005005,-0.1715574264526367,0.3194871246814728
2024-12-07 16:32:17.893480700,1.293480712890625,0.2023876905441284,0.0033655166625976,-0.1369327306747436
2024-12-07 16:32:17.903509000,1.303509033203125,-0.0065499544143676,0.2853918075561523,-0.5097061395645142
2024-12-07 16:32:17.913537000,1.313537109375,-0.4394625425338745,0.2464532852172851,-0.5843246579170227
2024-12-07 16:32:17.923565300,1.3235654296875,-0.6458203792572021,-0.1392107009887695,-0.6370839476585388
2024-12-07 16:32:17.933593300,1.33359326171875,-0.8076282143592834,-0.4414386749267578,-0.4242027997970581
2024-12-07 16:32:17.943621600,1.34362158203125,-0.7824791073799133,-0.6797761917114258,0.0794844627380371
2024-12-07 16:32:17.953649700,1.353649658203125,-0.626366913318634,-0.6408224105834961,0.6859887838363647
2024-12-07 16:32:17.963678000,1.363677978515625,-0.849829375743866,-0.5919284820556641,0.7548765540122986
2024-12-07 16:32:17.973706200,1.373706298828125,-0.561845064163208,-0.480966567993164,0.7890462279319763
2024-12-07 16:32:17.983734300,1.383734375,-0.5090618133544922,-0.4510440826416015,0.8628495335578918
2024-12-07 16:32:17.993762600,1.393762451171875,-0.0978860855102539,-0.6398677825927734,0.3306496441364288
2024-12-07 16:32:18.003790600,1.40379052734375,-0.0560624599456787,-0.5475301742553711,-0.1145519614219665
2024-12-07 16:32:18.013819000,1.41381884765625,-0.4223934412002563,-0.3758039474487304,-0.3985660672187805
2024-12-07 16:32:18.023847000,1.423846923828125,-0.7445254325866699,-0.2344198226928711,-0.6476256847381592
2024-12-07 16:32:18.033875200,1.433875244140625,-0.9879186153411864,-0.0325698852539062,-0.7476494908332825
2024-12-07 16:32:18.043903500,1.443903564453125,-0.5513270497322083,0.7379255294799805,-0.6640599370002747
2024-12-07 16:32:18.053931500,1.453931640625,-1.036825180053711,1.2167387008666992,-1.2508995532989502
2024-12-07 16:32:18.063959800,1.463959716796875,-1.9082565307617188,0.648193359375,-0.8691825866699219
2024-12-07 16:32:18.073987800,1.47398779296875,-1.3617044687271118,-0.046919822692871,-0.3204205632209778
2024-12-07 16:32:18.084016000,1.48401611328125,-0.6489706039428711,-0.2694435119628906,0.2633313536643982
2024-12-07 16:32:18.094044200,1.494044189453125,-0.1987082958221435,-0.023055076599121,0.701213002204895
2024-12-07 16:32:18.104072400,1.504072509765625,0.3848756551742553,-0.0962696075439453,0.4826499819755554
2024-12-07 16:32:18.114100700,1.514100830078125,0.943852424621582,0.0151300430297851,-0.0351343750953674
2024-12-07 16:32:18.124128800,1.524128662109375,1.1285640001296997,0.1276159286499023,-0.0604218244552612
2024-12-07 16:32:18.134157000,1.534156982421875,0.4600688219070434,-0.0627660751342773,1.31968092918396
2024-12-07 16:32:18.144185000,1.54418505859375,-0.1537978649139404,-0.0712080001831054,1.5288734436035156
2024-12-07 16:32:18.154213400,1.55421337890625,-0.3843903541564941,0.2345809936523437,0.7847782969474792
2024-12-07 16:32:18.164241400,1.564241455078125,-0.5631837844848633,0.14874267578125,0.4056994915008545
2024-12-07 16:32:18.174269700,1.574269775390625,-0.6010501384735107,0.2921428680419922,0.408064067363739
2024-12-07 16:32:18.184298000,1.584298095703125,-0.224840760231018,0.2299880981445312,-0.0075498223304748
2024-12-07 16:32:18.194326000,1.594325927734375,0.4023281335830688,0.1387243270874023,-0.2037698030471801
2024-12-07 16:32:18.204354300,1.604354248046875,0.4374846220016479,0.2044925689697265,0.3892967998981476
2024-12-07 16:32:18.214382300,1.61438232421875,0.3261940479278564,0.5080881118774414,0.0481680035591125
2024-12-07 16:32:18.224410600,1.62441064453125,0.2252806425094604,0.3294706344604492,-0.0371127724647522
2024-12-07 16:32:18.234438700,1.634438720703125,-0.134974718093872,0.3284139633178711,-0.2763698697090149
2024-12-07 16:32:18.244467000,1.644467041015625,-0.3402017951011657,-0.165924072265625,0.1036655306816101
2024-12-07 16:32:18.254495000,1.654494873046875,0.7106233835220337,-0.3240280151367187,-0.8120694756507874
2024-12-07 16:32:18.264523300,1.664523193359375,0.5808876752853394,-0.1401538848876953,-0.840192437171936
2024-12-07 16:32:18.274551600,1.674551513671875,-0.3951280117034912,-0.0809812545776367,-0.8324822783470154
2024-12-07 16:32:18.284579600,1.68457958984375,-0.4093560576438904,-0.0645580291748046,-1.0342587232589722
2024-12-07 16:32:18.294608000,1.69460791015625,-0.3753634691238403,0.0089120864868164,-0.9919447302818298
2024-12-07 16:32:18.304636000,1.704635986328125,-0.5029820203781128,0.0486507415771484,-0.8689026832580566
2024-12-07 16:32:18.314664200,1.714664306640625,-0.5905587673187256,-0.0164728164672851,-0.7128984332084656
2024-12-07 16:32:18.324692200,1.724692138671875,-0.5667710304260254,-0.0810670852661132,-0.4770990014076233
2024-12-07 16:32:18.334720500,1.734720458984375,-0.5364538431167603,-0.0784120559692382,-0.2434219717979431
2024-12-07 16:32:18.344748800,1.744748779296875,-0.4750705361366272,-0.0373506546020507,-0.1362618207931518
2024-12-07 16:32:18.354776800,1.75477685546875,-0.3542127013206482,0.0228471755981445,-0.1836509108543396
2024-12-07 16:32:18.364805000,1.76480517578125,-0.2175657153129577,0.0258092880249023,-0.336693525314331
2024-12-07 16:32:18.374833200,1.774833251953125,-0.1140178442001342,-0.0235271453857421,-0.4945352077484131
2024-12-07 16:32:18.384861400,1.784861328125,-0.1666024923324585,0.1370363235473632,-0.6667967438697815
2024-12-07 16:32:18.394889500,1.794889404296875,0.0219126343727111,-0.2268896102905273,-0.6279764771461487
2024-12-07 16:32:18.404917800,1.804917724609375,0.2295842766761779,-0.1606321334838867,-0.6280851364135742
2024-12-07 16:32:18.414946000,1.814946044921875,0.0356175303459167,-0.0091371536254882,-0.5193088054656982
2024-12-07 16:32:18.424974000,1.82497412109375,0.054286777973175,0.0368947982788085,-0.3167446851730346
2024-12-07 16:32:18.435002400,1.83500244140625,0.2133010029792785,-0.0171537399291992,-0.1689625382423401
2024-12-07 16:32:18.445030400,1.845030517578125,0.4115004539489746,-0.0803050994873046,-0.0139224827289581
2024-12-07 16:32:18.455058700,1.85505859375,0.5389742255210876,-0.0953865051269531,0.0669746696949005
2024-12-07 16:32:18.465086700,1.865086669921875,0.5168952941894531,0.0850830078125,0.0402949452400207
2024-12-07 16:32:18.475115000,1.875114990234375,0.9008330702781676,0.0077638626098632,0.2253203690052032
2024-12-07 16:32:18.485143300,1.885143310546875,1.7075543403625488,-0.4410820007324219,-0.4670174717903137
2024-12-07 16:32:18.495171300,1.89517138671875,2.022978067398072,-0.3836469650268554,-0.7534581422805786
2024-12-07 16:32:18.505199600,1.90519970703125,1.5233371257781982,-0.1557989120483398,-1.036447525024414
2024-12-07 16:32:18.515227600,1.9152275390625,0.7957578301429749,0.0847415924072265,-1.2504138946533203
2024-12-07 16:32:18.525256000,1.925255859375,0.3781481385231018,0.4000568389892578,-1.1473596096038818
2024-12-07 16:32:18.535284000,1.935283935546875,0.1996439099311828,0.6804189682006836,-0.8068384528160095
2024-12-07 16:32:18.545312300,1.945312255859375,0.306804358959198,0.8498992919921875,-0.1709726154804229
2024-12-07 16:32:18.555340300,1.95534033203125,0.7395760416984558,0.7805299758911133,0.3152911067008972
2024-12-07 16:32:18.565368600,1.96536865234375,1.3670666217803955,0.5923404693603516,0.4994392395019531
2024-12-07 16:32:18.575396900,1.97539697265625,1.5987751483917236,0.3382253646850586,0.6320883631706238
2024-12-07 16:32:18.585425000,1.9854248046875,1.6924498081207275,-0.0911521911621093,0.1170316264033317
2024-12-07 16:32:18.595453200,1.995453125,1.5197818279266355,-0.5521659851074219,-0.5862245559692383
2024-12-07 16:32:18.605481200,2.005481201171875,1.03965425491333,-1.1209840774536133,-1.2496232986450195
2024-12-07 16:32:18.615509500,2.015509521484375,0.350131094455719,-1.420731544494629,-1.955887079238892
2024-12-07 16:32:18.625537500,2.02553759765625,-0.4957908987998962,-1.1428756713867188,-2.53466272354126
2024-12-07 16:32:18.635565800,2.03556591796875,-1.3146789073944092,-0.5900058746337891,-2.56727933883667
2024-12-07 16:32:18.645594000,2.045593994140625,-1.9064078330993648,-0.2347173690795898,-1.9703404903411863
2024-12-07 16:32:18.655622100,2.0556220703125,-1.7352790832519531,-0.4668359756469726,-2.1765787601470947
2024-12-07 16:32:18.665650400,2.065650390625,-1.4152839183807373,-0.754948616027832,-2.225672960281372
2024-12-07 16:32:18.675678500,2.075678466796875,-1.572746753692627,-1.0845947265625,-2.104139566421509
2024-12-07 16:32:18.685706800,2.085706787109375,-2.029585838317871,-1.317112922668457,-1.6592347621917725
2024-12-07 16:32:18.695734800,2.09573486328125,-2.10675048828125,-1.4573974609375,-0.7803331017494202
2024-12-07 16:32:18.705763000,2.10576318359375,-1.1044543981552124,-1.410604476928711,0.6176823377609253
2024-12-07 16:32:18.715791000,2.115791015625,0.5979888439178467,-1.0208587646484375,2.0748324394226074
2024-12-07 16:32:18.725819400,2.1258193359375,1.940721154212952,-0.6573600769042969,2.8479442596435547
2024-12-07 16:32:18.735847400,2.135847412109375,2.429052829742432,-0.2915964126586914,3.2007999420166016
2024-12-07 16:32:18.745875500,2.14587548828125,2.362712860107422,-0.0046148300170898,2.8388009071350098
2024-12-07 16:32:18.755903700,2.15590380859375,2.008507251739502,0.1134395599365234,1.9527910947799685
2024-12-07 16:32:18.765931800,2.165931884765625,1.5751867294311523,0.1396694183349609,1.009917140007019
2024-12-07 16:32:18.775959800,2.175959716796875,1.241373062133789,0.0984001159667968,0.1749777346849441
2024-12-07 16:32:18.785988000,2.185988037109375,1.0270180702209473,0.0186061859130859,-0.383641630411148
2024-12-07 16:32:18.796016000,2.19601611328125,0.983978271484375,-0.0471277236938476,-0.6422837376594543
2024-12-07 16:32:18.806044200,2.206044189453125,1.1430332660675049,-0.0799703598022461,-0.6491799354553223
2024-12-07 16:32:18.816072400,2.216072509765625,1.1869375705718994,-0.0660333633422851,-0.4581174850463867
2024-12-07 16:32:18.826100500,2.2261005859375,1.320464849472046,0.0990581512451171,-0.4189345240592956
2024-12-07 16:32:18.836128800,2.236128662109375,1.041022777557373,-0.3101758956909179,0.1201075911521911
2024-12-07 16:32:18.846156800,2.24615673828125,0.7535098791122437,-0.118875503540039,0.2387671470642089
2024-12-07 16:32:18.856184800,2.256184814453125,0.8772090673446655,0.2507314682006836,-0.0550616681575775
2024-12-07 16:32:18.866213000,2.266213134765625,0.7726786136627197,0.3116235733032226,-0.0987954437732696
2024-12-07 16:32:18.876241200,2.2762412109375,0.8250402212142944,0.6898040771484375,-0.1885035037994384
2024-12-07 16:32:18.886269200,2.286269287109375,0.6777514219284058,0.6258182525634766,-0.0744712054729461
2024-12-07 16:32:18.896297500,2.29629736328125,0.3348830938339233,0.6368255615234375,-0.6069693565368652
2024-12-07 16:32:18.906325500,2.306325439453125,-0.0463956594467163,0.5517635345458984,-1.416081428527832
2024-12-07 16:32:18.916353500,2.316353515625,-0.7721288204193115,0.1240653991699218,-1.726155161857605
2024-12-07 16:32:18.926381800,2.3263818359375,-1.541616916656494,-0.1909694671630859,-1.8837882280349727
2024-12-07 16:32:18.936409900,2.336409912109375,-2.280505418777466,-0.4741506576538086,-2.149908304214477
2024-12-07 16:32:18.946438000,2.34643798828125,-2.420367479324341,-0.6200733184814453,-2.450282335281372
2024-12-07 16:32:18.956466200,2.356466064453125,-2.126211404800415,-0.7055196762084961,-2.0806214809417725
2024-12-07 16:32:18.966494200,2.366494140625,-1.5484262704849243,-0.850067138671875,-1.2769920825958252
2024-12-07 16:32:18.976522500,2.3765224609375,-0.7958583831787109,-0.8823337554931641,-0.6480401754379272
2024-12-07 16:32:18.986550500,2.386550537109375,-0.1508564949035644,-0.6894464492797852,0.0077737271785736
2024-12-07 16:32:18.996578600,2.39657861328125,-0.1022634506225586,-0.3970012664794922,0.6842195391654968
2024-12-07 16:32:19.006606800,2.40660693359375,-0.4289866685867309,-0.0484867095947265,1.2552701234817505
2024-12-07 16:32:19.016635000,2.416634765625,-0.6725627183914185,0.293731689453125,1.7293422222137451
2024-12-07 16:32:19.026663000,2.426662841796875,-0.7345689535140991,0.5435867309570312,2.087848424911499
2024-12-07 16:32:19.036691200,2.436691162109375,-0.8151565790176392,0.7255620956420898,2.3565359115600586
2024-12-07 16:32:19.046719200,2.44671923828125,-0.8455225229263306,0.8786077499389648,2.5559659004211426
2024-12-07 16:32:19.056747300,2.456747314453125,-0.6477069854736328,0.8745546340942383,2.4167633056640625
2024-12-07 16:32:19.066775600,2.466775634765625,-0.4529755115509033,0.6755199432373047,1.9544126987457275
2024-12-07 16:32:19.076803600,2.476803466796875,-0.4056999683380127,0.3391246795654297,1.577483057975769
2024-12-07 16:32:19.086831900,2.486831787109375,-0.4537639617919922,-0.0961790084838867,1.409150242805481
2024-12-07 16:32:19.096860000,2.49685986328125,-0.6679521799087524,-0.4676942825317383,1.1429903507232666
2024-12-07 16:32:19.106888000,2.506887939453125,-0.9269531965255736,-0.7419700622558594,0.6916133761405945
2024-12-07 16:32:19.116916200,2.516916259765625,-0.9203387498855592,-0.9479713439941406,0.6815040111541748
2024-12-07 16:32:19.126944300,2.5269443359375,-0.6700252294540405,-0.957615852355957,0.6747390031814575
2024-12-07 16:32:19.136972300,2.53697216796875,-0.3459830284118652,-0.7339868545532227,0.6737508773803711
2024-12-07 16:32:19.147000600,2.54700048828125,0.0868098735809326,-0.3597469329833984,0.7102068662643433
2024-12-07 16:32:19.157028600,2.557028564453125,0.1917388439178466,0.0066604614257812,1.0533545017242432
2024-12-07 16:32:19.167056600,2.567056640625,5.00679016113e-05,0.3228206634521484,1.4940036535263062
2024-12-07 16:32:19.177085000,2.5770849609375,-0.3359115123748779,0.6327657699584961,1.745322346687317
2024-12-07 16:32:19.187113000,2.587113037109375,-0.6867551803588867,0.7708425521850586,1.857293725013733
2024-12-07 16:32:19.197141200,2.597141357421875,-0.7541862726211548,0.8480520248413086,1.808699131011963
2024-12-07 16:32:19.207169300,2.607169189453125,-0.5351951122283936,0.8405294418334961,1.6499106884002686
2024-12-07 16:32:19.217197300,2.617197265625,-0.1476759910583496,0.8623285293579102,1.1694918870925903
2024-12-07 16:32:19.227225600,2.6272255859375,0.0357530117034912,0.8322486877441406,0.6505349278450012
2024-12-07 16:32:19.237253600,2.637253662109375,0.2709531784057617,0.7559003829956055,0.1121271625161171
2024-12-07 16:32:19.247281700,2.64728173828125,0.5045783519744873,0.6761913299560547,-0.2835796475410461
2024-12-07 16:32:19.257310000,2.65731005859375,0.4098243713378906,0.7082328796386719,-1.12160062789917
2024-12-07 16:32:19.267338000,2.667337890625,0.2028629779815673,0.7323703765869141,-1.2788695096969604
2024-12-07 16:32:19.277366300,2.6773662109375,-0.2315201759338379,0.8293848037719727,-1.216490387916565
2024-12-07 16:32:19.287394300,2.687394287109375,-0.6999108791351318,0.9804449081420898,-0.9703940153121948
2024-12-07 16:32:19.297422600,2.697422607421875,-1.0047622919082642,1.0952033996582031,-0.6624425649642944
2024-12-07 16:32:19.307451000,2.707450927734375,-1.1443393230438232,1.1028165817260742,-0.2104388624429702
2024-12-07 16:32:19.317479000,2.71747900390625,-1.1018080711364746,0.9983348846435548,0.1766855418682098
2024-12-07 16:32:19.327507200,2.727507080078125,-1.04398512840271,0.7619094848632812,0.2581677436828613
2024-12-07 16:32:19.337535200,2.73753515625,-1.193180799484253,0.4742918014526367,0.015614490956068
2024-12-07 16:32:19.347563500,2.7475634765625,-1.3819177150726318,0.2881717681884765,-0.2671209573745727
2024-12-07 16:32:19.357591600,2.757591552734375,-1.504239797592163,0.2175989151000976,-0.4693304598331451
2024-12-07 16:32:19.367619800,2.767619873046875,-1.517198085784912,0.2716531753540039,-0.4700892567634582
2024-12-07 16:32:19.377648000,2.777648193359375,-1.3511314392089844,0.4208316802978515,-0.2917946875095367
2024-12-07 16:32:19.387676200,2.78767626953125,-1.1462005376815796,0.65496826171875,-0.0268399063497781
2024-12-07 16:32:19.397704400,2.797704345703125,-0.7306486368179321,0.7352313995361328,0.7651593089103699
2024-12-07 16:32:19.407732500,2.807732421875,0.0086323022842407,0.580927848815918,1.8735066652297976
2024-12-07 16:32:19.417760800,2.8177607421875,0.9576926231384276,0.3640937805175781,2.776577949523926
2024-12-07 16:32:19.427788800,2.827788818359375,1.9539556503295896,0.0937824249267578,3.269856214523315
2024-12-07 16:32:19.437817000,2.837817138671875,2.7440500259399414,-0.2305622100830078,3.203165531158448
2024-12-07 16:32:19.447845400,2.847845458984375,2.834724903106689,-0.6138114929199219,2.6157021522521973
2024-12-07 16:32:19.457873400,2.857873291015625,2.264337539672852,-1.1411247253417969,1.7032339572906494
2024-12-07 16:32:19.467901700,2.867901611328125,1.7356268167495728,-1.7206125259399414,0.7586389780044556
2024-12-07 16:32:19.477929700,2.8779296875,1.3239961862564087,-2.237567901611328,0.0835449248552322
2024-12-07 16:32:19.487958000,2.8879580078125,0.9139684438705444,-2.424990653991699,-0.2018393576145172
2024-12-07 16:32:19.497986000,2.897986083984375,0.4223167896270752,-2.164295196533203,-0.3530766367912292
2024-12-07 16:32:19.508014300,2.908014404296875,-0.1129286289215087,-1.5994443893432615,-0.0550282448530197
2024-12-07 16:32:19.518042400,2.91804248046875,-0.1666289567947387,-0.8309040069580078,0.47959965467453
2024-12-07 16:32:19.528070700,2.928070556640625,0.2359111309051513,-0.1600055694580078,0.7369241714477539
2024-12-07 16:32:19.538099000,2.938098876953125,0.4612933397293091,0.3321008682250976,0.6153759360313416
2024-12-07 16:32:19.548127000,2.948126953125,0.5430848598480225,0.7080173492431641,-0.0169072151184082
2024-12-07 16:32:19.558155300,2.9581552734375,0.4823333024978637,0.9015159606933594,-0.7498254179954529
2024-12-07 16:32:19.568183300,2.968183349609375,0.3952279090881347,0.946889877319336,-1.328223705291748
2024-12-07 16:32:19.578211600,2.978211669921875,0.3251785039901733,0.9544782638549804,-1.8283663988113403
2024-12-07 16:32:19.588239600,2.988239501953125,0.1774009466171264,0.953181266784668,-2.087178468704224
2024-12-07 16:32:19.598268000,2.998267822265625,0.0193864107131958,0.9191665649414062,-1.9683752059936523
2024-12-07 16:32:19.608296000,3.0082958984375,-0.2396199703216552,0.7951650619506836,-1.609166383743286
2024-12-07 16:32:19.618324200,3.01832421875,-0.3086274862289428,0.5478982925415039,-1.089756727218628
2024-12-07 16:32:19.628352300,3.028352294921875,-0.1893924474716186,0.2204818725585937,-0.518392026424408
2024-12-07 16:32:19.638380300,3.03838037109375,0.1254791021347046,-0.2204780578613281,0.0083648413419723
2024-12-07 16:32:19.648408600,3.04840869140625,0.4235377311706543,-0.6126060485839844,0.176004871726036
2024-12-07 16:32:19.658436600,3.0584365234375,0.641494870185852,-0.9514274597167968,0.2410416901111602
2024-12-07 16:32:19.668465000,3.06846484375,0.6874600648880005,-0.9986658096313475,0.2340178489685058
2024-12-07 16:32:19.678493000,3.078492919921875,0.561402440071106,-0.7648744583129883,0.3614542484283447
2024-12-07 16:32:19.688521000,3.08852099609375,0.316123366355896,-0.5230627059936523,0.7029589414596558
2024-12-07 16:32:19.698549200,3.09854931640625,0.2188142538070678,-0.2160587310791015,1.0516934394836426
2024-12-07 16:32:19.708577300,3.108577392578125,-0.0497933626174926,0.0557861328125,1.3193359375
2024-12-07 16:32:19.718605300,3.118605224609375,-0.3007745742797851,0.2737922668457031,1.1187840700149536
2024-12-07 16:32:19.728633600,3.128633544921875,-0.5559355020523071,0.3191308975219726,0.7150196433067322
2024-12-07 16:32:19.738661600,3.13866162109375,-1.032227635383606,0.2023000717163086,0.2338271737098693
2024-12-07 16:32:19.748689700,3.148689697265625,-1.5163825750350952,0.0531425476074218,-0.355224609375
2024-12-07 16:32:19.758718000,3.158718017578125,-1.7162940502166748,-0.0707483291625976,-0.8631177544593811
2024-12-07 16:32:19.768746000,3.16874609375,-1.681809425354004,-0.1934499740600586,-1.1740400791168213
2024-12-07 16:32:19.778774300,3.178774169921875,-1.4740517139434814,-0.3583583831787109,-1.1543899774551392
2024-12-07 16:32:19.788802300,3.18880224609375,-1.39570415019989,-0.5035123825073242,-0.815290093421936
2024-12-07 16:32:19.798830300,3.198830322265625,-1.3069270849227903,-0.4904603958129883,-0.3977428078651428
2024-12-07 16:32:19.808858600,3.208858642578125,-1.1392886638641355,-0.3768415451049804,0.0764999687671661
2024-12-07 16:32:19.818886700,3.21888671875,-0.916879177093506,-0.3348827362060547,0.323481947183609
2024-12-07 16:32:19.828914700,3.228914794921875,-0.9606133103370668,-0.2786092758178711,0.676838755607605
2024-12-07 16:32:19.838943000,3.23894287109375,-0.94093257188797,-0.1365623474121093,0.7066436409950256
2024-12-07 16:32:19.848971000,3.248970947265625,-1.0628176927566528,-0.1332788467407226,0.8587747812271118
2024-12-07 16:32:19.858999000,3.2589990234375,-1.0618231296539309,-0.0724029541015625,0.8624052405357361
2024-12-07 16:32:19.869027300,3.26902734375,-0.8715829253196716,0.0172491073608398,0.8242224454879761
2024-12-07 16:32:19.879055400,3.279055419921875,-0.494887113571167,0.0779809951782226,0.7526477575302124
2024-12-07 16:32:19.889083600,3.289083740234375,-0.1313701868057251,0.0951366424560546,0.5461372137069702
2024-12-07 16:32:19.899111700,3.299111572265625,0.0546038150787353,0.0256690979003906,0.1905503869056701
2024-12-07 16:32:19.909139700,3.3091396484375,0.0110704898834228,-0.1205587387084961,-0.2223397940397262
2024-12-07 16:32:19.919168000,3.31916796875,0.0119447708129882,-0.3861351013183594,-0.6590132713317871
2024-12-07 16:32:19.929196000,3.329196044921875,0.0606266260147094,-0.6036396026611328,-1.1500301361083984
2024-12-07 16:32:19.939224000,3.33922412109375,-0.1277560591697693,-0.6918535232543945,-1.394135594367981
2024-12-07 16:32:19.949252400,3.34925244140625,-0.1499099731445312,-0.7178115844726562,-1.572852373123169
2024-12-07 16:32:19.959280400,3.3592802734375,-0.3077901601791382,-0.6149158477783203,-1.5520517826080322
2024-12-07 16:32:19.969308400,3.369308349609375,-0.8067770004272461,-0.3263111114501953,-1.5183019638061523
2024-12-07 16:32:19.979336700,3.379336669921875,-1.4327161312103271,0.0331678390502929,-1.3241666555404663
2024-12-07 16:32:19.989364700,3.38936474609375,-1.64764142036438,0.301279067993164,-0.9512413144111632
2024-12-07 16:32:19.999393000,3.39939306640625,-1.6484110355377195,0.4162044525146484,-0.3962033689022064
2024-12-07 16:32:20.009421000,3.409421142578125,-1.5161586999893188,0.3593072891235351,0.2384654581546783
2024-12-07 16:32:20.019449000,3.419448974609375,-1.1322269439697266,0.1835060119628906,0.8213984966278076
2024-12-07 16:32:20.029477400,3.429477294921875,-0.5900712013244629,0.0178136825561523,1.217504620552063
2024-12-07 16:32:20.039505400,3.43950537109375,-0.0158725976943969,-0.2239093780517578,1.5459709167480469
2024-12-07 16:32:20.049533400,3.449533447265625,0.3247954249382019,-0.2074756622314453,1.3975132703781128
2024-12-07 16:32:20.059561700,3.459561767578125,0.321419358253479,-0.2154483795166015,1.1982592344284058
2024-12-07 16:32:20.069589800,3.46958984375,0.2335689663887024,-0.2810277938842773,0.7170908451080322
2024-12-07 16:32:20.079617800,3.47961767578125,0.092117965221405,-0.1794366836547851,0.6672019958496094
2024-12-07 16:32:20.089646000,3.48964599609375,0.2144186496734619,0.041208267211914,0.7440662384033203
2024-12-07 16:32:20.099674000,3.499674072265625,0.5657082200050354,0.1417379379272461,0.6880476474761963
2024-12-07 16:32:20.109702400,3.509702392578125,0.8569148182868958,0.1031818389892578,0.5746628046035767
2024-12-07 16:32:20.119730400,3.51973046875,1.0521233081817627,0.0498208999633789,0.2893836796283722
2024-12-07 16:32:20.129758500,3.529758544921875,0.984758734703064,-0.0325918197631835,-0.0992666184902191
2024-12-07 16:32:20.139786800,3.539786865234375,0.8058823347091675,-0.0864553451538086,-0.5037634372711182
2024-12-07 16:32:20.149814800,3.549814697265625,0.6613544225692749,0.0029897689819335,-0.9415816068649292
2024-12-07 16:32:20.159842800,3.5598427734375,0.5624725818634033,0.1161842346191406,-1.349313497543335
2024-12-07 16:32:20.169871000,3.56987109375,0.3911129236221313,0.2341108322143554,-1.497549057006836
2024-12-07 16:32:20.179899100,3.579899169921875,0.349543809890747,0.1849613189697265,-1.6837961673736572
2024-12-07 16:32:20.189927200,3.58992724609375,0.441689133644104,0.0599403381347656,-1.811296343803405
2024-12-07 16:32:20.199955500,3.59995556640625,0.5097535252571106,-0.05950927734375,-1.960436463356018
2024-12-07 16:32:20.209983500,3.6099833984375,0.5069802403450012,-0.1015815734863281,-2.081058979034424
2024-12-07 16:32:20.220011800,3.62001171875,0.5769960284233093,-0.0472526550292968,-2.142155170440674
2024-12-07 16:32:20.230039800,3.630039794921875,0.7845978736877441,-0.0257482528686523,-2.012533187866211
2024-12-07 16:32:20.240067800,3.64006787109375,1.1876697540283203,-0.0086355209350585,-1.778547763824463
2024-12-07 16:32:20.250096000,3.65009619140625,1.7578264474868774,0.0276384353637695,-1.4314701557159424
2024-12-07 16:32:20.260124200,3.660124267578125,2.3725180625915527,-0.2084760665893554,-1.0675307512283323
2024-12-07 16:32:20.270152200,3.670152099609375,2.871270656585694,-0.7069454193115234,-0.5351059436798096
2024-12-07 16:32:20.280180500,3.680180419921875,3.096519708633423,-1.118967056274414,-0.11897873878479
2024-12-07 16:32:20.290208500,3.69020849609375,3.185274362564087,-1.3542966842651367,-0.1007851064205169
2024-12-07 16:32:20.300236500,3.700236572265625,3.411745548248291,-1.404170036315918,-0.3667377829551697
2024-12-07 16:32:20.310264800,3.710264892578125,3.004411220550537,-1.2887086868286133,-0.14102204144001
2024-12-07 16:32:20.320292900,3.72029296875,2.013375759124756,-0.8365840911865234,0.4241675138473511
2024-12-07 16:32:20.330321200,3.730321044921875,1.1643171310424805,-0.3970546722412109,1.300765872001648
2024-12-07 16:32:20.340349200,3.74034912109375,0.5578449964523315,-0.0563173294067382,2.384169816970825
2024-12-07 16:32:20.350377200,3.750377197265625,-0.1507205963134765,0.1134166717529296,3.016554594039917
2024-12-07 16:32:20.360405500,3.760405517578125,-0.3467848300933838,-0.0353307723999023,2.4551022052764893
2024-12-07 16:32:20.370433500,3.77043359375,-0.7129147052764893,-0.5480804443359375,0.9542052745819092
2024-12-07 16:32:20.380461600,3.780461669921875,-1.264946699142456,-1.2443313598632812,-0.931299328804016
2024-12-07 16:32:20.390489900,3.79048974609375,-1.386929988861084,-1.7106103897094729,-2.4269943237304688
2024-12-07 16:32:20.400518000,3.800517822265625,-0.5104998350143433,-1.9624900817871096,-2.9945669174194336
2024-12-07 16:32:20.410546000,3.8105458984375,0.2473578453063964,-1.8828458786010744,-2.63397479057312
2024-12-07 16:32:20.420574200,3.82057421875,0.082588791847229,-1.2732324600219729,-1.5302953720092771
2024-12-07 16:32:20.430602200,3.830602294921875,-0.6893782615661621,-0.3170146942138672,-0.1207814216613769
2024-12-07 16:32:20.440630500,3.840630615234375,-1.3636596202850342,0.7462959289550781,1.2587149143218994
2024-12-07 16:32:20.450658600,3.850658447265625,-1.7393579483032229,1.817159652709961,2.0551071166992188
2024-12-07 16:32:20.460686600,3.8606865234375,-1.82964026927948,2.677255630493164,2.5277421474456787
2024-12-07 16:32:20.470715000,3.87071484375,-1.6512954235076904,3.103359699249268,2.973632574081421
2024-12-07 16:32:20.480743000,3.880742919921875,-1.149526596069336,3.129721164703369,3.05310583114624
2024-12-07 16:32:20.490771000,3.89077099609375,-0.397937536239624,2.684579849243164,2.6089558601379395
2024-12-07 16:32:20.500799200,3.90079931640625,0.1090365648269653,1.882488250732422,1.8924752473831177
2024-12-07 16:32:20.510827300,3.9108271484375,0.3501243591308594,1.062922477722168,1.2932777404785156
2024-12-07 16:32:20.520855300,3.920855224609375,0.6400437355041504,0.3355493545532226,0.8221372365951538
2024-12-07 16:32:20.530883600,3.930883544921875,1.0100595951080322,-0.2190456390380859,0.4368534088134765
2024-12-07 16:32:20.540911600,3.94091162109375,1.2628839015960691,-0.491673469543457,0.043207362294197
2024-12-07 16:32:20.550940000,3.95093994140625,1.3222137689590454,-0.540400505065918,0.0429476052522659
2024-12-07 16:32:20.560968000,3.960968017578125,1.179772973060608,-0.2892637252807617,0.0333989858627319
2024-12-07 16:32:20.570996000,3.970995849609375,0.9472324848175048,0.0988130569458007,-0.0136922001838684
2024-12-07 16:32:20.581024300,3.981024169921875,0.7074438333511353,0.4756727218627929,-0.0601714849472045
2024-12-07 16:32:20.591052300,3.99105224609375,0.4721008539199829,0.7557773590087891,-0.0437799990177154
2024-12-07 16:32:20.601080300,4.001080322265625,0.4347360134124756,0.9112110137939452,0.0495923161506652
2024-12-07 16:32:20.611108600,4.011108642578125,0.4581122398376465,0.9283275604248048,0.1192878782749176
2024-12-07 16:32:20.621136600,4.02113671875,0.4465651512145996,0.903045654296875,-0.0013600885868072
2024-12-07 16:32:20.631164700,4.03116455078125,0.3285294771194458,0.8259668350219727,-0.3399186134338379
2024-12-07 16:32:20.641193000,4.04119287109375,0.2049238681793213,0.7069120407104492,-0.6703920960426331
2024-12-07 16:32:20.651221000,4.051220947265625,0.0661821365356445,0.4123010635375976,-1.560309648513794
2024-12-07 16:32:20.661249300,4.061249267578125,-0.0894609689712524,0.1299324035644531,-2.382009267807007
2024-12-07 16:32:20.671277300,4.07127734375,0.3090221881866455,-0.0689277648925781,-2.607450008392334
2024-12-07 16:32:20.681305300,4.081305419921875,0.4821823835372925,0.0485391616821289,-2.4394102096557617
2024-12-07 16:32:20.691333600,4.091333740234375,0.4345642328262329,0.3855371475219726,-1.8163323402404783
2024-12-07 16:32:20.701361700,4.101361572265625,0.4217157363891601,0.7170610427856445,-1.06607985496521
2024-12-07 16:32:20.711389700,4.1113896484375,0.4501453638076782,0.9955472946166992,-0.4189299941062927
2024-12-07 16:32:20.721418000,4.12141796875,0.3292286396026611,1.1113309860229492,0.1028011590242385
2024-12-07 16:32:20.731446000,4.131446044921875,-0.0409079790115356,1.1126117706298828,0.396443247795105
2024-12-07 16:32:20.741474000,4.14147412109375,-0.5451720952987671,0.8707246780395508,0.5281906127929688
2024-12-07 16:32:20.751502300,4.15150244140625,-1.027751326560974,0.1661949157714843,0.7811307311058044
2024-12-07 16:32:20.761530400,4.1615302734375,-1.213423252105713,-0.8616142272949219,1.316287636756897
2024-12-07 16:32:20.771558700,4.17155859375,-0.8735931515693665,-1.891840934753418,1.7780156135559082
2024-12-07 16:32:20.781586700,4.181586669921875,-0.0379251241683959,-2.84322452545166,2.142393112182617
2024-12-07 16:32:20.791614700,4.19161474609375,1.274754285812378,-3.2628211975097656,2.143375873565674
2024-12-07 16:32:20.801643000,4.20164306640625,2.1973118782043457,-2.61335563659668,1.6072711944580078
2024-12-07 16:32:20.811671000,4.211671142578125,2.0350687503814697,-1.4664382934570312,0.562301516532898
2024-12-07 16:32:20.821699000,4.221698974609375,1.2228991985321045,-0.4103002548217773,-0.8782087564468384
2024-12-07 16:32:20.831727400,4.231727294921875,-0.031150460243225,0.3654403686523437,-1.704211711883545
2024-12-07 16:32:20.841755400,4.24175537109375,-1.3994014263153076,0.9248867034912108,-1.7913556098937988
2024-12-07 16:32:20.851783400,4.251783447265625,-2.331953525543213,1.3077192306518557,-1.3978116512298584
2024-12-07 16:32:20.861811700,4.261811767578125,-2.5887889862060547,1.481271743774414,-0.81705641746521
2024-12-07 16:32:20.871839700,4.27183984375,-2.4971461296081543,1.302530288696289,-0.197181224822998
2024-12-07 16:32:20.881868000,4.281867919921875,-2.4846527576446533,0.877079963684082,0.1016628444194793
2024-12-07 16:32:20.891896000,4.29189599609375,-2.0047178268432617,0.30047607421875,0.2088091969490051
2024-12-07 16:32:20.901924000,4.301924072265625,-1.350483536720276,-0.2033882141113281,0.0164804756641387
2024-12-07 16:32:20.911952400,4.311952392578125,-0.8689624071121216,-0.5873355865478516,-0.2661126255989074
2024-12-07 16:32:20.921980400,4.32198046875,-0.4824377298355102,-0.8944025039672852,-0.430201768875122
2024-12-07 16:32:20.932008400,4.332008544921875,-0.389133095741272,-1.062246322631836,-0.3646316528320312
2024-12-07 16:32:20.942036700,4.34203662109375,-0.5038264989852905,-1.0190038681030271,-0.2808577418327331
2024-12-07 16:32:20.952064800,4.352064697265625,-0.5321255922317505,-0.7791328430175781,-0.0030393451452255
2024-12-07 16:32:20.962092800,4.3620927734375,-0.2742956876754761,-0.6824541091918945,0.4754143953323364
2024-12-07 16:32:20.972121000,4.37212109375,-0.0265071392059326,-0.6291208267211914,0.9919933676719666
2024-12-07 16:32:20.982149000,4.382149169921875,-0.2451666593551635,-0.5431118011474609,1.166171669960022
2024-12-07 16:32:20.992177400,4.392177490234375,-0.862228512763977,-0.3719205856323242,0.909991979598999
2024-12-07 16:32:21.002205400,4.402205322265625,-1.5575982332229614,-0.1341619491577148,0.8007899522781372
2024-12-07 16:32:21.012233500,4.4122333984375,-1.9025324583053589,0.1133022308349609,0.6792784333229065
2024-12-07 16:32:21.022261800,4.42226171875,-1.724866271018982,0.2607450485229492,0.9235793352127076
2024-12-07 16:32:21.032289800,4.432289794921875,-1.294824481010437,0.2889394760131836,1.0038502216339111
2024-12-07 16:32:21.042317800,4.44231787109375,-0.95038104057312,0.1594161987304687,0.7942129969596863
2024-12-07 16:32:21.052346000,4.45234619140625,-0.8118961453437805,0.0108528137207031,0.470831036567688
2024-12-07 16:32:21.062374100,4.4623740234375,-0.569856584072113,-0.1473197937011718,-0.0551320612430572
2024-12-07 16:32:21.072402200,4.472402099609375,-0.4248715043067932,-0.2433347702026367,-0.4853687286376953
2024-12-07 16:32:21.082430500,4.482430419921875,-0.3609011769294739,-0.2579879760742187,-0.8474417924880981
2024-12-07 16:32:21.092458500,4.49245849609375,-0.2099499702453613,-0.2390947341918945,-1.1491310596466064
2024-12-07 16:32:21.102486800,4.50248681640625,-0.1490200757980346,-0.1533117294311523,-1.2330337762832642
2024-12-07 16:32:21.112514800,4.512514892578125,-0.1154642105102539,-0.0486021041870117,-1.254153609275818
2024-12-07 16:32:21.122542800,4.52254296875,-0.0286822319030761,0.0987453460693359,-1.256302833557129
2024-12-07 16:32:21.132571100,4.532571044921875,0.1440401077270507,0.2073268890380859,-1.1206971406936646
2024-12-07 16:32:21.142599200,4.54259912109375,0.225379467010498,0.3917961120605469,-0.9199910759925842
2024-12-07 16:32:21.152627200,4.552627197265625,0.5068440437316895,0.3796062469482422,-0.7469648122787476
2024-12-07 16:32:21.162655500,4.562655517578125,0.7429237961769104,0.2715063095092773,-0.7904448509216309
2024-12-07 16:32:21.172683500,4.57268359375,0.8387336730957031,0.1346797943115234,-0.7392654418945312
2024-12-07 16:32:21.182711600,4.582711669921875,0.9913175106048584,0.0124263763427734,-0.8392055034637451
2024-12-07 16:32:21.192739800,4.59273974609375,1.1774966716766355,-0.0185956954956054,-0.7427881360054016
2024-12-07 16:32:21.202768000,4.602767822265625,1.335491418838501,0.0987663269042968,-0.2926475405693054
2024-12-07 16:32:21.212796200,4.612796142578125,1.550529718399048,0.2731075286865234,0.0861307382583618
2024-12-07 16:32:21.222824200,4.62282421875,1.7764756679534912,0.2555799484252929,0.4542165398597717
2024-12-07 16:32:21.232852200,4.632852294921875,1.877976059913636,0.2326927185058593,0.928375244140625
2024-12-07 16:32:21.242880500,4.642880615234375,1.9555504322052,0.1422510147094726,1.0763323307037354
2024-12-07 16:32:21.252908500,4.652908447265625,2.0427136421203613,-0.0490636825561523,0.8741236925125122
2024-12-07 16:32:21.262936600,4.6629365234375,2.134438991546631,-0.178598403930664,0.385297417640686
2024-12-07 16:32:21.272964600,4.672964599609375,2.120481491088867,-0.1414175033569336,-0.2261712849140167
2024-12-07 16:32:21.282993000,4.682992919921875,1.9736673831939693,-0.0525522232055664,-0.8076542615890503
2024-12-07 16:32:21.293021000,4.69302099609375,1.881787061691284,-0.1507148742675781,-1.7101242542266846
2024-12-07 16:32:21.303049000,4.703049072265625,1.630082130432129,-0.3825416564941406,-2.512941837310791
2024-12-07 16:32:21.313077000,4.713076904296875,1.052961349487305,-0.5323848724365234,-2.9362142086029053
2024-12-07 16:32:21.323105000,4.72310498046875,0.562234103679657,-0.7958898544311523,-3.507288932800293
2024-12-07 16:32:21.333133000,4.733133056640625,0.0512949228286743,-0.885533332824707,-3.797382354736328
2024-12-07 16:32:21.343161300,4.743161376953125,-0.5105652809143066,-0.9065656661987304,-3.458337545394897
2024-12-07 16:32:21.353189400,4.753189453125,-0.9708603620529176,-0.8641929626464844,-1.9049688577651973
2024-12-07 16:32:21.363217400,4.763217529296875,-0.6515976190567017,-0.5490484237670898,-0.4554409086704254
2024-12-07 16:32:21.373245400,4.773245361328125,0.3203131556510925,-0.4499330520629883,0.76939857006073
2024-12-07 16:32:21.383273500,4.7832734375,0.8555148243904114,-0.5860757827758789,1.854755163192749
2024-12-07 16:32:21.393301500,4.793301513671875,1.318715214729309,-0.6561183929443359,2.4248270988464355
2024-12-07 16:32:21.403329800,4.803329833984375,1.8705930709838867,-0.5556268692016602,2.414435148239136
2024-12-07 16:32:21.413357800,4.81335791015625,2.000287771224976,-0.5390052795410156,2.021261692047119
2024-12-07 16:32:21.423385900,4.8233857421875,1.2046711444854736,-0.61077880859375,1.3343883752822876
2024-12-07 16:32:21.433414000,4.833413818359375,0.6113789081573486,-0.6266632080078125,0.4837460517883301
2024-12-07 16:32:21.443442000,4.84344189453125,0.7720704078674316,-0.5199298858642578,-0.3717241883277893
2024-12-07 16:32:21.453470000,4.853469970703125,1.148882269859314,-0.6533689498901367,-1.036015272140503
2024-12-07 16:32:21.463498200,4.863498291015625,1.9656221866607664,-0.7431783676147461,-1.6712353229522705
2024-12-07 16:32:21.473526300,4.8735263671875,2.4507951736450195,-0.7080926895141602,-2.1384098529815674
2024-12-07 16:32:21.483554300,4.88355419921875,1.6674073934555054,-0.6592912673950195,-2.130664825439453
2024-12-07 16:32:21.493582300,4.893582275390625,-0.1159771680831909,-0.6020431518554688,-1.837532877922058
2024-12-07 16:32:21.503610400,4.9036103515625,-1.9405782222747805,-0.6165199279785156,-1.3104145526885986
2024-12-07 16:32:21.513638400,4.913638427734375,-3.0936553478240967,-0.6491050720214844,-0.4690930247306824
2024-12-07 16:32:21.523666400,4.92366650390625,-3.816984176635742,-0.4984006881713867,0.7661687135696411
2024-12-07 16:32:21.533694700,4.93369482421875,-4.005673408508301,-0.0776176452636718,1.949721336364746
2024-12-07 16:32:21.543722800,4.94372265625,-3.3856687545776367,0.4319839477539062,2.697651624679565
2024-12-07 16:32:21.553750800,4.953750732421875,-2.139960527420044,0.9151124954223632,2.5238099098205566
2024-12-07 16:32:21.563778800,4.96377880859375,-0.93899267911911,0.9404172897338868,2.3651232719421387
2024-12-07 16:32:21.573806800,4.973806884765625,-0.1403977870941162,0.6984128952026367,2.632020950317383
2024-12-07 16:32:21.583835000,4.9838349609375,0.323088526725769,0.585118293762207,2.4531283378601074
2024-12-07 16:32:21.593863200,4.99386328125,0.4307643175125122,0.4517927169799804,1.816464066505432
2024-12-07 16:32:21.603891200,5.00389111328125,0.4046913385391235,0.2081003189086914,1.2859704494476318
2024-12-07 16:32:21.613919200,5.013919189453125,0.4902213811874389,-0.0307283401489257,0.7787745594978333
2024-12-07 16:32:21.623947500,5.023947509765625,0.7676279544830322,-0.1263008117675781,0.3823145031929016
2024-12-07 16:32:21.633975600,5.0339755859375,1.2012988328933716,-0.1843843460083007,-0.122110329568386
2024-12-07 16:32:21.644003600,5.044003662109375,1.7546433210372925,-0.267740249633789,-0.3329492807388305
2024-12-07 16:32:21.654032000,5.054031982421875,2.215442180633545,-0.2860078811645508,-0.3299921452999115
2024-12-07 16:32:21.664060000,5.064059814453125,2.120401859283448,-0.2347517013549804,-0.116684652864933
2024-12-07 16:32:21.674088200,5.074088134765625,1.6699516773223877,-0.0515546798706054,0.0555341579020023
2024-12-07 16:32:21.684116200,5.0841162109375,1.2627131938934326,0.153599739074707,0.3275357186794281
2024-12-07 16:32:21.694144300,5.094144287109375,0.8560038805007935,0.4284934997558594,0.4862564206123352
2024-12-07 16:32:21.704172500,5.104172607421875,0.4423828125,0.7160577774047852,0.5024783611297607
2024-12-07 16:32:21.714200600,5.11420068359375,0.1489160060882568,1.0598440170288086,0.3492421805858612
2024-12-07 16:32:21.724228600,5.124228515625,-0.3944919109344482,1.3934383392333984,0.2498646229505539
2024-12-07 16:32:21.734257000,5.1342568359375,-1.021594762802124,1.7128238677978516,0.2567324638366699
2024-12-07 16:32:21.744285000,5.144284912109375,-1.2990899085998535,1.961556434631348,0.5566627979278564
2024-12-07 16:32:21.754313000,5.15431298828125,-1.2685739994049072,2.145294666290283,0.835149884223938
2024-12-07 16:32:21.764341200,5.16434130859375,-1.1305652856826782,2.1881260871887207,1.0805840492248535
2024-12-07 16:32:21.774369300,5.174369384765625,-0.9278563261032104,1.913869857788086,1.315985083580017
2024-12-07 16:32:21.784397600,5.1843974609375,-0.4135311841964721,1.595311164855957,1.0283548831939695
2024-12-07 16:32:21.794425600,5.194425537109375,0.0692827701568603,1.2460689544677734,0.6261427998542786
2024-12-07 16:32:21.804453600,5.20445361328125,0.3702404499053955,0.8846855163574219,0.0742433443665504
2024-12-07 16:32:21.814482000,5.21448193359375,0.7459938526153564,0.5298366546630859,-0.0090369135141372
2024-12-07 16:32:21.824510000,5.224510009765625,1.1608834266662598,0.3290815353393554,-0.0512721613049507
2024-12-07 16:32:21.834538000,5.2345380859375,1.441465139389038,0.315134048461914,-0.0624908208847045
2024-12-07 16:32:21.844566300,5.244566162109375,1.7447636127471924,0.5016241073608398,-0.1899250894784927
2024-12-07 16:32:21.854594300,5.25459423828125,1.692305088043213,0.7588405609130859,-0.5594688653945923
2024-12-07 16:32:21.864622300,5.264622314453125,1.2960264682769775,0.9771041870117188,-0.9517835974693298
2024-12-07 16:32:21.874650600,5.274650634765625,0.912705421447754,1.032893180847168,-1.1781779527664185
2024-12-07 16:32:21.884678700,5.2846787109375,0.9333908557891846,0.8643922805786133,-1.2899627685546875
2024-12-07 16:32:21.894707000,5.29470703125,0.944756031036377,0.4288234710693359,-1.102783441543579
2024-12-07 16:32:21.904735000,5.30473486328125,0.9285612106323242,-0.3016481399536133,-0.6964124441146851
2024-12-07 16:32:21.914763000,5.314762939453125,1.1042026281356812,-1.3932600021362305,-0.0066143963485956
2024-12-07 16:32:21.924791300,5.324791259765625,1.317022442817688,-2.735520362854004,0.7940932512283325
2024-12-07 16:32:21.934819300,5.3348193359375,1.4848755598068235,-4.028007507324219,1.3478147983551023
2024-12-07 16:32:21.944847400,5.344847412109375,1.5545505285263062,-5.047430038452148,1.84759259223938
2024-12-07 16:32:21.954875600,5.354875732421875,1.8575836420059204,-5.026046752929688,2.146430015563965
2024-12-07 16:32:21.964903700,5.364903564453125,1.7631332874298096,-3.675066947937012,2.339661121368408
2024-12-07 16:32:21.974931700,5.374931640625,0.7733368873596191,-1.6411609649658203,1.8798125982284544
2024-12-07 16:32:21.984960000,5.3849599609375,-0.583625316619873,0.3738689422607422,1.263168454170227
2024-12-07 16:32:21.994988000,5.394988037109375,-1.4300798177719116,1.755528450012207,1.385017156600952
2024-12-07 16:32:22.005016000,5.40501611328125,-1.5097260475158691,2.753811836242676,1.585740089416504
2024-12-07 16:32:22.015044400,5.41504443359375,-1.4068163633346558,3.311434268951416,1.4399091005325315
2024-12-07 16:32:22.025072400,5.425072265625,-1.6630593538284302,3.261870861053467,1.0780987739562988
2024-12-07 16:32:22.035100700,5.4351005859375,-1.8749675750732424,2.659274101257324,0.6713158488273621
2024-12-07 16:32:22.045128700,5.445128662109375,-1.6689486503601074,1.7104568481445312,-0.0258569046854972
2024-12-07 16:32:22.055156700,5.45515673828125,-1.4876186847686768,0.6020288467407227,-1.1116615533828735
2024-12-07 16:32:22.065185000,5.46518505859375,-1.361863374710083,-0.4414472579956054,-1.974617600440979
2024-12-07 16:32:22.075213000,5.475213134765625,-1.2019257545471191,-1.2290773391723633,-2.557955741882324
2024-12-07 16:32:22.085241000,5.485240966796875,-1.1322654485702517,-1.694375991821289,-3.000845193862915
2024-12-07 16:32:22.095269400,5.495269287109375,-1.0243723392486572,-1.9049081802368164,-2.8655149936676025
2024-12-07 16:32:22.105297400,5.50529736328125,-0.7836014032363892,-1.780228614807129,-2.32631778717041
2024-12-07 16:32:22.115325400,5.515325439453125,-0.6779196262359619,-1.3022260665893557,-1.593153476715088
2024-12-07 16:32:22.125353700,5.525353759765625,-0.6680928468704224,-0.6963262557983398,-0.7326016426086426
2024-12-07 16:32:22.135381800,5.5353818359375,-0.6539850234985352,-0.2067184448242187,0.2159671783447265
2024-12-07 16:32:22.145410000,5.54541015625,-0.688146710395813,0.1141948699951171,1.1122336387634275
2024-12-07 16:32:22.155438000,5.55543798828125,-0.8802562952041626,0.295445442199707,1.7889348268508911
2024-12-07 16:32:22.165466000,5.565466064453125,-1.2964537143707275,0.4043054580688476,2.196105480194092
2024-12-07 16:32:22.175494400,5.575494384765625,-1.715876221656799,0.4888362884521484,2.305503368377685
2024-12-07 16:32:22.185522400,5.5855224609375,-1.866462469100952,0.5872879028320312,1.9523348808288576
2024-12-07 16:32:22.195550500,5.595550537109375,-1.825235366821289,0.5229387283325195,1.589604377746582
2024-12-07 16:32:22.205584100,5.605584228515625,-1.6633048057556152,0.3966779708862304,1.2291685342788696
2024-12-07 16:32:22.215612400,5.6156123046875,-1.4096238613128662,0.218231201171875,0.7535698413848877
2024-12-07 16:32:22.225640400,5.625640380859375,-1.1403570175170898,-0.0456008911132812,0.2365312576293945
2024-12-07 16:32:22.235668700,5.635668701171875,-0.9182126522064208,-0.3373079299926758,-0.4386683404445648
2024-12-07 16:32:22.245696800,5.64569677734375,-0.805338442325592,-0.6280937194824219,-1.0012507438659668
2024-12-07 16:32:22.255724800,5.655724853515625,-0.7061665058135986,-0.83673095703125,-1.3493198156356812
2024-12-07 16:32:22.265753000,5.665753173828125,-0.4874091744422912,-0.9157342910766602,-1.4452285766601562
2024-12-07 16:32:22.275781000,5.675781005859375,-0.1654627323150634,-0.7367744445800781,-1.2727211713790894
2024-12-07 16:32:22.285809200,5.68580908203125,0.0140055418014526,-0.3915624618530273,-0.96479332447052
2024-12-07 16:32:22.295837200,5.695837158203125,0.0698059797286987,-0.043034553527832,-0.6391186714172363
2024-12-07 16:32:22.305865200,5.705865234375,0.0834428071975708,0.2228164672851562,-0.283375471830368
2024-12-07 16:32:22.315893500,5.7158935546875,0.045923113822937,0.3489351272583008,0.0529076606035232
2024-12-07 16:32:22.325921500,5.725921630859375,0.0623546838760376,0.3881988525390625,0.2300083935260772
2024-12-07 16:32:22.335948800,5.73594873046875,-0.0351446866989135,0.3216829299926758,0.3203455209732055
2024-12-07 16:32:22.345977000,5.74597705078125,-0.2213410139083862,0.2214336395263672,0.4630343616008758
2024-12-07 16:32:22.356005000,5.756005126953125,-0.3274375200271606,0.1163597106933593,0.4244942367076874
2024-12-07 16:32:22.366033200,5.766033203125,-0.3912151455879211,-0.0745983123779296,0.2890390753746032
2024-12-07 16:32:22.376061200,5.776061279296875,-0.5409943461418152,-0.2412309646606445,0.1640475690364837
2024-12-07 16:32:22.386089200,5.786089111328125,-0.8137744665145874,-0.2974624633789062,0.1322864294052124
2024-12-07 16:32:22.396117200,5.7961171875,-0.892877995967865,-0.2052221298217773,0.1126078367233276
2024-12-07 16:32:22.406145300,5.806145263671875,-0.7556377649307251,-0.1225967407226562,0.2334409356117248
2024-12-07 16:32:22.416173600,5.816173583984375,-0.4985654950141907,-0.1643009185791015,0.41621795296669
2024-12-07 16:32:22.426201600,5.82620166015625,-0.1947706341743469,-0.1821126937866211,0.4304531514644623
2024-12-07 16:32:22.436229600,5.836229736328125,-0.0892601609230041,-0.2096538543701172,0.3293060064315796
2024-12-07 16:32:22.446257700,5.846257568359375,-0.1239711046218872,-0.1608781814575195,0.0992055237293243
2024-12-07 16:32:22.456285700,5.85628564453125,-0.1448377966880798,-0.0454072952270507,-0.1536269038915634
2024-12-07 16:32:22.466313700,5.866313720703125,-0.1895912885665893,0.0554790496826171,-0.3614228367805481
2024-12-07 16:32:22.476342000,5.876342041015625,-0.2913051843643188,0.1084127426147461,-0.4670573770999908
2024-12-07 16:32:22.486370000,5.8863701171875,-0.2728930711746216,0.1278467178344726,-0.5047287940979004
2024-12-07 16:32:22.496398000,5.896398193359375,-0.1919272541999817,0.1042890548706054,-0.441868782043457
2024-12-07 16:32:22.506426000,5.906426025390625,-0.158146321773529,0.0330705642700195,-0.3653862178325653
2024-12-07 16:32:22.516454100,5.9164541015625,-0.1908705830574035,-0.033203125,-0.3713096380233764
2024-12-07 16:32:22.526482200,5.926482177734375,-0.1901203393936157,-0.0946044921875,-0.3927952945232391
2024-12-07 16:32:22.536510500,5.936510498046875,-0.1607809066772461,-0.1129398345947265,-0.4489515721797943
2024-12-07 16:32:22.546538500,5.94653857421875,-0.1168736219406127,-0.093027114868164,-0.5245406031608582
2024-12-07 16:32:22.556566500,5.95656640625,-0.0771248340606689,-0.0062580108642578,-0.485543429851532
2024-12-07 16:32:22.566594600,5.966594482421875,0.1110687255859375,-0.0151453018188476,-0.6552907824516296
2024-12-07 16:32:22.576622600,5.97662255859375,0.3037904500961303,0.0907135009765625,-0.5646713972091675
2024-12-07 16:32:22.586650600,5.986650634765625,0.4716683626174927,0.2536468505859375,-0.5202945470809937
2024-12-07 16:32:22.596678700,5.9966787109375,0.5759855508804321,0.3588056564331054,-0.5034741163253784
2024-12-07 16:32:22.606707000,6.00670703125,0.6453940868377686,0.4588527679443359,-0.5717483758926392
2024-12-07 16:32:22.616735000,6.01673486328125,0.675493061542511,0.5347270965576172,-0.6102144718170166
2024-12-07 16:32:22.626763000,6.026762939453125,0.7376468181610107,0.5817050933837891,-0.6661574244499207
2024-12-07 16:32:22.636791000,6.036791015625,0.7697023153305054,0.4995479583740234,-0.6012510061264038
2024-12-07 16:32:22.646819000,6.046819091796875,0.9249539971351624,0.1834602355957031,-0.336166113615036
2024-12-07 16:32:22.656847000,6.05684716796875,1.17352294921875,-0.2276220321655273,-0.1218150556087493
2024-12-07 16:32:22.666875400,6.06687548828125,1.2566043138504028,-0.5615863800048828,-0.0492222607135772
2024-12-07 16:32:22.676903400,6.0769033203125,1.1606147289276123,-0.7135019302368164,-0.0842509865760803
2024-12-07 16:32:22.686931500,6.086931396484375,0.8817360997200012,-0.6932535171508789,-0.3250688016414642
2024-12-07 16:32:22.696959500,6.09695947265625,0.5079181790351868,-0.4533338546752929,-0.3116760849952698
2024-12-07 16:32:22.706987500,6.106987548828125,0.1948247551918029,-0.0753431320190429,-0.14183309674263
2024-12-07 16:32:22.717015600,6.117015625,0.1246020197868347,0.3305425643920898,0.0064711570739746
2024-12-07 16:32:22.727043800,6.1270439453125,0.1343995332717895,0.5779085159301758,0.184468537569046
2024-12-07 16:32:22.737071900,6.13707177734375,0.1990537047386169,0.5523338317871094,0.0420070886611938
2024-12-07 16:32:22.747100000,6.147099853515625,0.1547186374664306,0.2735271453857422,-0.2183144092559814
2024-12-07 16:32:22.757128000,6.1571279296875,0.0403252243995666,-0.1097373962402343,-0.5522199869155884
2024-12-07 16:32:22.767156200,6.16715625,0.0291685461997985,-0.466073989868164,-0.9439904689788818
2024-12-07 16:32:22.777184300,6.177184326171875,0.0463954210281372,-0.6936302185058594,-1.3420084714889526
2024-12-07 16:32:22.787212300,6.18721240234375,0.0741568207740783,-0.7389211654663086,-1.6679601669311523
2024-12-07 16:32:22.797240600,6.197240478515625,0.1066817045211792,-0.6496620178222656,-1.7569258213043213
2024-12-07 16:32:22.807268600,6.2072685546875,0.1489767432212829,-0.3926982879638672,-1.5464400053024292
2024-12-07 16:32:22.817296600,6.217296630859375,0.2487562894821167,-0.0592679977416992,-1.1951148509979248
2024-12-07 16:32:22.827325000,6.227324951171875,0.2674303650856018,0.2977485656738281,-0.7620616555213928
2024-12-07 16:32:22.837353000,6.23735302734375,0.3053115010261535,0.5585603713989258,0.0446630716323852
2024-12-07 16:32:22.847381200,6.24738134765625,0.5368433594703674,0.5414514541625977,0.5317286849021912
2024-12-07 16:32:22.857409300,6.2574091796875,0.8518167734146118,0.3852396011352539,0.7977092862129211
2024-12-07 16:32:22.867437300,6.267437255859375,1.0836971998214722,0.3049030303955078,0.8352423906326294
2024-12-07 16:32:22.877465600,6.277465576171875,1.0693753957748413,0.3480434417724609,0.5637403130531311
2024-12-07 16:32:22.887493600,6.28749365234375,0.9080816507339478,0.428680419921875,0.1583670377731323
2024-12-07 16:32:22.897521700,6.297521728515625,1.119843363761902,0.3845758438110351,0.1610392928123474
2024-12-07 16:32:22.907550000,6.307550048828125,1.9468770027160645,0.3069343566894531,0.076807677745819
2024-12-07 16:32:22.917578000,6.317577880859375,3.0835156440734863,0.1574745178222656,0.0838750600814819
2024-12-07 16:32:22.927606000,6.32760595703125,3.87888240814209,-0.0447854995727539,0.24375981092453
2024-12-07 16:32:22.937634300,6.33763427734375,4.158491611480713,-0.4050674438476562,0.3484254479408264
2024-12-07 16:32:22.947662300,6.347662353515625,4.201068878173828,-0.8802309036254883,-0.0830305218696594
2024-12-07 16:32:22.957690600,6.357690673828125,3.292229413986206,-0.9928083419799804,-0.627760112285614
2024-12-07 16:32:22.967718700,6.36771875,1.4163367748260498,-0.9012889862060548,-1.2314987182617188
2024-12-07 16:32:22.977746700,6.37774658203125,-0.0402355790138244,-0.7155065536499023,-1.5635393857955933
2024-12-07 16:32:22.987775000,6.38777490234375,-0.9967470169067384,-0.5361566543579102,-1.542590856552124
2024-12-07 16:32:22.997803000,6.397802978515625,-1.1864932775497437,-0.5923357009887695,-1.3465807437896729
2024-12-07 16:32:23.007831000,6.4078310546875,-0.4818179607391357,-1.125554084777832,-1.150881052017212
2024-12-07 16:32:23.017859300,6.417859375,1.6898735761642456,-1.8556175231933592,-0.7583001852035522
2024-12-07 16:32:23.027887400,6.427887451171875,3.8810715675354,-2.4013900756835938,0.1696388721466064
2024-12-07 16:32:23.037915400,6.437915283203125,3.921037197113037,-2.656888961791992,1.259269952774048
2024-12-07 16:32:23.047943700,6.447943603515625,2.087408304214477,-2.6724443435668945,1.616419553756714
2024-12-07 16:32:23.057971700,6.4579716796875,-1.363776683807373,-2.260583877563477,0.9900693893432616
2024-12-07 16:32:23.068000000,6.468,-4.541906833648682,-1.3314790725708008,-0.2229604721069336
2024-12-07 16:32:23.078028000,6.478028076171875,-4.943269729614258,-0.3424215316772461,-1.7071305513381958
2024-12-07 16:32:23.088056000,6.48805615234375,-4.038415908813477,0.5771360397338867,-1.4989495277404783
2024-12-07 16:32:23.098084400,6.49808447265625,-2.910522937774658,1.211146354675293,-0.3557066917419433
2024-12-07 16:32:23.108112400,6.5081123046875,-1.6738172769546509,1.5210752487182615,0.2112059593200683
2024-12-07 16:32:23.118140400,6.518140380859375,-0.7369804978370667,1.5876750946044922,0.3690208792686462
2024-12-07 16:32:23.128168700,6.528168701171875,-0.1666983366012573,1.5491561889648438,0.6332105994224548
2024-12-07 16:32:23.138196700,6.53819677734375,0.323099136352539,1.4342174530029297,0.7237462997436523
2024-12-07 16:32:23.148224800,6.548224853515625,0.822019100189209,1.2619972229003906,0.5907785892486572
2024-12-07 16:32:23.158253000,6.558253173828125,1.245483636856079,0.8937063217163086,0.0559891872107982
2024-12-07 16:32:23.168281000,6.568281005859375,1.438183307647705,0.4011249542236328,-0.0080112349241971
2024-12-07 16:32:23.178309000,6.57830908203125,1.6800857782363892,0.0134849548339843,-0.6308358311653137
2024-12-07 16:32:23.188337200,6.588337158203125,2.077181816101074,-0.4134140014648437,-0.6185745000839233
2024-12-07 16:32:23.198365400,6.598365478515625,2.381531238555908,-0.6031417846679688,-0.1241942197084426
2024-12-07 16:32:23.208393500,6.6083935546875,2.2020387649536133,-0.4703102111816406,0.4259363412857055
2024-12-07 16:32:23.218421500,6.61842138671875,1.6457182168960571,-0.0912742614746093,0.8236154317855835
2024-12-07 16:32:23.228449500,6.628449462890625,1.149391770362854,0.3576478958129883,1.3216395378112793
2024-12-07 16:32:23.238477600,6.6384775390625,0.7350066900253296,0.9914875030517578,1.6848798990249634
2024-12-07 16:32:23.248505600,6.648505615234375,0.2362775802612304,1.7574396133422852,1.7000141143798828
2024-12-07 16:32:23.258534000,6.658533935546875,-0.5440198183059692,2.35963773727417,1.7046817541122437
2024-12-07 16:32:23.268562000,6.66856201171875,-1.3096215724945068,2.852940559387207,1.7359166145324707
2024-12-07 16:32:23.278590000,6.67858984375,-1.8290096521377563,3.344289302825928,1.48248553276062
2024-12-07 16:32:23.288618000,6.688617919921875,-1.872493028640747,3.910362243652344,0.7213096022605896
2024-12-07 16:32:23.298646000,6.69864599609375,-1.2411584854125977,4.1867852210998535,-0.0674407035112381
2024-12-07 16:32:23.308674000,6.708674072265625,-0.757245659828186,4.1112799644470215,-0.901451587677002
2024-12-07 16:32:23.318702300,6.718702392578125,-0.1750276088714599,3.712635993957519,-1.5148944854736328
2024-12-07 16:32:23.328730400,6.72873046875,0.8124135732650757,2.680455207824707,-1.5350388288497925
2024-12-07 16:32:23.338758400,6.73875830078125,1.8627983331680296,0.4943399429321289,-0.9912890195846558
2024-12-07 16:32:23.348786400,6.748786376953125,2.751858711242676,-2.299942970275879,-0.4477946758270263
2024-12-07 16:32:23.358814500,6.758814453125,3.019394874572754,-5.248283386230469,0.1205835342407226
2024-12-07 16:32:23.368842500,6.768842529296875,2.74007797241211,-8.1264066696167,0.3631185889244079
2024-12-07 16:32:23.378870800,6.778870849609375,1.7218633890151978,-9.606164932250977,-0.0623620152473449
2024-12-07 16:32:23.388898800,6.78889892578125,0.1943275928497314,-7.541489601135254,-1.2948286533355713
2024-12-07 16:32:23.398926800,6.7989267578125,-3.140596389770508,-3.815608978271485,-0.3849740028381347
2024-12-07 16:32:23.408955000,6.808954833984375,-5.28083610534668,-0.1568727493286132,0.6865197420120239
2024-12-07 16:32:23.418983000,6.81898291015625,-4.939037322998047,2.6532907485961914,2.1563215255737305
2024-12-07 16:32:23.429011000,6.829010986328125,-3.5087904930114746,4.620062828063965,3.43438458442688
2024-12-07 16:32:23.439039000,6.8390390625,-1.690436601638794,5.4367356300354,4.244098663330078
2024-12-07 16:32:23.449067300,6.8490673828125,-1.225472927093506,4.692839622497559,4.192411422729492
2024-12-07 16:32:23.459095300,6.85909521484375,-1.0926045179367063,3.3084778785705566,2.056587219238281
2024-12-07 16:32:23.469123300,6.869123291015625,-1.3554226160049438,1.629166603088379,0.2290087938308715
2024-12-07 16:32:23.479151400,6.8791513671875,-2.093785524368286,0.1156835556030273,-1.2177400588989258
2024-12-07 16:32:23.489179400,6.889179443359375,-2.245041847229004,-0.996607780456543,-2.3137781620025635
2024-12-07 16:32:23.499207400,6.89920751953125,-1.8317365646362305,-1.6743268966674805,-2.926920413970948
2024-12-07 16:32:23.509235700,6.909235595703125,-1.262726664543152,-2.167048454284668,-2.9720988273620605
2024-12-07 16:32:23.519263700,6.919263671875,-0.7426645159721375,-2.566781997680664,-2.697326183319092
2024-12-07 16:32:23.529291800,6.929291748046875,-0.1130746603012085,-2.5882158279418945,-2.1234383583068848
2024-12-07 16:32:23.539319800,6.93931982421875,0.4690953493118286,-2.013614654541016,-1.4066239595413208
2024-12-07 16:32:23.549347800,6.949347900390625,0.7807842493057251,-1.1598272323608398,-0.7500588297843933
2024-12-07 16:32:23.559376000,6.9593759765625,0.4801710844039917,-0.2512264251708984,-0.0766585767269134
2024-12-07 16:32:23.569404200,6.969404052734375,0.2346029281616211,0.5362586975097656,0.5959569215774536
2024-12-07 16:32:23.579432200,6.97943212890625,0.3036288022994995,1.140986442565918,0.9397565126419068
2024-12-07 16:32:23.589460200,6.989460205078125,0.4154461622238159,1.3574628829956057,0.9745599031448364
2024-12-07 16:32:23.599488300,6.99948828125,0.2744708061218261,1.214702606201172,0.8502339720726013
2024-12-07 16:32:23.609516300,7.009516357421875,0.099166989326477,0.9616909027099608,0.5490269064903259
2024-12-07 16:32:23.619544300,7.01954443359375,-0.0254136323928833,0.66558837890625,-0.0719904899597168
2024-12-07 16:32:23.629572600,7.029572509765625,-0.346210241317749,0.3746843338012695,-0.4962900280952453
2024-12-07 16:32:23.639600600,7.0396005859375,-0.5046737194061279,0.1996164321899414,-0.7782068252563477
2024-12-07 16:32:23.649628700,7.049628662109375,-0.287844717502594,0.1071577072143554,-0.7872512936592102
2024-12-07 16:32:23.659656700,7.05965673828125,0.2852029800415039,-0.0175085067749023,-0.4913809597492218
2024-12-07 16:32:23.669684700,7.069684814453125,0.9443442821502686,-0.1842584609985351,-0.0699711441993713
2024-12-07 16:32:23.679712800,7.079712646484375,1.5488085746765137,-0.3121423721313476,0.2800743579864502
2024-12-07 16:32:23.689740800,7.08974072265625,2.1090097427368164,-0.3205280303955078,0.5209012627601624
2024-12-07 16:32:23.699769000,7.09976904296875,2.620971441268921,-0.1576261520385742,0.7521741986274719
2024-12-07 16:32:23.709797000,7.109797119140625,3.0717718601226807,0.2617206573486328,0.8526211977005005
2024-12-07 16:32:23.719825200,7.1198251953125,3.5097663402557373,0.5783157348632812,0.8557406663894653
2024-12-07 16:32:23.729853200,7.129853271484375,3.927414655685425,0.5529069900512695,0.7126896381378174
2024-12-07 16:32:23.739881200,7.139881103515625,4.067814350128174,0.3861303329467773,0.2128215432167053
2024-12-07 16:32:23.749909200,7.1499091796875,3.755265474319458,0.5988140106201172,-1.095402479171753
2024-12-07 16:32:23.759937500,7.1599375,3.0184483528137207,0.8518543243408203,-2.241172790527344
2024-12-07 16:32:23.769965600,7.169965576171875,1.9666939973831177,0.1760854721069336,-2.1658434867858887
2024-12-07 16:32:23.779993600,7.17999365234375,0.8552534580230713,-0.5852422714233398,-1.3323705196380615
2024-12-07 16:32:23.790021600,7.190021728515625,0.5780371427536011,-1.1929903030395508,-0.6968176960945129
2024-12-07 16:32:23.800049700,7.200049560546875,-0.0541999340057373,-2.0869579315185547,-0.1642221510410308
2024-12-07 16:32:23.810077700,7.21007763671875,-0.9415531754493712,-2.677676200866699,0.7061953544616699
2024-12-07 16:32:23.820106000,7.22010595703125,-1.4683113098144531,-3.1020078659057617,2.0746309757232666
2024-12-07 16:32:23.830134000,7.230134033203125,-1.3959609270095823,-3.5518722534179688,2.545649766921997
2024-12-07 16:32:23.840162000,7.240162109375,-0.0857710838317871,-3.789126396179199,1.873529076576233
2024-12-07 16:32:23.850190000,7.250190185546875,0.9165629148483276,-3.548611640930176,1.3722000122070312
2024-12-07 16:32:23.860218000,7.260218017578125,1.047756910324097,-2.5152645111083984,1.845212697982788
2024-12-07 16:32:23.870246100,7.27024609375,-0.8371502161026001,-1.2249879837036133,1.8429760932922363
2024-12-07 16:32:23.880274400,7.2802744140625,-2.387727737426758,-0.2591228485107422,1.2349947690963743
2024-12-07 16:32:23.890302500,7.290302490234375,-3.04172420501709,0.3424243927001953,0.8364019989967346
2024-12-07 16:32:23.900330500,7.30033056640625,-3.903387069702149,0.954859733581543,-0.1260373145341873
2024-12-07 16:32:23.910358500,7.310358642578125,-4.496955871582031,1.3798465728759766,-1.6268486976623535
2024-12-07 16:32:23.920386600,7.320386474609375,-4.358911514282227,1.3332719802856443,-2.661816120147705
2024-12-07 16:32:23.930414600,7.33041455078125,-2.8659982681274414,1.0359697341918943,-2.475348472595215
2024-12-07 16:32:23.940442600,7.340442626953125,-0.9449561834335328,0.9535179138183594,-1.7913390398025513
2024-12-07 16:32:23.950471000,7.350470947265625,0.1086108684539794,1.0253114700317385,-1.0669610500335691
2024-12-07 16:32:23.960499000,7.3604990234375,0.6545324325561523,1.091867446899414,-0.0744484066963195
2024-12-07 16:32:23.970527000,7.37052685546875,1.0332841873168943,1.109126091003418,1.1303017139434814
2024-12-07 16:32:23.980555000,7.380554931640625,1.2639639377593994,1.124028205871582,2.0155866146087646
2024-12-07 16:32:23.990583000,7.3905830078125,1.3872482776641846,1.0598440170288086,2.7475061416625977
2024-12-07 16:32:24.000611000,7.400611083984375,1.5177505016326904,0.9503412246704102,3.0537850856781006
2024-12-07 16:32:24.010639400,7.410639404296875,1.5831425189971924,0.8481216430664062,2.9340744018554688
2024-12-07 16:32:24.020667400,7.42066748046875,1.3426754474639893,0.8683624267578125,2.602752685546875
2024-12-07 16:32:24.030695400,7.4306953125,0.977337121963501,1.1451988220214844,2.3238329887390137
2024-12-07 16:32:24.040723500,7.440723388671875,0.5151219367980957,1.4877023696899414,2.036445379257202
2024-12-07 16:32:24.050751500,7.45075146484375,0.122591495513916,1.810556411743164,1.499792218208313
2024-12-07 16:32:24.060779800,7.46077978515625,-0.1411058902740478,2.061710834503174,1.4937254190444946
2024-12-07 16:32:24.070807800,7.470807861328125,-0.2180854082107544,2.3466172218322754,1.5464186668395996
2024-12-07 16:32:24.080835800,7.4808359375,-0.202687382698059,2.622529983520508,1.5590518712997437
2024-12-07 16:32:24.090864000,7.490864013671875,0.0171344280242919,2.8899173736572266,1.5480868816375732
2024-12-07 16:32:24.100892200,7.50089208984375,0.5422403812408447,3.0390114784240723,1.4346202611923218
2024-12-07 16:32:24.110920200,7.510920166015625,1.1744384765625,2.935766220092773,1.1499580144882202
2024-12-07 16:32:24.120948500,7.520948486328125,1.653195858001709,2.7042436599731445,0.3091337382793426
2024-12-07 16:32:24.130976500,7.5309765625,2.1551218032836914,2.1820826530456543,-0.7917947173118591
2024-12-07 16:32:24.141004500,7.541004638671875,2.819972515106201,1.2650527954101562,-2.135444164276123
2024-12-07 16:32:24.151032800,7.55103271484375,3.877261638641357,-0.174560546875,-3.824756860733032
2024-12-07 16:32:24.161060900,7.561060791015625,5.266197681427002,-2.3321075439453125,-5.28977632522583
2024-12-07 16:32:24.171089200,7.571089111328125,6.5670166015625,-4.9681501388549805,-7.055544376373291
2024-12-07 16:32:24.181117200,7.5811171875,6.918588161468506,-7.572310447692871,-7.707107067108154
2024-12-07 16:32:24.191145200,7.591145263671875,5.495987415313721,-9.324851989746094,-7.748857975006104
2024-12-07 16:32:24.201173500,7.601173583984375,1.2829898595809937,-8.894156455993652,-5.8723859786987305
2024-12-07 16:32:24.211201500,7.611201416015625,-3.1008071899414062,-6.504892349243164,-3.664095640182495
2024-12-07 16:32:24.221229600,7.6212294921875,-4.756043910980225,-2.832230567932129,-2.295541524887085
2024-12-07 16:32:24.231257900,7.6312578125,-5.125409126281738,0.7916574478149414,-0.6414308547973633
2024-12-07 16:32:24.241286000,7.641285888671875,-4.970243453979492,3.256237506866455,2.04099702835083
2024-12-07 16:32:24.251314000,7.65131396484375,-4.678267478942871,5.00288200378418,4.664419651031494
2024-12-07 16:32:24.261342200,7.66134228515625,-3.615480422973633,6.564433097839356,6.7803802490234375
2024-12-07 16:32:24.271370200,7.671370361328125,-0.7099035978317261,7.054019927978516,8.25117015838623
2024-12-07 16:32:24.281398500,7.6813984375,2.567598819732666,5.963776588439941,10.010272026062012
2024-12-07 16:32:24.291426600,7.691426513671875,3.867521286010742,4.078578472137451,11.40608024597168
2024-12-07 16:32:24.301454600,7.70145458984375,2.505502223968506,2.858153343200684,9.348873138427734
2024-12-07 16:32:24.311483000,7.71148291015625,0.4077827930450439,1.1873159408569336,4.997932434082031
2024-12-07 16:32:24.321511000,7.721510986328125,-0.6320312023162842,-1.4723854064941406,1.3064792156219482
2024-12-07 16:32:24.331539000,7.7315390625,-1.9504307508468628,-4.166779518127441,-2.155400514602661
2024-12-07 16:32:24.341567200,7.741567138671875,-3.026935577392578,-5.889938354492188,-5.428001403808594
2024-12-07 16:32:24.351595300,7.75159521484375,-3.946336269378662,-5.795233726501465,-6.959702491760254
2024-12-07 16:32:24.361623300,7.761623291015625,-4.465044021606445,-4.645168304443359,-5.897632598876953
2024-12-07 16:32:24.371651300,7.7716513671875,-4.049263000488281,-2.591397285461426,-4.186348915100098
2024-12-07 16:32:24.381679400,7.781679443359375,-3.110621690750122,-0.6589565277099609,-3.197202205657959
2024-12-07 16:32:24.391707600,7.791707763671875,-2.3736507892608643,0.3640241622924804,-1.6427260637283323
2024-12-07 16:32:24.401735700,7.801735595703125,-1.984280347824097,0.9425449371337892,0.2038211524486541
2024-12-07 16:32:24.411763700,7.811763671875,-1.321122407913208,1.4106531143188477,1.456607222557068
2024-12-07 16:32:24.421791700,7.821791748046875,-0.1307100057601928,1.5752105712890625,1.8210333585739136
2024-12-07 16:32:24.431819800,7.83181982421875,0.4009976387023926,1.3878107070922852,1.6660091876983645
2024-12-07 16:32:24.441847800,7.841847900390625,0.0406427383422851,0.87811279296875,1.2580218315124512
2024-12-07 16:32:24.451876000,7.8518759765625,-0.7179581522941589,0.2723350524902344,0.731889545917511
2024-12-07 16:32:24.461904100,7.861904052734375,-1.108750343322754,-0.251439094543457,-0.191395565867424
2024-12-07 16:32:24.471932200,7.87193212890625,-1.233304738998413,-0.6685323715209961,-0.9053579568862916
2024-12-07 16:32:24.481960200,7.881960205078125,-0.7471780776977539,-0.8689594268798828,-1.2005460262298584
2024-12-07 16:32:24.491988200,7.89198828125,-0.1030144691467285,-0.8009872436523438,-1.077340006828308
2024-12-07 16:32:24.502016300,7.902016357421875,0.3724026679992676,-0.5706701278686523,-0.772791862487793
2024-12-07 16:32:24.512044300,7.912044189453125,0.6446154117584229,-0.3793535232543945,-0.4384570717811584
2024-12-07 16:32:24.522072600,7.922072509765625,0.750542163848877,-0.1651849746704101,-0.3488024771213531
2024-12-07 16:32:24.532100600,7.9321005859375,0.4843837022781372,0.0955076217651367,-0.3182234764099121
2024-12-07 16:32:24.542128600,7.942128662109375,0.183385968208313,0.2357339859008789,-0.5516014695167542
2024-12-07 16:32:24.552156700,7.95215673828125,-0.0641170740127563,0.3421926498413086,-0.5541834235191345
2024-12-07 16:32:24.562184700,7.962184814453125,-0.1647229194641113,0.3913631439208984,-0.409185528755188
2024-12-07 16:32:24.572212700,7.972212646484375,-0.1229543685913086,0.3021726608276367,-0.2471677660942077
2024-12-07 16:32:24.582241000,7.982240966796875,0.0610948801040649,0.1322336196899414,-0.2074410915374755
2024-12-07 16:32:24.592269000,7.99226904296875,0.3294819593429565,-0.0370807647705078,-0.2314999103546142
2024-12-07 16:32:24.602297000,8.002297119140625,0.6334359645843506,-0.1963186264038086,-0.289953202009201
2024-12-07 16:32:24.612325000,8.0123251953125,0.9526087045669556,-0.2309751510620117,-0.4295727908611297
2024-12-07 16:32:24.622353200,8.022353271484375,1.195639729499817,-0.1604471206665039,-0.5579648017883301
2024-12-07 16:32:24.632381200,8.032381103515625,1.3148272037506104,-0.0279388427734375,-0.4879627227783203
2024-12-07 16:32:24.642409500,8.042409423828126,1.387442111968994,0.152073860168457,-0.2971367537975311
2024-12-07 16:32:24.652437500,8.0524375,1.6048812866210938,0.1405372619628906,0.0984350442886352
2024-12-07 16:32:24.662465500,8.062465576171874,1.895095944404602,-0.2535781860351562,0.5921928882598877
2024-12-07 16:32:24.672493600,8.07249365234375,2.217437028884888,-1.0204124450683594,0.7202959060668945
2024-12-07 16:32:24.682521600,8.082521484375,2.3184568881988525,-1.8061208724975584,0.1967434287071228
2024-12-07 16:32:24.692549600,8.092549560546875,2.176080703735352,-2.2378711700439453,-0.90352064371109
2024-12-07 16:32:24.702578000,8.102577880859375,1.8722822666168213,-2.057769775390625,-1.869348764419556
2024-12-07 16:32:24.712606000,8.11260595703125,1.1967909336090088,-0.97027587890625,-2.07534408569336
2024-12-07 16:32:24.722634000,8.122634033203125,0.462753415107727,0.3397426605224609,-1.5962166786193848
2024-12-07 16:32:24.732662000,8.132662109375,0.1743469834327697,0.7256851196289062,-1.277800679206848
2024-12-07 16:32:24.742690000,8.14268994140625,0.6200432777404785,0.0989618301391601,-0.5989593267440796
2024-12-07 16:32:24.752718000,8.152718017578126,1.0036932229995728,-0.6461400985717773,0.6393162608146667
2024-12-07 16:32:24.762746000,8.16274609375,0.7458375096321106,-0.9320383071899414,1.5464158058166504
2024-12-07 16:32:24.772774400,8.1727744140625,0.717329204082489,-0.6975793838500977,2.140344858169556
2024-12-07 16:32:24.782802400,8.182802490234375,0.3115425705909729,-0.3559637069702148,2.3236730098724365
2024-12-07 16:32:24.792830500,8.19283056640625,-1.0442966222763062,0.1210250854492187,1.8165228366851809
2024-12-07 16:32:24.802858500,8.2028583984375,-1.555911421775818,0.7473955154418945,0.8568823337554932
2024-12-07 16:32:24.812886500,8.212886474609375,0.2147426605224609,0.9217185974121094,-0.989571213722229
2024-12-07 16:32:24.822914600,8.22291455078125,2.941781044006348,0.7571630477905273,-3.61784553527832
2024-12-07 16:32:24.832942800,8.23294287109375,4.467368125915527,-0.1918497085571289,-6.182453155517578
2024-12-07 16:32:24.842971000,8.242970947265626,4.473654747009277,-1.2240562438964844,-7.637677669525147
2024-12-07 16:32:24.852999000,8.2529990234375,5.095402717590332,-1.812602043151856,-6.659794330596924
2024-12-07 16:32:24.863027000,8.26302685546875,4.751887798309326,-1.9557218551635744,-2.432243824005127
2024-12-07 16:32:24.873055000,8.273054931640624,1.4862289428710938,-1.7383413314819336,2.026487112045288
2024-12-07 16:32:24.883083000,8.2830830078125,-2.2449212074279785,-1.378544807434082,4.560083866119385
2024-12-07 16:32:24.893111300,8.293111328125,-3.4857442378997803,-0.4018192291259765,5.41487979888916
2024-12-07 16:32:24.903139300,8.303139404296875,-3.7104945182800297,0.9105253219604492,4.690269947052002
2024-12-07 16:32:24.913167400,8.31316748046875,-3.465720891952514,1.7302312850952148,3.842356204986572
2024-12-07 16:32:24.923195400,8.3231953125,-3.467066764831543,2.081261157989502,3.1430563926696777
2024-12-07 16:32:24.933223400,8.333223388671875,-2.803362846374512,2.0752663612365723,3.102642059326172
2024-12-07 16:32:24.943251500,8.34325146484375,-1.6534709930419922,2.207831859588623,2.569085121154785
2024-12-07 16:32:24.953279700,8.35327978515625,-0.7426615953445435,2.0851874351501465,1.9317831993103027
2024-12-07 16:32:24.963307800,8.363307861328124,0.0846204757690429,1.6105804443359375,1.4294025897979736
2024-12-07 16:32:24.973335800,8.373335693359374,0.7884111404418945,1.141521453857422,0.5185186862945557
2024-12-07 16:32:24.983363800,8.38336376953125,1.1939489841461182,0.7681379318237305,-0.46441650390625
2024-12-07 16:32:24.993391900,8.393391845703125,1.467785120010376,0.4135522842407226,-1.1110875606536863
2024-12-07 16:32:25.003420000,8.403419921875,1.6248061656951904,0.1255207061767578,-1.3308494091033936
2024-12-07 16:32:25.013448000,8.413447998046875,1.9050486087799072,-0.1534242630004882,-0.9564608335494996
2024-12-07 16:32:25.023476200,8.423476318359375,2.083676815032959,-0.2132797241210937,-0.8236457705497742
2024-12-07 16:32:25.033504300,8.433504150390625,1.5748143196105957,0.1175918579101562,-0.4701851010322571
2024-12-07 16:32:25.043532300,8.4435322265625,0.7809243202209473,0.648036003112793,0.0383037030696868
2024-12-07 16:32:25.053560300,8.453560302734376,0.3801267147064209,1.3449506759643557,0.4686988592147827
2024-12-07 16:32:25.063588400,8.46358837890625,0.4761464595794678,2.05977201461792,0.7098820805549622
2024-12-07 16:32:25.073616400,8.473616455078124,0.4167296886444092,2.56759262084961,1.052253007888794
2024-12-07 16:32:25.083644700,8.483644775390625,0.2003672122955322,3.041414737701416,1.169292688369751
2024-12-07 16:32:25.093672700,8.493672607421875,0.2182536125183105,3.429563045501709,0.8714274168014526
2024-12-07 16:32:25.103700700,8.50370068359375,0.3945965766906738,3.632134437561035,0.2101674675941467
2024-12-07 16:32:25.113728800,8.513728759765625,0.7102420330047607,3.6639633178710938,-0.7954518795013428
2024-12-07 16:32:25.123756800,8.5237568359375,1.145153522491455,3.4586057662963867,-2.03856897354126
2024-12-07 16:32:25.133784800,8.533784912109375,1.450568437576294,2.9404211044311523,-3.284287214279175
2024-12-07 16:32:25.143813000,8.543813232421876,1.873558521270752,2.095954418182373,-4.525470733642578
2024-12-07 16:32:25.153841200,8.553841064453126,2.184587478637696,0.5578508377075195,-4.899170875549316
2024-12-07 16:32:25.163869200,8.563869140625,2.896483421325684,-2.1224241256713867,-3.687381267547608
2024-12-07 16:32:25.173897200,8.573897216796874,3.1220078468322754,-6.153922080993652,-1.7881450653076172
2024-12-07 16:32:25.183925200,8.58392529296875,2.795686721801758,-10.798845291137695,0.2853736281394958
2024-12-07 16:32:25.193953300,8.593953369140625,1.8388433456420896,-13.004837989807127,1.419414520263672
2024-12-07 16:32:25.203981300,8.603981201171875,0.9843416213989258,-11.403257369995115,1.6713844537734983
2024-12-07 16:32:25.214009600,8.614009521484375,-0.7218621969223022,-5.88712215423584,0.5169647336006165
2024-12-07 16:32:25.224037600,8.62403759765625,-3.6135621070861816,-0.6670503616333008,1.5165820121765137
2024-12-07 16:32:25.234065700,8.634065673828125,-4.911319732666016,2.9858179092407227,4.057167530059815
2024-12-07 16:32:25.244093700,8.64409375,-4.31103515625,5.344921588897705,6.660467624664307
2024-12-07 16:32:25.254121700,8.654121826171876,-4.009637832641602,6.881472587585449,7.3581743240356445
2024-12-07 16:32:25.264149800,8.664149658203126,-3.3406691551208496,6.882894515991211,6.499590873718262
2024-12-07 16:32:25.274178000,8.674177978515624,-1.9875504970550537,5.735832214355469,5.410919666290283
2024-12-07 16:32:25.284206000,8.6842060546875,-1.621860146522522,4.0619635581970215,3.092369318008423
2024-12-07 16:32:25.294234000,8.694234130859375,-2.031095504760742,1.562419891357422,0.4670602679252624
2024-12-07 16:32:25.304262100,8.70426220703125,-2.33622407913208,-0.9414615631103516,-2.164644956588745
2024-12-07 16:32:25.314290200,8.714290283203125,-2.1373884677886963,-2.5054988861083984,-4.1151227951049805
2024-12-07 16:32:25.324318200,8.724318115234375,-1.4826557636260986,-3.1300477981567383,-5.309731960296631
2024-12-07 16:32:25.334346500,8.734346435546875,-0.9999406337738036,-3.1848278045654297,-4.903162956237793
2024-12-07 16:32:25.344374500,8.74437451171875,-0.1726926565170288,-2.768760681152344,-3.8132190704345694
2024-12-07 16:32:25.354402600,8.754402587890626,0.4591401815414428,-1.890064239501953,-2.055537939071656
2024-12-07 16:32:25.364430600,8.7644306640625,1.1916112899780271,-1.2390317916870115,-0.4652739763259887
2024-12-07 16:32:25.374458600,8.774458740234374,1.996127367019653,-0.7108516693115234,1.0280804634094238
2024-12-07 16:32:25.384486700,8.784486572265624,2.4365482330322266,-0.2535381317138672,2.1543805599212646
2024-12-07 16:32:25.394515000,8.794514892578125,2.119724988937378,0.1182994842529296,2.5017571449279785
2024-12-07 16:32:25.404543000,8.80454296875,1.0287710428237915,0.3621158599853515,2.238862991333008
2024-12-07 16:32:25.414571000,8.814571044921875,-0.6617549061775208,0.7801380157470703,1.4183299541473389
2024-12-07 16:32:25.424599000,8.82459912109375,-2.271836757659912,1.1156644821166992,0.4916369318962097
2024-12-07 16:32:25.434627000,8.834626953125,-2.846621036529541,1.1359987258911133,-0.5896540880203247
2024-12-07 16:32:25.444655000,8.844655029296876,-2.71382999420166,0.9186782836914062,-1.2891924381256104
2024-12-07 16:32:25.454683100,8.85468310546875,-2.126360416412353,0.4114675521850586,-1.5539546012878418
2024-12-07 16:32:25.464711400,8.86471142578125,-1.4066805839538574,-0.1565046310424804,-1.6630475521087646
2024-12-07 16:32:25.474739500,8.874739501953124,-1.139477014541626,-0.4269466400146484,-1.7971564531326294
2024-12-07 16:32:25.484767500,8.884767578125,-0.9663348197937012,-0.3759593963623047,-1.8141796588897705
2024-12-07 16:32:25.494795500,8.89479541015625,-0.5114655494689941,-0.2761917114257812,-1.307560682296753
2024-12-07 16:32:25.504823600,8.904823486328125,0.1691651344299316,-0.2574024200439453,-0.6934776306152344
2024-12-07 16:32:25.514851600,8.9148515625,0.5302530527114868,-0.2867794036865234,-0.0996822118759155
2024-12-07 16:32:25.524880000,8.9248798828125,0.4277615547180176,-0.2738609313964844,0.4225767850875854
2024-12-07 16:32:25.534908000,8.934907958984375,0.2320901155471801,-0.26171875,0.7327905297279358
2024-12-07 16:32:25.544936000,8.94493603515625,0.0874350070953369,-0.2408409118652343,0.7821396589279175
2024-12-07 16:32:25.554964000,8.9549638671875,-0.2100210785865783,-0.1202888488769531,0.6292113661766052
2024-12-07 16:32:25.564992000,8.964991943359376,-0.3842737674713135,0.0188856124877929,0.6577094197273254
2024-12-07 16:32:25.575020000,8.97502001953125,-0.2094219923019409,-0.0191230773925781,0.5228503346443176
2024-12-07 16:32:25.585048300,8.98504833984375,-0.030981421470642,-0.1002521514892578,0.2398167252540588
2024-12-07 16:32:25.595076400,8.995076416015625,0.021522045135498,-0.1479120254516601,-0.1841132044792175
2024-12-07 16:32:25.605104400,9.0051044921875,0.0205399990081787,-0.2098102569580078,-0.4746184051036834
2024-12-07 16:32:25.615132400,9.01513232421875,0.0099866390228271,-0.2379941940307617,-0.7499947547912598
2024-12-07 16:32:25.625160400,9.025160400390623,-0.0103605389595031,-0.2850246429443359,-0.965915024280548
2024-12-07 16:32:25.635188500,9.0351884765625,-0.1189199686050415,-0.2170696258544922,-1.301741123199463
2024-12-07 16:32:25.645216800,9.045216796875,-0.2811926305294037,-0.0723114013671875,-1.1863946914672852
2024-12-07 16:32:25.655244800,9.055244873046876,-0.2369083166122436,0.2114524841308593,-1.0254087448120115
2024-12-07 16:32:25.665272800,9.06527294921875,0.0694513916969299,0.5667839050292969,-0.8340474367141724
2024-12-07 16:32:25.675300900,9.07530078125,0.5674924254417419,0.7112007141113281,-0.1994815468788147
2024-12-07 16:32:25.685329000,9.085328857421874,1.0961954593658447,0.6828699111938477,0.2810161113739013
2024-12-07 16:32:25.695357000,9.09535693359375,1.5588804483413696,0.5678415298461914,0.6763433218002319
2024-12-07 16:32:25.705385000,9.105385009765625,1.898550033569336,0.4187765121459961,0.8135193586349487
2024-12-07 16:32:25.715413200,9.115413330078123,2.068382740020752,0.4220800399780273,0.7886649370193481
2024-12-07 16:32:25.725441300,9.125441162109375,2.52771520614624,0.3050594329833984,1.0267002582550049
2024-12-07 16:32:25.735469300,9.13546923828125,3.1057419776916504,0.2635955810546875,0.8471295833587646
2024-12-07 16:32:25.745497300,9.145497314453126,3.2628777027130127,0.2115058898925781,0.3611425161361694
2024-12-07 16:32:25.755525400,9.155525390625,3.1995887756347656,-0.3717899322509765,-0.1390973329544067
2024-12-07 16:32:25.765553400,9.165553466796876,3.2456870079040527,-1.389326095581055,-1.0535836219787598
2024-12-07 16:32:25.775581700,9.175581787109374,2.854512453079224,-2.3331403732299805,-2.5146195888519287
2024-12-07 16:32:25.785609700,9.185609619140624,1.285901427268982,-2.6856279373168945,-4.127898216247559
2024-12-07 16:32:25.795637800,9.1956376953125,-1.0173053741455078,-2.0354490280151367,-4.592658519744873
2024-12-07 16:32:25.805665800,9.205665771484377,-3.342519760131836,-1.2360916137695312,-3.157927989959717
2024-12-07 16:32:25.815693800,9.21569384765625,-4.156088829040527,-0.6519327163696289,-1.8293297290802
2024-12-07 16:32:25.825721900,9.225721923828123,-3.449784755706787,-0.0682907104492187,-0.237691044807434
2024-12-07 16:32:25.835750100,9.235750244140624,-2.3535075187683105,0.2803764343261719,1.2225916385650637
2024-12-07 16:32:25.845778200,9.245778076171876,-0.8850935697555542,0.012211799621582,2.6250057220458984
2024-12-07 16:32:25.855806200,9.25580615234375,1.4705603122711182,-0.4180812835693359,3.145103931427002
2024-12-07 16:32:25.865834200,9.265834228515626,5.1715087890625,-0.8968210220336914,3.1236648559570312
2024-12-07 16:32:25.875862300,9.2758623046875,7.633940696716309,-1.464259147644043,3.207727432250977
2024-12-07 16:32:25.885890300,9.285890380859374,7.845510959625244,-1.7404718399047852,3.2227931022644043
2024-12-07 16:32:25.895918600,9.295918701171876,6.41930103302002,-1.5940637588500977,2.474956512451172
2024-12-07 16:32:25.905946600,9.305946533203125,3.8433332443237305,-1.1167049407958984,0.9020388126373292
2024-12-07 16:32:25.915974700,9.315974609375,0.6033484935760498,-0.2449636459350586,-0.7940247058868408
2024-12-07 16:32:25.926002700,9.326002685546875,-2.848697662353516,0.6558618545532227,-1.5689440965652466
2024-12-07 16:32:25.936030700,9.33603076171875,-5.820917129516602,1.270761489868164,-2.834558486938477
2024-12-07 16:32:25.946058800,9.346058837890626,-6.693370342254639,1.7398662567138672,-3.8980984687805176
2024-12-07 16:32:25.956086800,9.356086669921876,-4.772044658660889,1.6673831939697266,-3.8734889030456543
2024-12-07 16:32:25.966115000,9.366114990234376,-3.000627994537353,1.123077392578125,-2.689946174621582
2024-12-07 16:32:25.976143000,9.37614306640625,-2.04672646522522,0.2969570159912109,-1.0261955261230469
2024-12-07 16:32:25.986171100,9.386171142578124,-1.7062314748764038,-0.4483757019042969,0.1779571771621704
2024-12-07 16:32:25.996199200,9.39619921875,-1.0915485620498655,-0.8798952102661133,1.0769940614700315
2024-12-07 16:32:26.006227200,9.406227294921877,-0.452800989151001,-0.9992589950561525,1.840167760848999
2024-12-07 16:32:26.016255200,9.416255126953123,-0.1702861785888672,-0.8027505874633789,2.498542308807373
2024-12-07 16:32:26.026283500,9.426283447265623,-0.1324701309204101,-0.4006614685058594,2.882164478302002
2024-12-07 16:32:26.036311600,9.4363115234375,-0.0949512720108032,0.1684226989746093,3.0595779418945312
2024-12-07 16:32:26.046339600,9.446339599609376,0.1497895717620849,0.7843618392944336,2.9568190574646
2024-12-07 16:32:26.056367600,9.45636767578125,0.6026320457458496,1.2070884704589844,2.9471824169158936
2024-12-07 16:32:26.066395600,9.466395751953126,1.0216989517211914,1.4503145217895508,2.4506356716156006
2024-12-07 16:32:26.076423700,9.476423583984374,1.0810508728027344,1.4047222137451172,1.447407364845276
2024-12-07 16:32:26.086452000,9.486451904296874,0.6984540224075317,1.1054296493530271,0.592605471611023
2024-12-07 16:32:26.096480000,9.49647998046875,0.3749967813491821,0.7546968460083008,-0.1816167831420898
2024-12-07 16:32:26.106507800,9.5065078125,0.2593245506286621,0.5156888961791992,-1.2522146701812744
2024-12-07 16:32:26.116535800,9.516535888671877,0.1501128673553466,0.2545948028564453,-1.5405242443084717
2024-12-07 16:32:26.126563800,9.526563720703123,0.2662075757980346,0.1289625167846679,-1.667881727218628
2024-12-07 16:32:26.136592000,9.536591796875,0.4405336380004883,0.0188655853271484,-1.4404964447021484
2024-12-07 16:32:26.146620000,9.546619873046875,0.8931783437728882,-0.1238574981689453,-1.0684175491333008
2024-12-07 16:32:26.156648000,9.55664794921875,1.4534531831741333,-0.2044515609741211,-0.6076022982597351
2024-12-07 16:32:26.166676000,9.566676025390626,1.9594224691390991,-0.2336845397949218,-0.1384991109371185
2024-12-07 16:32:26.176704000,9.5767041015625,2.335889339447021,-0.2364692687988281,0.0866619944572448
2024-12-07 16:32:26.186732000,9.58673193359375,2.263149738311768,-0.1843023300170898,0.2093152999877929
2024-12-07 16:32:26.196760000,9.596760009765624,1.9196735620498653,-0.1917629241943359,0.2399555146694183
2024-12-07 16:32:26.206788000,9.6067880859375,1.3525720834732056,-0.0860614776611328,0.0641186535358429
2024-12-07 16:32:26.216816000,9.616816162109377,0.7166143655776978,0.191110610961914,-0.1838392317295074
2024-12-07 16:32:26.226844200,9.62684423828125,0.6102914810180664,0.5920200347900391,-0.462024837732315
2024-12-07 16:32:26.236872200,9.6368720703125,0.6102476119995117,1.068282127380371,-0.6938047409057617
2024-12-07 16:32:26.246900200,9.646900146484375,0.3441054821014404,1.452620506286621,-0.9760586023330688
2024-12-07 16:32:26.256928300,9.65692822265625,-0.0524778366088867,1.6500883102416992,-1.1732547283172607
2024-12-07 16:32:26.266956300,9.666956298828126,-0.288272500038147,1.7147016525268557,-1.2171388864517212
2024-12-07 16:32:26.276984300,9.676984375,-0.0630998611450195,1.7051124572753906,-0.9554622173309326
2024-12-07 16:32:26.287012400,9.687012451171874,0.822425127029419,1.6357898712158203,-0.3441168665885925
2024-12-07 16:32:26.297040400,9.697040283203124,1.7360270023345947,1.6872596740722656,0.3340695202350616
2024-12-07 16:32:26.307068400,9.707068359375,1.924504041671753,1.8250789642333984,0.5706289410591125
2024-12-07 16:32:26.317096400,9.717096435546877,1.8872041702270508,2.1686253547668457,0.210275799036026
2024-12-07 16:32:26.327124500,9.72712451171875,1.7783753871917725,2.531309127807617,-0.101824901998043
2024-12-07 16:32:26.337152300,9.73715234375,1.4942975044250488,2.8464488983154297,-0.0722627788782119
2024-12-07 16:32:26.347180300,9.74718017578125,1.5459344387054443,3.123505115509033,-0.0711434632539749
2024-12-07 16:32:26.357208300,9.757208251953124,1.3740791082382202,3.305210590362549,-0.2728821337223053
2024-12-07 16:32:26.367236400,9.767236328125,0.9658310413360596,2.9858856201171875,-0.4080691635608673
2024-12-07 16:32:26.377264400,9.777264404296876,0.935005784034729,1.306325912475586,0.3881963789463043
2024-12-07 16:32:26.387292400,9.78729248046875,1.3209960460662842,-1.5359745025634766,1.8967828750610352
2024-12-07 16:32:26.397320700,9.79732080078125,1.8411740064620967,-5.396841049194336,3.385509967803955
2024-12-07 16:32:26.407348700,9.8073486328125,3.0922155380249023,-10.251137733459473,4.315479755401611
2024-12-07 16:32:26.417376800,9.817376708984376,4.236860275268555,-13.18453598022461,4.0392165184021
2024-12-07 16:32:26.427404800,9.82740478515625,3.886942148208618,-11.337892532348633,0.4174517393112182
2024-12-07 16:32:26.437432800,9.837432861328123,-0.0443923473358154,-6.346217155456543,-2.2880773544311523
2024-12-07 16:32:26.447460900,9.8474609375,-4.2056169509887695,-1.6884031295776367,-1.406545877456665
2024-12-07 16:32:26.457489200,9.8574892578125,-5.931783676147461,1.8032112121582031,-0.3396688401699066
2024-12-07 16:32:26.467517200,9.86751708984375,-6.284877777099609,4.627285003662109,0.5782893300056458
2024-12-07 16:32:26.477545200,9.877545166015626,-6.329423904418945,7.195493221282959,1.2582286596298218
2024-12-07 16:32:26.487573200,9.8875732421875,-6.395631790161133,8.400073051452637,1.2465229034423828
2024-12-07 16:32:26.497601300,9.897601318359374,-6.364514350891113,7.117276668548584,0.7431262135505676
2024-12-07 16:32:26.507629300,9.90762939453125,-5.255345821380615,4.326945781707764,0.1364350914955139
2024-12-07 16:32:26.517657600,9.91765771484375,-3.455188035964966,1.6114587783813477,-0.6969468593597412
2024-12-07 16:32:26.527685600,9.927685546875,-1.9040045738220217,-0.6583099365234375,-1.7887845039367676
2024-12-07 16:32:26.537713700,9.937713623046877,-0.0432119369506835,-2.6802425384521484,-2.193316698074341
2024-12-07 16:32:26.547741700,9.94774169921875,1.3250253200531006,-4.255463600158691,-1.9274766445159912
2024-12-07 16:32:26.557769700,9.957769775390624,1.4920099973678589,-4.787667274475098,-1.726291298866272
2024-12-07 16:32:26.567797800,9.9677978515625,0.9283088445663452,-4.158730506896973,-0.6941201686859131
2024-12-07 16:32:26.577825800,9.97782568359375,0.8519576787948608,-2.638492584228516,1.1621782779693604
2024-12-07 16:32:26.587854000,9.98785400390625,0.9232813119888306,-0.8076267242431641,2.407144784927368
2024-12-07 16:32:26.597882000,9.997882080078124,0.4572567939758301,0.5493373870849609,3.028829336166382
2024-12-07 16:32:26.607910100,10.00791015625,-0.3634527921676636,1.423771858215332,2.948402643203736
2024-12-07 16:32:26.617938200,10.017938232421876,-1.4014331102371216,1.917535781860352,2.172618865966797
2024-12-07 16:32:26.627966200,10.02796630859375,-2.336115598678589,1.9368915557861328,1.0326189994812012
2024-12-07 16:32:26.637994200,10.037994140625,-2.6249380111694336,1.5218935012817385,-0.2072423100471496
2024-12-07 16:32:26.648022500,10.0480224609375,-2.210481882095337,0.9123220443725586,-1.383472204208374
2024-12-07 16:32:26.658050600,10.058050537109375,-1.7893922328948977,0.3714485168457031,-2.271413564682007
2024-12-07 16:32:26.668078600,10.06807861328125,-1.5187311172485352,-0.019357681274414,-2.5968141555786133
2024-12-07 16:32:26.678106600,10.078106689453126,-1.143875002861023,-0.3127527236938476,-2.4221031665802
2024-12-07 16:32:26.688134700,10.088134765625,-0.7230688333511353,-0.5233278274536133,-2.0105865001678467
2024-12-07 16:32:26.698162700,10.09816259765625,-0.2952466011047363,-0.6370363235473633,-1.5156903266906738
2024-12-07 16:32:26.708191000,10.10819091796875,0.1002936363220214,-0.6209373474121094,-0.9819015264511108
2024-12-07 16:32:26.718219000,10.118218994140625,0.4469032883644104,-0.4805841445922851,-0.2967411279678345
2024-12-07 16:32:26.728247000,10.1282470703125,0.7600602507591248,-0.3602361679077148,0.4501004219055176
2024-12-07 16:32:26.738275000,10.138275146484377,0.9169263243675232,-0.2889623641967773,1.0221763849258425
2024-12-07 16:32:26.748303000,10.14830322265625,0.908511221408844,-0.1425409317016601,1.4465410709381104
2024-12-07 16:32:26.758331100,10.1583310546875,0.7566971778869629,0.0455198287963867,1.583587646484375
2024-12-07 16:32:26.768359400,10.168359375,0.6026866436004639,0.1273994445800781,1.425894856452942
2024-12-07 16:32:26.778387500,10.178387451171876,0.4763945341110229,0.2610836029052734,1.3037683963775637
2024-12-07 16:32:26.788415500,10.18841552734375,0.3546962141990661,0.3080720901489258,1.0364868640899658
2024-12-07 16:32:26.798443500,10.198443603515624,0.2730476856231689,0.2115335464477539,0.831035852432251
2024-12-07 16:32:26.808471600,10.208471435546874,0.4239943027496338,0.0530900955200195,0.7014051675796509
2024-12-07 16:32:26.818499600,10.21849951171875,0.7640122175216675,0.0237598419189453,0.5791399478912354
2024-12-07 16:32:26.828527600,10.228527587890625,1.2288496494293213,0.1420192718505859,0.2670583724975586
2024-12-07 16:32:26.838556000,10.238555908203123,1.5346946716308594,0.1686353683471679,-0.238351285457611
2024-12-07 16:32:26.848584000,10.248583984375,1.7248308658599854,0.1899909973144531,-0.6531402468681335
2024-12-07 16:32:26.858612000,10.258612060546875,2.105882167816162,0.0725440979003906,-1.1339339017868042
2024-12-07 16:32:26.868640000,10.268639892578124,2.4195005893707275,-0.1112709045410156,-1.5530449151992798
2024-12-07 16:32:26.878668000,10.27866796875,2.2325055599212646,-0.1794881820678711,-1.67024028301239
2024-12-07 16:32:26.888696000,10.288696044921876,1.945641279220581,-0.1848030090332031,-1.7107566595077517
2024-12-07 16:32:26.898724400,10.298724365234374,1.7952851057052612,-0.2708244323730469,-1.7908563613891602
2024-12-07 16:32:26.908752400,10.30875244140625,1.756204605102539,-0.5378808975219727,-1.90645718574524
2024-12-07 16:32:26.918780400,10.318780517578125,1.6279075145721436,-0.8230056762695312,-2.117378234863281
2024-12-07 16:32:26.928808400,10.328808349609377,1.1947590112686155,-0.9395570755004884,-2.2721221446990967
2024-12-07 16:32:26.938836500,10.33883642578125,0.5004377365112305,-0.7873401641845703,-2.3971471786499023
2024-12-07 16:32:26.948864500,10.348864501953123,-0.5667701959609985,-0.4096479415893554,-2.2942943572998047
2024-12-07 16:32:26.958892800,10.358892822265624,-1.8225364685058592,-0.0602684020996093,-1.7980332374572754
2024-12-07 16:32:26.968920800,10.3689208984375,-2.277064085006714,-0.0263004302978515,-0.765670657157898
2024-12-07 16:32:26.978948900,10.378948974609376,-1.3959439992904663,-0.3127012252807617,0.6751570701599121
2024-12-07 16:32:26.988977000,10.388976806640626,-0.4242626130580902,-0.5087871551513672,1.823115825653076
2024-12-07 16:32:26.999005000,10.3990048828125,0.6689952611923218,-0.6435375213623047,2.591010570526123
2024-12-07 16:32:27.009033000,10.409032958984374,1.5390970706939695,-0.6072378158569336,3.19795036315918
2024-12-07 16:32:27.019061200,10.419061279296876,1.946035385131836,-0.5294075012207031,3.48459529876709
2024-12-07 16:32:27.029089300,10.42908935546875,2.0198957920074463,-0.4579629898071289,3.4188425540924072
2024-12-07 16:32:27.039117300,10.439117431640623,1.895074844360352,-0.3451042175292969,3.147549629211426
2024-12-07 16:32:27.049145300,10.449145263671875,1.7284189462661743,-0.1195020675659179,2.6589879989624023
2024-12-07 16:32:27.059173400,10.45917333984375,1.4680297374725342,0.1177701950073242,1.8019402027130127
2024-12-07 16:32:27.069201400,10.469201416015624,1.295928716659546,0.2280731201171875,0.4425429105758667
2024-12-07 16:32:27.079229400,10.4792294921875,1.3798997402191162,0.2026329040527343,-1.0870440006256104
2024-12-07 16:32:27.089257700,10.4892578125,1.8278450965881348,-0.0243606567382812,-2.641328811645508
2024-12-07 16:32:27.099285800,10.49928564453125,2.5300025939941406,-0.3704481124877929,-4.218267440795898
2024-12-07 16:32:27.109313800,10.509313720703124,2.745872259140014,-0.7485532760620117,-5.208299160003662
2024-12-07 16:32:27.119341800,10.519341796875,2.644464492797852,-1.1489534378051758,-5.155409812927246
2024-12-07 16:32:27.129369900,10.529369873046877,1.3396337032318115,-1.2426280975341797,-4.25865364074707
2024-12-07 16:32:27.139398000,10.53939794921875,-2.2259764671325684,-1.0239191055297852,-3.195413112640381
2024-12-07 16:32:27.149426200,10.54942626953125,-4.839361190795898,-0.6675424575805664,-2.038313865661621
2024-12-07 16:32:27.159454200,10.5594541015625,-5.618014812469482,-0.312352180480957,-0.9329631924629213
2024-12-07 16:32:27.169482200,10.569482177734375,-5.410647392272949,-0.060159683227539,0.8553798794746399
2024-12-07 16:32:27.179510300,10.57951025390625,-4.563540935516357,0.1268014907836914,1.8049986362457275
2024-12-07 16:32:27.189538300,10.589538330078126,-2.800302743911743,0.0101575851440429,1.677811622619629
2024-12-07 16:32:27.199566300,10.59956640625,-0.5710805058479309,-0.3339796066284179,1.9355018138885496
2024-12-07 16:32:27.209594600,10.6095947265625,1.2057597637176514,-0.4963836669921875,2.1618194580078125
2024-12-07 16:32:27.219622700,10.61962255859375,1.9680767059326167,-0.3544473648071289,1.823415994644165
2024-12-07 16:32:27.229650700,10.629650634765625,2.123252868652344,-0.1047430038452148,1.4050698280334473
2024-12-07 16:32:27.239678700,10.6396787109375,1.905739188194275,0.0715847015380859,1.0791404247283936
2024-12-07 16:32:27.249706800,10.649706787109375,1.6012678146362305,0.1035470962524414,0.9978523254394532
2024-12-07 16:32:27.259734800,10.65973486328125,1.528464674949646,0.0008754730224609,1.1317098140716553
2024-12-07 16:32:27.269763000,10.66976318359375,1.9287378787994385,-0.1271228790283203,1.2260760068893433
2024-12-07 16:32:27.279791000,10.679791015625,2.2921273708343506,-0.1619958877563476,1.2473337650299072
2024-12-07 16:32:27.289819100,10.689819091796876,2.1322946548461914,-0.0132770538330078,1.360257625579834
2024-12-07 16:32:27.299847200,10.69984716796875,1.7377578020095823,0.3765029907226562,1.352535367012024
2024-12-07 16:32:27.309875200,10.709875244140624,1.2324379682540894,0.9021759033203124,1.392625331878662
2024-12-07 16:32:27.319903200,10.7199033203125,0.6528404951095581,1.5208063125610352,1.438960075378418
2024-12-07 16:32:27.329931300,10.72993115234375,0.0593767166137695,2.036785125732422,1.6027984619140625
2024-12-07 16:32:27.339959600,10.73995947265625,-0.3300246000289917,2.364907741546631,1.76535964012146
2024-12-07 16:32:27.349987600,10.749987548828123,-0.5307142734527588,2.558946132659912,1.893010139465332
2024-12-07 16:32:27.360015600,10.760015625,-0.5620284080505371,2.80171012878418,1.9378504753112795
2024-12-07 16:32:27.370043600,10.770043701171875,-0.0587563514709472,3.060099124908448,1.764542579650879
2024-12-07 16:32:27.380071700,10.78007177734375,0.5661085844039917,3.3147196769714355,1.0907442569732666
2024-12-07 16:32:27.390099700,10.790099609375,0.8701125383377075,3.598584175109864,-0.2085619866847992
2024-12-07 16:32:27.400128000,10.8001279296875,0.6379362344741821,3.7159175872802734,-1.98259961605072
2024-12-07 16:32:27.410156000,10.810156005859374,-0.0523735284805297,3.5298280715942383,-3.9214890003204346
2024-12-07 16:32:27.420184000,10.82018408203125,-0.0628148317337036,3.123526096343994,-5.986947059631348
2024-12-07 16:32:27.430212000,10.830212158203125,0.7497208118438721,2.143949031829834,-7.197941780090332
2024-12-07 16:32:27.440240000,10.840240234375,2.751455783843994,-0.1452713012695312,-6.698044776916504
2024-12-07 16:32:27.450268200,10.85026806640625,5.34593677520752,-3.6692123413085938,-4.163747310638428
2024-12-07 16:32:27.460296200,10.860296142578123,7.282381057739258,-8.223719596862793,-1.4008331298828125
2024-12-07 16:32:27.470324200,10.87032421875,6.801822662353516,-12.661735534667969,-0.8920150399208069
2024-12-07 16:32:27.480352300,10.880352294921876,2.627410411834717,-12.57976245880127,-1.7819600105285645
2024-12-07 16:32:27.490380300,10.89038037109375,-1.5887939929962158,-8.85649585723877,-1.0318026542663574
2024-12-07 16:32:27.500408300,10.900408203125,-4.250094890594482,-4.1633806228637695,-0.7547094821929932
2024-12-07 16:32:27.510436400,10.910436279296874,-6.117566585540772,0.4809856414794922,0.1599630117416381
2024-12-07 16:32:27.520464400,10.92046435546875,-6.552302360534668,3.987174034118652,2.596114158630371
2024-12-07 16:32:27.530492400,10.930492431640625,-5.342947006225586,6.809844017028809,4.881280422210693
2024-12-07 16:32:27.540520400,10.9405205078125,-3.79937195777893,8.259662628173828,5.778325080871582
2024-12-07 16:32:27.550548500,10.950548583984377,-3.3574509620666504,7.587247848510742,5.0525078773498535
2024-12-07 16:32:27.560576500,10.960576416015623,-3.5008764266967773,5.657513618469238,3.401343822479248
2024-12-07 16:32:27.570604500,10.9706044921875,-3.247950792312622,3.023811817169189,1.0314133167266846
2024-12-07 16:32:27.580632600,10.980632568359376,-2.4549567699432373,0.343475341796875,-1.0709909200668335
2024-12-07 16:32:27.590660600,10.99066064453125,-1.4196090698242188,-2.133758544921875,-2.545576572418213
2024-12-07 16:32:27.600688600,11.000688720703126,-0.6999993324279785,-3.9622554779052734,-3.4877638816833496
2024-12-07 16:32:27.610716700,11.010716552734374,-0.7385207414627075,-4.59782600402832,-3.0378670692443848
2024-12-07 16:32:27.620744400,11.020744384765624,-1.3634788990020752,-3.847776412963867,-1.540156364440918
2024-12-07 16:32:27.630772500,11.0307724609375,-1.1774461269378662,-2.413763999938965,0.3570117950439453
2024-12-07 16:32:27.640800500,11.040800537109376,0.7062257528305054,-1.2456884384155271,1.7529385089874268
2024-12-07 16:32:27.650828500,11.05082861328125,2.026909828186035,-0.4655466079711914,2.6321988105773926
2024-12-07 16:32:27.660856600,11.060856689453123,1.7977672815322876,0.1456670761108398,2.9667251110076904
2024-12-07 16:32:27.670884600,11.070884521484375,0.3827499151229858,0.9046812057495116,2.402482986450196
2024-12-07 16:32:27.680912600,11.08091259765625,-1.1206344366073608,1.3553552627563477,1.4320496320724487
2024-12-07 16:32:27.690940700,11.090940673828126,-2.354780912399292,1.2526121139526367,0.5084167122840881
2024-12-07 16:32:27.700968700,11.10096875,-2.439958572387696,0.7704029083251953,0.1946247220039367
2024-12-07 16:32:27.710996700,11.110996826171874,-2.382481575012207,0.472085952758789,0.2276875972747802
2024-12-07 16:32:27.721024800,11.121024658203124,-2.2846364974975586,0.3136014938354492,0.287916362285614
2024-12-07 16:32:27.731052800,11.131052734375,-2.022233009338379,0.0842247009277343,0.5352694988250732
2024-12-07 16:32:27.741080800,11.141080810546876,-1.6107509136199951,-0.1063241958618164,0.9910128116607666
2024-12-07 16:32:27.751108900,11.15110888671875,-1.0560073852539062,-0.2393875122070312,1.5226446390151978
2024-12-07 16:32:27.761137000,11.161136962890623,-0.4696356654167175,-0.3968381881713867,1.748562574386597
2024-12-07 16:32:27.771165000,11.1711650390625,-0.2164105176925659,-0.5503559112548828,1.5385925769805908
2024-12-07 16:32:27.781193000,11.18119287109375,-0.3387272357940674,-0.6950197219848633,1.0299476385116575
2024-12-07 16:32:27.791221000,11.191220947265624,-0.6713386178016663,-0.7252998352050781,0.5890932083129883
2024-12-07 16:32:27.801249000,11.2012490234375,-0.8535074591636658,-0.5836849212646484,0.3332880139350891
2024-12-07 16:32:27.811277000,11.211277099609376,-0.843157947063446,-0.3661088943481445,0.1869582533836364
2024-12-07 16:32:27.821305000,11.22130517578125,-0.7905166745185852,-0.08251953125,0.0736744999885559
2024-12-07 16:32:27.831333000,11.2313330078125,-0.8056564331054688,0.2382583618164062,0.1367309689521789
2024-12-07 16:32:27.841361200,11.241361083984376,-0.5759508609771729,0.462442398071289,0.2830774784088135
2024-12-07 16:32:27.851389200,11.25138916015625,0.0087172985076904,0.5185060501098633,0.2575966119766235
2024-12-07 16:32:27.861417200,11.261417236328125,0.5076881647109985,0.4687871932983398,-0.0068975687026977
2024-12-07 16:32:27.871445500,11.271445556640623,0.7822592258453369,0.4233331680297851,-0.375687837600708
2024-12-07 16:32:27.881473500,11.2814736328125,0.9419986009597778,0.2867965698242187,-1.0079537630081177
2024-12-07 16:32:27.891501600,11.29150146484375,0.9291629791259766,0.0408687591552734,-1.3340485095977783
2024-12-07 16:32:27.901529600,11.301529541015626,1.0165789127349854,-0.1513376235961914,-1.1989035606384275
2024-12-07 16:32:27.911557600,11.3115576171875,1.174668788909912,-0.2470636367797851,-0.738168478012085
2024-12-07 16:32:27.921585700,11.321585693359374,1.2633049488067627,-0.3519935607910156,-0.2986931800842285
2024-12-07 16:32:27.931614000,11.331614013671874,1.2741084098815918,-0.4565572738647461,-0.0057014226913452
2024-12-07 16:32:27.941642000,11.34164208984375,1.3669095039367676,-0.550898551940918,0.1132155656814575
2024-12-07 16:32:27.951670000,11.351669921875,1.5991370677947998,-0.6778812408447266,0.169155478477478
2024-12-07 16:32:27.961698000,11.361697998046877,1.7068310976028442,-0.6608095169067383,0.1666755676269531
2024-12-07 16:32:27.971726000,11.37172607421875,1.6279199123382568,-0.6005496978759766,0.1810107231140136
2024-12-07 16:32:27.981754000,11.381754150390623,1.4570958614349363,-0.8367881774902344,0.0949357748031616
2024-12-07 16:32:27.991782400,11.391782470703124,1.2295253276824951,-1.321542739868164,-0.2747645378112793
2024-12-07 16:32:28.001810400,11.401810546875,0.8249934911727905,-1.5290327072143557,-0.8354724049568176
2024-12-07 16:32:28.011838500,11.41183837890625,0.5807472467422485,-0.986729621887207,-1.7574385404586792
2024-12-07 16:32:28.021866500,11.421866455078124,0.4415938854217529,0.1371040344238281,-2.593447208404541
2024-12-07 16:32:28.031894500,11.43189453125,-0.4624694883823395,0.8189754486083984,-2.413704872131348
2024-12-07 16:32:28.041922600,11.441922607421876,-1.1185729503631592,0.6876134872436523,-1.904975175857544
2024-12-07 16:32:28.051950600,11.45195068359375,-0.8316314816474915,0.2270336151123047,-0.8461016416549683
2024-12-07 16:32:28.061979000,11.461978759765625,-0.2065116763114929,0.1681737899780273,-0.3131667375564575
2024-12-07 16:32:28.072007000,11.4720068359375,0.4498241543769836,0.2521295547485351,-0.0609059333801269
2024-12-07 16:32:28.082035000,11.482034912109375,0.9465436339378356,0.1006412506103515,0.5055656433105469
2024-12-07 16:32:28.092063000,11.49206298828125,0.3422146439552307,0.056889533996582,1.0776618719100952
2024-12-07 16:32:28.102091000,11.502091064453126,-0.6532000303268433,0.0923366546630859,1.0206997394561768
2024-12-07 16:32:28.112119000,11.512119140625,-0.5593550205230713,0.0938091278076171,0.497350811958313
2024-12-07 16:32:28.122147300,11.522147216796874,0.8929023742675781,-0.0562915802001953,-0.3953298330307007
2024-12-07 16:32:28.132175400,11.53217529296875,3.1972479820251465,-0.423746109008789,-1.3902887105941772
2024-12-07 16:32:28.142203400,11.542203369140625,5.490224361419678,-1.0236921310424805,-2.2669215202331543
2024-12-07 16:32:28.152231400,11.5522314453125,5.960488319396973,-1.5988998413085938,-3.03855848312378
2024-12-07 16:32:28.162259500,11.562259521484377,4.437140464782715,-1.7912817001342771,-3.4726715087890625
2024-12-07 16:32:28.172287500,11.57228759765625,1.623420476913452,-1.6286516189575195,-3.653201580047608
2024-12-07 16:32:28.182315800,11.582315673828123,0.3130533695220947,-1.397348403930664,-3.2913403511047363
2024-12-07 16:32:28.192343800,11.59234375,-0.10935640335083,-0.9468250274658204,-2.069051742553711
2024-12-07 16:32:28.202371800,11.602371826171876,-1.01735258102417,-0.2648839950561523,-0.9461721181869508
2024-12-07 16:32:28.212399900,11.61239990234375,-1.8029040098190308,0.4440450668334961,-0.63129723072052
2024-12-07 16:32:28.222428000,11.622427978515624,-1.9809551239013672,0.8623161315917969,-0.2789289355278015
