time,seconds_elapsed,z,y,x
2024-12-07 16:21:07.762520000,0.14752001953125,0.2120152711868286,0.0072612762451171,0.02836275100708
2024-12-07 16:21:07.772391400,0.157391357421875,0.1639717817306518,0.0835237503051757,0.0572361946105957
2024-12-07 16:21:07.782295300,0.16729541015625,0.0831693410873413,0.1109914779663086,-0.0436635017395019
2024-12-07 16:21:07.792235300,0.1772353515625,0.019532561302185,0.0447931289672851,-0.1185579299926757
2024-12-07 16:21:07.802213600,0.187213623046875,-0.0204458236694335,0.0857563018798828,0.1032032966613769
2024-12-07 16:21:07.812230700,0.197230712890625,0.0363975763320922,0.0939750671386718,0.2149758338928222
2024-12-07 16:21:07.822285000,0.20728515625,0.115850806236267,0.1119289398193359,0.2247614860534668
2024-12-07 16:21:07.832374500,0.21737451171875,0.1854337453842163,0.103825569152832,0.38897705078125
2024-12-07 16:21:07.842495000,0.227494873046875,0.021394670009613,0.0886621475219726,0.0335350036621093
2024-12-07 16:21:07.852641800,0.237641845703125,0.0510759949684143,-0.0832738876342773,0.0090546607971191
2024-12-07 16:21:07.862808600,0.24780859375,-0.0559393167495727,-0.106292724609375,-0.0947513580322265
2024-12-07 16:21:07.872989400,0.257989501953125,0.0451673865318298,0.0812320709228515,-0.0575513839721679
2024-12-07 16:21:07.883177700,0.268177734375,0.2781542539596557,0.2014894485473632,0.1092972755432128
2024-12-07 16:21:07.893366300,0.2783662109375,0.3999793529510498,0.3611698150634765,0.3498568534851074
2024-12-07 16:21:07.903407000,0.288406982421875,0.49262535572052,0.4394245147705078,0.1910624504089355
2024-12-07 16:21:07.913434600,0.2984345703125,0.9239457845687866,0.4690666198730469,0.5667884349822998
2024-12-07 16:21:07.923462100,0.308462158203125,0.9401586651802064,2.992565631866455,-3.6162219047546382
2024-12-07 16:21:07.933490000,0.318489990234375,0.7488847970962524,-1.001601219177246,0.2129206657409668
2024-12-07 16:21:07.943517400,0.328517333984375,-0.1656578183174133,-0.7998800277709961,1.1796696186065674
2024-12-07 16:21:07.953545000,0.338544921875,-0.090116262435913,0.4330339431762695,0.9268465042114258
2024-12-07 16:21:07.963572500,0.348572509765625,-0.0426547527313232,0.6995744705200195,-0.1069707870483398
2024-12-07 16:21:07.973600000,0.35860009765625,0.0604112744331359,0.5318756103515625,0.0655989646911621
2024-12-07 16:21:07.983627500,0.36862744140625,0.2537468671798706,0.5011873245239258,0.1142764091491699
2024-12-07 16:21:07.993655000,0.378655029296875,0.37481290102005,0.622279167175293,0.1107368469238281
2024-12-07 16:21:08.003682600,0.3886826171875,0.3748654127120971,0.239018440246582,-0.2836723327636719
2024-12-07 16:21:08.013710300,0.39871044921875,0.1453390121459961,-0.2140159606933593,-0.4722132682800293
2024-12-07 16:21:08.023737900,0.40873779296875,0.0290077924728393,-0.275848388671875,-0.3892741203308105
2024-12-07 16:21:08.033765400,0.418765380859375,-0.1028880476951599,-0.2546653747558594,-0.1553277969360351
2024-12-07 16:21:08.043793000,0.42879296875,-0.2606080770492553,-0.0534381866455078,0.0421652793884277
2024-12-07 16:21:08.053820400,0.4388203125,-0.1911782026290893,0.1940574645996093,0.2253823280334472
2024-12-07 16:21:08.063848000,0.448847900390625,-0.1116381287574768,0.4038934707641601,0.3973147869110107
2024-12-07 16:21:08.073875500,0.45887548828125,0.0410420894622802,0.2088708877563476,0.4822571277618408
2024-12-07 16:21:08.083903000,0.468903076171875,0.0935567021369934,-0.2793312072753906,0.3849337100982666
2024-12-07 16:21:08.093930800,0.4789306640625,0.0626338720321655,-0.596898078918457,0.2886340618133545
2024-12-07 16:21:08.103958300,0.488958251953125,-0.1172758936882019,-0.7900533676147461,0.240182876586914
2024-12-07 16:21:08.113985800,0.49898583984375,-0.0572484135627746,-0.9596843719482422,0.2800652980804443
2024-12-07 16:21:08.124013300,0.509013427734375,0.0290044546127319,-0.909104347229004,0.4414448738098144
2024-12-07 16:21:08.134040800,0.519040771484375,0.1529843807220459,-0.4886837005615234,0.2579452991485595
2024-12-07 16:21:08.144068400,0.529068359375,-0.1843703389167785,-0.6526937484741211,0.5707635879516602
2024-12-07 16:21:08.154095900,0.539095947265625,-0.573850154876709,-0.8949527740478516,0.6773726940155029
2024-12-07 16:21:08.164123400,0.549123291015625,-0.4889631867408752,-0.1783523559570312,0.5886507034301758
2024-12-07 16:21:08.174151200,0.559151123046875,-0.2692344188690185,0.8582639694213867,0.4413087368011474
2024-12-07 16:21:08.184178700,0.5691787109375,-0.2503886818885803,1.0302581787109375,1.1258585453033447
2024-12-07 16:21:08.194206200,0.579206298828125,-0.1683676242828369,0.3338031768798828,1.8817672729492188
2024-12-07 16:21:08.204233700,0.589233642578125,-0.1984782218933105,0.1913290023803711,2.1800343990325928
2024-12-07 16:21:08.214261200,0.59926123046875,-0.0156385898590087,0.3151693344116211,1.895173192024231
2024-12-07 16:21:08.224288800,0.609288818359375,0.0590973496437072,0.3555860519409179,1.6040253639221191
2024-12-07 16:21:08.234316300,0.61931640625,0.1026965975761413,0.3638286590576172,1.1035953760147097
2024-12-07 16:21:08.244343800,0.62934375,0.1190583109855651,0.5732669830322266,0.5117731094360352
2024-12-07 16:21:08.254371600,0.63937158203125,-0.1220399141311645,0.5843057632446289,0.1435203552246093
2024-12-07 16:21:08.264399000,0.649399169921875,-0.495524138212204,0.4522838592529297,-0.1320264339447021
2024-12-07 16:21:08.274426600,0.659426513671875,-1.055647611618042,0.5750494003295898,-1.1248769760131836
2024-12-07 16:21:08.284454100,0.6694541015625,-1.0320210456848145,0.9707021713256836,-2.32479476928711
2024-12-07 16:21:08.294481700,0.679481689453125,-0.4735628068447113,1.1863584518432615,-3.353766441345215
2024-12-07 16:21:08.304509200,0.68950927734375,-0.4283511340618133,0.2108516693115234,-3.68176794052124
2024-12-07 16:21:08.314536700,0.69953662109375,-0.6275312304496765,-0.8900270462036133,-3.408009529113769
2024-12-07 16:21:08.324564200,0.709564208984375,-0.3797321617603302,-1.896622657775879,-2.8214831352233887
2024-12-07 16:21:08.334592000,0.719592041015625,-0.1851974725723266,-2.73867130279541,-2.401888132095337
2024-12-07 16:21:08.344619500,0.72961962890625,-0.5281248092651367,-2.933094024658203,-2.585243225097656
2024-12-07 16:21:08.354647000,0.73964697265625,-0.4416938424110412,-2.2674360275268555,-2.050394296646118
2024-12-07 16:21:08.364674600,0.749674560546875,0.4340351819992065,-1.2816734313964844,-1.374057054519653
2024-12-07 16:21:08.374702000,0.7597021484375,0.3780014514923095,-1.0242538452148438,-1.7566457986831665
2024-12-07 16:21:08.384729600,0.7697294921875,0.6300821304321289,-0.201364517211914,-1.3751999139785769
2024-12-07 16:21:08.394757000,0.779757080078125,0.3046120107173919,0.0181379318237304,-1.184823513031006
2024-12-07 16:21:08.404784600,0.78978466796875,0.1789275705814361,-0.2347555160522461,-0.5422050952911377
2024-12-07 16:21:08.414812400,0.7998125,0.3304913640022278,-0.3431358337402344,0.0333209037780761
2024-12-07 16:21:08.424840000,0.80983984375,0.4899615049362182,-0.3936128616333008,0.0578783750534057
2024-12-07 16:21:08.434867500,0.819867431640625,0.6403299570083618,-0.3257055282592773,-0.1490025520324707
2024-12-07 16:21:08.444895000,0.82989501953125,0.5752987265586853,-0.3353357315063476,-0.4907293319702148
2024-12-07 16:21:08.454922500,0.839922607421875,0.1982636451721191,-0.3036880493164062,-0.3906537294387817
2024-12-07 16:21:08.464950000,0.849949951171875,-0.2456185817718505,-0.1975317001342773,0.1096742153167724
2024-12-07 16:21:08.474977500,0.8599775390625,-0.3503240644931793,-0.3292932510375976,0.5720535516738892
2024-12-07 16:21:08.485005000,0.870005126953125,-0.0082967579364776,-0.54461669921875,1.0002599954605105
2024-12-07 16:21:08.495032800,0.88003271484375,0.1230590641498565,-0.6769609451293945,1.2845035791397097
2024-12-07 16:21:08.505060400,0.890060302734375,-0.1518779844045639,-0.4535064697265625,1.1896586418151855
2024-12-07 16:21:08.515088000,0.900087890625,-0.5503315925598145,-0.3706350326538086,0.812638521194458
2024-12-07 16:21:08.525115400,0.910115478515625,-0.4412927627563476,-0.5823478698730469,0.551826000213623
2024-12-07 16:21:08.535143000,0.920142822265625,0.2186093628406524,-0.7445287704467773,0.1873226761817932
2024-12-07 16:21:08.545170400,0.93017041015625,0.5705292224884033,-0.6781139373779297,0.0281785726547241
2024-12-07 16:21:08.555198000,0.940197998046875,0.357969731092453,-0.092254638671875,-0.0500892400741577
2024-12-07 16:21:08.565225500,0.9502255859375,-0.7054650783538818,0.7436714172363281,0.9168950915336608
2024-12-07 16:21:08.575253200,0.960253173828125,-0.164511039853096,1.088658332824707,-0.5264303684234619
2024-12-07 16:21:08.585280800,0.97028076171875,1.1450228691101074,0.5055322647094727,-0.6256225109100342
2024-12-07 16:21:08.595308300,0.980308349609375,1.1725281476974487,0.2267770767211914,0.3475801944732666
2024-12-07 16:21:08.605335800,0.990335693359375,0.7870273590087891,0.031743049621582,0.6854259967803955
2024-12-07 16:21:08.615363300,1.00036328125,0.0847584158182144,-0.0901269912719726,0.4008883237838745
2024-12-07 16:21:08.625390800,1.010390869140625,-0.928400456905365,-0.1774463653564453,-0.1570823192596435
2024-12-07 16:21:08.635418400,1.02041845703125,-1.4723137617111206,-0.292302131652832,-0.5751068592071533
2024-12-07 16:21:08.645446000,1.03044580078125,-1.4480974674224854,-0.4487209320068359,-0.6836485266685486
2024-12-07 16:21:08.655473700,1.0404736328125,-1.2879929542541504,-0.3289136886596679,-0.7603640556335449
2024-12-07 16:21:08.665501200,1.050501220703125,-1.132453680038452,-0.0068340301513671,-0.7007818222045898
2024-12-07 16:21:08.675528700,1.06052880859375,-0.8112680912017822,0.0794944763183593,-0.4311270117759704
2024-12-07 16:21:08.685556200,1.07055615234375,-0.5534591674804688,-0.0341711044311523,-0.0172682404518127
2024-12-07 16:21:08.695583700,1.080583740234375,-0.1820496171712875,-0.0422582626342773,0.2151814103126526
2024-12-07 16:21:08.705611300,1.090611328125,0.1577332317829132,0.0306024551391601,0.4279231429100036
2024-12-07 16:21:08.715638800,1.100638671875,0.1752742826938629,0.1694822311401367,0.4069865942001343
2024-12-07 16:21:08.725666300,1.110666259765625,0.0485017746686935,0.2598581314086914,0.0795189142227172
2024-12-07 16:21:08.735694000,1.120694091796875,-0.2206774652004242,0.3541383743286133,-0.1885877251625061
2024-12-07 16:21:08.745721600,1.1307216796875,-0.4534610211849212,0.4284439086914062,-0.1781787276268005
2024-12-07 16:21:08.755749000,1.1407490234375,-0.3837072849273681,0.4687299728393554,0.0512270331382751
2024-12-07 16:21:08.765776600,1.150776611328125,-0.0208405703306198,0.4326801300048828,0.3736692368984222
2024-12-07 16:21:08.775804200,1.16080419921875,0.2606929540634155,0.3021020889282226,0.6118617653846741
2024-12-07 16:21:08.785831700,1.170831787109375,0.3859579861164093,0.0541515350341796,0.7659664750099182
2024-12-07 16:21:08.795859200,1.180859130859375,0.4529427886009216,-0.2816429138183594,0.8120689988136292
2024-12-07 16:21:08.805886700,1.19088671875,0.6629661321640015,-0.5668506622314453,0.6879035830497742
2024-12-07 16:21:08.815914500,1.20091455078125,0.933503806591034,-0.939518928527832,0.3363904058933258
2024-12-07 16:21:08.825942000,1.21094189453125,0.7284631133079529,-0.9197206497192384,-0.0854193568229675
2024-12-07 16:21:08.835969500,1.220969482421875,0.6273666024208069,-0.5630645751953125,-0.5379797220230103
2024-12-07 16:21:08.845997000,1.2309970703125,0.1707785725593567,-0.2427625656127929,-1.12449312210083
2024-12-07 16:21:08.856024600,1.241024658203125,-0.4389042854309082,-0.0298948287963867,-1.4801552295684814
2024-12-07 16:21:08.866052000,1.251052001953125,-0.813546359539032,-0.0328197479248046,-1.58642578125
2024-12-07 16:21:08.876079600,1.26107958984375,-0.7696301341056824,-0.150033950805664,-1.610977053642273
2024-12-07 16:21:08.886107100,1.271107177734375,-0.5059897303581238,-0.3188896179199219,-1.4634873867034912
2024-12-07 16:21:08.896135000,1.281135009765625,-0.3379909992218017,-0.4866695404052734,-1.2034616470336914
2024-12-07 16:21:08.906162400,1.291162353515625,-0.2218496054410934,-0.5583057403564453,-1.061858892440796
2024-12-07 16:21:08.916190000,1.30118994140625,-0.1244526803493499,-0.5012092590332031,-0.982939064502716
2024-12-07 16:21:08.926217500,1.311217529296875,-0.1123129427433013,-0.3258275985717773,-1.0530927181243896
2024-12-07 16:21:08.936245000,1.321244873046875,-0.0616644918918609,-0.0948657989501953,-1.1896493434906006
2024-12-07 16:21:08.946272500,1.3312724609375,0.0492029786109924,0.1057357788085937,-1.1913800239562988
2024-12-07 16:21:08.956300000,1.341300048828125,0.0557247847318649,0.2192468643188476,-0.8588064312934875
2024-12-07 16:21:08.966327600,1.35132763671875,-0.0989509224891662,0.3034210205078125,-0.2519990801811218
2024-12-07 16:21:08.976355300,1.361355224609375,-0.2592354714870453,0.2824697494506836,0.4500907659530639
2024-12-07 16:21:08.986382800,1.3713828125,-0.2941647469997406,0.0764141082763671,1.140789031982422
2024-12-07 16:21:08.996410400,1.381410400390625,-0.0995101630687713,-0.3940744400024414,1.6374084949493408
2024-12-07 16:21:09.006438000,1.39143798828125,0.1028186678886413,-0.9036178588867188,1.9161810874938965
2024-12-07 16:21:09.016465400,1.40146533203125,0.173163890838623,-1.2570819854736328,1.996917486190796
2024-12-07 16:21:09.026493000,1.411492919921875,0.1402306258678436,-1.317922592163086,1.825421929359436
2024-12-07 16:21:09.036520400,1.4215205078125,0.1897684633731842,-1.078913688659668,1.5582739114761353
2024-12-07 16:21:09.046548000,1.4315478515625,0.230470523238182,-0.68963623046875,1.5115283727645874
2024-12-07 16:21:09.056575700,1.44157568359375,0.2524972856044769,-0.3317928314208984,1.5082063674926758
2024-12-07 16:21:09.066603300,1.451603271484375,0.2186854481697082,-0.2476110458374023,1.6244785785675049
2024-12-07 16:21:09.076630800,1.461630859375,0.2779209017753601,-0.3448114395141601,1.8962924480438232
2024-12-07 16:21:09.086658300,1.471658203125,0.4148712158203125,-0.4319486618041992,2.0688469409942627
2024-12-07 16:21:09.096685800,1.481685791015625,0.4844259619712829,-0.4473133087158203,2.0418736934661865
2024-12-07 16:21:09.106713300,1.49171337890625,0.6239004135131836,-0.5388956069946289,1.8497899770736697
2024-12-07 16:21:09.116740900,1.501740966796875,0.5708454251289368,-0.4542446136474609,1.5361427068710327
2024-12-07 16:21:09.126768400,1.511768310546875,0.3364189565181732,-0.1424627304077148,0.750180184841156
2024-12-07 16:21:09.136796200,1.521796142578125,0.1786915957927703,0.3234815597534179,-0.3258209824562073
2024-12-07 16:21:09.146823700,1.53182373046875,0.1995360702276229,0.8332538604736328,-1.3056213855743408
2024-12-07 16:21:09.156851200,1.541851318359375,0.1312281638383865,1.3771448135375977,-2.007201671600342
2024-12-07 16:21:09.166878700,1.551878662109375,0.118453562259674,1.8456792831420896,-2.6825826168060303
2024-12-07 16:21:09.176906200,1.56190625,0.0685297548770904,2.120720863342285,-3.256794214248657
2024-12-07 16:21:09.186933800,1.571933837890625,0.1718774735927581,2.056260108947754,-3.5415079593658447
2024-12-07 16:21:09.196961300,1.581961181640625,0.5795855522155762,1.7020797729492188,-3.680482864379883
2024-12-07 16:21:09.206988800,1.59198876953125,0.9630814790725708,1.1028127670288086,-3.580151557922364
2024-12-07 16:21:09.217016600,1.6020166015625,1.2113304138183594,0.3643722534179687,-3.243812322616577
2024-12-07 16:21:09.227044000,1.612044189453125,1.4662513732910156,-0.3319501876831054,-3.1824121475219727
2024-12-07 16:21:09.237071600,1.622071533203125,1.2545349597930908,-0.8775215148925781,-2.76277756690979
2024-12-07 16:21:09.247099100,1.63209912109375,1.0052992105484009,-0.9878816604614258,-2.2395145893096924
2024-12-07 16:21:09.257126700,1.642126708984375,0.6800042390823364,-0.8414850234985352,-1.461543083190918
2024-12-07 16:21:09.267154200,1.652154296875,-0.3650758266448974,-0.615452766418457,-0.535354495048523
2024-12-07 16:21:09.277181700,1.662181640625,-1.5662717819213867,-0.2662715911865234,0.159234881401062
2024-12-07 16:21:09.287209200,1.672209228515625,-2.257728576660156,0.0300273895263671,0.6516187191009521
2024-12-07 16:21:09.297237000,1.682237060546875,-1.9741017818450928,0.2500057220458984,1.0899996757507324
2024-12-07 16:21:09.307264500,1.692264404296875,-0.7798161506652832,0.2365617752075195,1.651132345199585
2024-12-07 16:21:09.317292000,1.7022919921875,0.3997937440872192,0.0856800079345703,2.43983006477356
2024-12-07 16:21:09.327319600,1.712319580078125,1.008672833442688,-0.1593589782714843,3.054521083831787
2024-12-07 16:21:09.337347000,1.72234716796875,0.8725420236587524,-0.3125009536743164,3.262060642242432
2024-12-07 16:21:09.347374600,1.73237451171875,0.2067180871963501,-0.3693523406982422,2.997257709503174
2024-12-07 16:21:09.357402000,1.742402099609375,-0.4876351356506347,-0.3636398315429687,2.0471792221069336
2024-12-07 16:21:09.367429600,1.7524296875,-0.8308610320091248,-0.2718696594238281,1.0756161212921145
2024-12-07 16:21:09.377457400,1.76245751953125,-0.6055943369865417,-0.1565485000610351,0.5345842838287354
2024-12-07 16:21:09.387485000,1.77248486328125,-0.0421942472457885,-0.0325269699096679,0.3515162765979767
2024-12-07 16:21:09.397512400,1.782512451171875,0.4487408399581909,0.1187057495117187,0.3958218991756439
2024-12-07 16:21:09.407540000,1.7925400390625,0.7038029432296753,0.2015886306762695,0.5169978737831116
2024-12-07 16:21:09.417567500,1.8025673828125,0.9190781116485596,0.1926517486572265,0.5756100416183472
2024-12-07 16:21:09.427595000,1.812594970703125,0.8954529762268066,0.0400781631469726,0.5382237434387207
2024-12-07 16:21:09.437622500,1.82262255859375,0.8015099763870239,-0.2934589385986328,0.7108989953994751
2024-12-07 16:21:09.447650000,1.832650146484375,0.7182565927505493,-0.6307888031005859,0.980921983718872
2024-12-07 16:21:09.457677800,1.842677734375,0.6458134651184082,-0.8621826171875,1.2628694772720337
2024-12-07 16:21:09.467705300,1.852705322265625,0.6926318407058716,-0.8645401000976562,1.1081165075302124
2024-12-07 16:21:09.477732900,1.86273291015625,0.6577181816101074,-0.6583213806152344,0.7912229299545288
2024-12-07 16:21:09.487760400,1.872760498046875,0.5373257398605347,-0.2113332748413086,0.3133030831813812
2024-12-07 16:21:09.497788000,1.882787841796875,0.504958987236023,0.418161392211914,-0.1201620697975158
2024-12-07 16:21:09.507815400,1.8928154296875,0.3186689615249634,1.0008811950683594,-0.2772331833839416
2024-12-07 16:21:09.517843000,1.902843017578125,-0.019412875175476,1.4325551986694336,-0.2976639866828918
2024-12-07 16:21:09.527870500,1.912870361328125,-0.3293787240982055,1.5764341354370115,-0.3443330526351928
2024-12-07 16:21:09.537898200,1.922898193359375,-0.5195316076278687,1.5104780197143557,-0.1873525381088256
2024-12-07 16:21:09.547925800,1.93292578125,-0.6224842071533203,1.2789831161499023,0.1150498390197753
2024-12-07 16:21:09.557953300,1.942953369140625,-0.6543434858322144,0.7979612350463867,0.3125393986701965
2024-12-07 16:21:09.567980800,1.952980712890625,-0.3710203170776367,0.2073650360107422,0.2374969124794006
2024-12-07 16:21:09.578008300,1.96300830078125,0.2010546922683715,-0.3684768676757812,-0.2518591284751892
2024-12-07 16:21:09.588035800,1.973035888671875,0.402860164642334,-0.7548465728759766,-0.6619595289230347
2024-12-07 16:21:09.598063400,1.9830634765625,0.457964539527893,-0.7773637771606445,-0.8220465779304504
2024-12-07 16:21:09.608091000,1.9930908203125,0.3251179456710815,-0.4138860702514648,-0.7913739681243896
2024-12-07 16:21:09.618118700,2.00311865234375,0.2579878568649292,0.2765388488769531,-0.5668541193008423
2024-12-07 16:21:09.628146200,2.013146240234375,0.0591431856155395,1.1110973358154297,-0.1084511280059814
2024-12-07 16:21:09.638173700,2.023173583984375,-0.27019202709198,1.7941713333129885,0.4605402946472168
2024-12-07 16:21:09.648201200,2.033201171875,-0.4371621608734131,2.0650439262390137,1.0283191204071045
2024-12-07 16:21:09.658228700,2.043228759765625,-0.3173834085464477,1.873734474182129,1.6610236167907717
2024-12-07 16:21:09.668256300,2.05325634765625,0.2248803377151489,1.337153434753418,2.30709195137024
2024-12-07 16:21:09.678283800,2.06328369140625,0.8877381086349487,0.7807302474975586,2.3330135345458984
2024-12-07 16:21:09.688311300,2.073311279296875,1.1199527978897097,0.2800188064575195,1.5867904424667358
2024-12-07 16:21:09.698339000,2.083339111328125,1.081037998199463,-0.2706451416015625,0.6152973175048828
2024-12-07 16:21:09.708366600,2.09336669921875,1.1062694787979126,-0.6428022384643555,-0.3087581396102905
2024-12-07 16:21:09.718394000,2.10339404296875,0.8250226974487305,-0.7613344192504883,-0.8668180704116821
2024-12-07 16:21:09.728421600,2.113421630859375,0.1941777467727661,-0.6699352264404297,-0.9165940284729004
2024-12-07 16:21:09.738449200,2.12344921875,-0.6148741245269775,-0.4309043884277344,-0.5905967950820923
2024-12-07 16:21:09.748476700,2.1334765625,-1.3803133964538574,-0.2445554733276367,-0.0643799304962158
2024-12-07 16:21:09.758504200,2.143504150390625,-2.181870698928833,-0.2101955413818359,0.6917475461959839
2024-12-07 16:21:09.768531700,2.15353173828125,-2.5783591270446777,-0.5027027130126953,1.596956491470337
2024-12-07 16:21:09.778559500,2.1635595703125,-1.9543187618255613,-1.13494873046875,2.241785049438477
2024-12-07 16:21:09.788587000,2.1735869140625,-0.5620296597480774,-1.7637090682983398,2.221486091613769
2024-12-07 16:21:09.798614500,2.183614501953125,0.2241023778915405,-1.904399871826172,1.5230119228363037
2024-12-07 16:21:09.808642000,2.19364208984375,0.3031336069107055,-1.368971824645996,0.3073579668998718
2024-12-07 16:21:09.818669600,2.203669677734375,0.4442827701568603,-0.5467681884765625,-0.9909419417381288
2024-12-07 16:21:09.828697000,2.213697021484375,0.6556049585342407,0.3889522552490234,-1.710289716720581
2024-12-07 16:21:09.838724600,2.223724609375,0.3413193225860595,1.232914924621582,-1.9491956233978271
2024-12-07 16:21:09.848752000,2.233752197265625,-0.2213196754455566,1.824101448059082,-1.5969127416610718
2024-12-07 16:21:09.858780000,2.24377978515625,-0.7663475871086121,1.9737024307250977,-0.7167460322380066
2024-12-07 16:21:09.868807400,2.253807373046875,-0.9936220049858092,1.7555971145629885,0.3273146748542785
2024-12-07 16:21:09.878835000,2.2638349609375,-0.9925476908683776,1.2621402740478516,1.201255440711975
2024-12-07 16:21:09.888862500,2.273862548828125,-0.8362153768539429,0.6045303344726562,1.6014097929000854
2024-12-07 16:21:09.898890000,2.283889892578125,-0.7017167210578918,-0.2403526306152343,1.463084697723389
2024-12-07 16:21:09.908917500,2.29391748046875,-0.6158854365348816,-0.9618396759033204,1.1196560859680176
2024-12-07 16:21:09.918945000,2.303945068359375,-0.562818706035614,-1.446131706237793,0.6455923318862915
2024-12-07 16:21:09.928972500,2.31397265625,-0.5424383282661438,-1.623152732849121,-0.0501366257667541
2024-12-07 16:21:09.939000300,2.324000244140625,-0.6501222848892212,-1.527968406677246,-0.6863815188407898
2024-12-07 16:21:09.949027800,2.33402783203125,-0.9084163308143616,-1.2810487747192385,-1.156240463256836
2024-12-07 16:21:09.959055400,2.344055419921875,-1.2005107402801514,-1.011667251586914,-1.4019033908843994
2024-12-07 16:21:09.969083000,2.354082763671875,-1.164411544799805,-0.7391643524169922,-1.4614397287368774
2024-12-07 16:21:09.979110400,2.3641103515625,-0.8890843391418457,-0.4113540649414062,-1.28802490234375
2024-12-07 16:21:09.989138000,2.374137939453125,-0.7230875492095947,-0.1283416748046875,-0.6183756589889526
2024-12-07 16:21:09.999165400,2.38416552734375,-0.5220949649810791,0.1295862197875976,0.0216152071952819
2024-12-07 16:21:10.009193000,2.39419287109375,-0.3587175607681274,0.2624750137329101,0.4919797480106354
2024-12-07 16:21:10.019220700,2.404220703125,-0.3435511589050293,0.3138313293457031,0.801223635673523
2024-12-07 16:21:10.029248300,2.414248291015625,-0.4430962800979614,0.3031930923461914,0.9723689556121826
2024-12-07 16:21:10.039275800,2.42427587890625,-0.5376194715499878,0.1975479125976562,1.0720409154891968
2024-12-07 16:21:10.049303300,2.43430322265625,-0.5555465817451477,0.0402793884277343,1.2622411251068115
2024-12-07 16:21:10.059330800,2.444330810546875,-0.3968510031700134,-0.220860481262207,1.6145291328430176
2024-12-07 16:21:10.069358300,2.4543583984375,-0.1921220421791076,-0.3899106979370117,1.707399606704712
2024-12-07 16:21:10.079385900,2.4643857421875,-0.1374896168708801,-0.4958620071411133,1.608279585838318
2024-12-07 16:21:10.089413400,2.474413330078125,-0.1227826476097107,-0.5247821807861328,1.3808724880218506
2024-12-07 16:21:10.099441200,2.484441162109375,-0.1095486879348754,-0.4723281860351562,0.9791148900985718
2024-12-07 16:21:10.109468700,2.49446875,-0.1127906441688537,-0.3151187896728515,0.4043189287185669
2024-12-07 16:21:10.119496200,2.50449609375,-0.3282442688941955,-0.1681289672851562,-0.1751312017440796
2024-12-07 16:21:10.129523700,2.514523681640625,-0.5640803575515747,-0.060068130493164,-0.7003241777420044
2024-12-07 16:21:10.139551200,2.52455126953125,-0.8610246181488037,0.0378961563110351,-1.06996488571167
2024-12-07 16:21:10.149578800,2.534578857421875,-0.9697800278663636,0.1495552062988281,-1.2635986804962158
2024-12-07 16:21:10.159606300,2.544606201171875,-0.8947814702987671,0.212869644165039,-1.209546446800232
2024-12-07 16:21:10.169633800,2.5546337890625,-0.6129065752029419,0.2327852249145507,-1.051697015762329
2024-12-07 16:21:10.179661600,2.56466162109375,-0.3833571076393127,0.1999588012695312,-0.7389957308769226
2024-12-07 16:21:10.189689000,2.574689208984375,-0.0920892357826232,0.0239686965942382,-0.6922029852867126
2024-12-07 16:21:10.199716600,2.584716552734375,0.025694727897644,-0.0609407424926757,-0.4054819345474243
2024-12-07 16:21:10.209744100,2.594744140625,0.1804993748664856,-0.1455974578857422,-0.2391086220741272
2024-12-07 16:21:10.219771400,2.604771484375,0.3187748193740845,-0.2013378143310547,-0.1460878252983093
2024-12-07 16:21:10.229799000,2.614798828125,0.3163548707962036,-0.2615842819213867,-0.0506980419158935
2024-12-07 16:21:10.239826400,2.624826416015625,0.3073339462280273,-0.2690086364746094,-0.087217628955841
2024-12-07 16:21:10.249854000,2.63485400390625,0.2018101215362548,-0.1951065063476562,-0.1077297925949096
2024-12-07 16:21:10.259881500,2.644881591796875,0.1673082113265991,-0.1166658401489257,-0.4205310344696045
2024-12-07 16:21:10.269909000,2.654908935546875,-0.0587049126625061,0.0997543334960937,-0.484365701675415
2024-12-07 16:21:10.279936500,2.6649365234375,-0.2929121553897857,0.2581977844238281,-0.4247727394104004
2024-12-07 16:21:10.289964000,2.674964111328125,-0.2538323998451233,0.2299604415893554,-0.5746239423751831
2024-12-07 16:21:10.299991600,2.684991455078125,-0.2724418938159942,0.1540002822875976,-0.3364574313163757
2024-12-07 16:21:10.310019000,2.69501904296875,-0.2471532523632049,0.0116090774536132,-0.0373985171318054
2024-12-07 16:21:10.320046600,2.705046630859375,0.0888168811798095,-0.0967187881469726,0.2116549611091613
2024-12-07 16:21:10.330074000,2.71507421875,0.5085855722427368,-0.0900592803955078,0.3196374773979187
2024-12-07 16:21:10.340101600,2.7251015625,0.8663308024406433,-0.0595703125,0.3293958306312561
2024-12-07 16:21:10.350129000,2.73512890625,0.9406556487083436,-0.0197563171386718,0.0262966752052307
2024-12-07 16:21:10.360156400,2.745156494140625,0.6003044843673706,0.0150413513183593,-0.3063488006591797
2024-12-07 16:21:10.370184000,2.755183837890625,0.2938697338104248,-0.0075187683105468,-0.6103032827377319
2024-12-07 16:21:10.380211500,2.76521142578125,0.1697441339492797,-0.0778427124023437,-0.8832716345787048
2024-12-07 16:21:10.390239000,2.775239013671875,-0.0765442848205566,0.0237464904785156,-0.8527911901473999
2024-12-07 16:21:10.400266500,2.7852666015625,-0.1276138722896576,0.1393203735351562,-0.6583760380744934
2024-12-07 16:21:10.410294000,2.7952939453125,0.0399178266525268,0.1544256210327148,-0.2443512678146362
2024-12-07 16:21:10.420321500,2.805321533203125,0.2382673025131225,0.1029119491577148,0.1432462930679321
2024-12-07 16:21:10.430349000,2.81534912109375,0.4185772538185119,0.0041379928588867,0.3551923036575317
2024-12-07 16:21:10.440376600,2.82537646484375,0.5331518054008484,-0.0748767852783203,0.481701523065567
2024-12-07 16:21:10.450404000,2.835404052734375,0.7206201553344727,-0.1723766326904297,0.3986702859401703
2024-12-07 16:21:10.460431600,2.845431640625,0.8364765644073486,-0.1977272033691406,0.1781609952449798
2024-12-07 16:21:10.470459100,2.855459228515625,0.902884602546692,-0.2658872604370117,-0.3169189691543579
2024-12-07 16:21:10.480486700,2.865486572265625,0.7657924890518188,-0.3816871643066406,-0.8977206349372864
2024-12-07 16:21:10.490514200,2.87551416015625,0.5119258165359497,-0.492706298828125,-1.5360027551651
2024-12-07 16:21:10.500541700,2.885541748046875,0.2241216897964477,-0.5179347991943359,-1.913185238838196
2024-12-07 16:21:10.510569200,2.8955693359375,0.1900044679641723,-0.5196914672851562,-2.128703117370605
2024-12-07 16:21:10.520596700,2.9055966796875,0.4775480031967163,-0.412271499633789,-2.016251802444458
2024-12-07 16:21:10.530624300,2.915624267578125,0.4739362001419067,-0.272531509399414,-1.909203052520752
2024-12-07 16:21:10.540651800,2.92565185546875,0.0037134289741516,-0.0624294281005859,-2.017376661300659
2024-12-07 16:21:10.550679600,2.935679443359375,-0.7213699221611023,0.2083110809326172,-1.6449459791183472
2024-12-07 16:21:10.560707000,2.94570703125,-0.9008994102478028,0.3728570938110351,-0.8984041213989258
2024-12-07 16:21:10.570734600,2.955734619140625,0.0050836205482482,0.5128927230834961,-0.3669984936714172
2024-12-07 16:21:10.580762000,2.96576220703125,1.0369677543640137,0.5469942092895508,0.2837851345539093
2024-12-07 16:21:10.590789600,2.97578955078125,1.681196212768555,0.1793317794799804,0.8697006702423096
2024-12-07 16:21:10.600817200,2.985817138671875,2.572179079055786,-0.2311925888061523,0.7879513502120972
2024-12-07 16:21:10.610844700,2.9958447265625,3.3886923789978027,-0.6183719635009766,0.758989155292511
2024-12-07 16:21:10.620872200,3.0058720703125,3.077022314071656,-0.8683509826660156,1.4347856044769287
2024-12-07 16:21:10.630900000,3.01589990234375,1.4942796230316162,-0.9341344833374025,2.294461250305176
2024-12-07 16:21:10.640927500,3.025927490234375,0.8014342784881592,-1.29345703125,2.273440361022949
2024-12-07 16:21:10.650955000,3.035955078125,-0.1624778509140014,-1.6246471405029297,1.5057175159454346
2024-12-07 16:21:10.660982500,3.045982421875,-0.839676022529602,-1.433366775512695,0.4236366748809814
2024-12-07 16:21:10.671010000,3.056010009765625,0.5979405641555786,-1.718160629272461,-0.5013624429702759
2024-12-07 16:21:10.681037600,3.06603759765625,1.2612940073013306,-2.274765014648437,-0.3710908889770508
2024-12-07 16:21:10.691065000,3.076065185546875,-0.177071213722229,-2.4054479598999023,-0.3026573657989502
2024-12-07 16:21:10.701092600,3.086092529296875,-1.7444453239440918,-1.9473228454589844,-0.2653762102127075
2024-12-07 16:21:10.711120400,3.096120361328125,-2.525003433227539,-1.0633907318115234,0.0424569249153137
2024-12-07 16:21:10.721148000,3.10614794921875,-2.467716932296753,-0.2417707443237304,0.3575354218482971
2024-12-07 16:21:10.731175400,3.116175537109375,-1.692183494567871,0.2549123764038086,0.3856062889099121
2024-12-07 16:21:10.741203000,3.126202880859375,-0.8456960916519165,0.5363903045654297,0.0157243609428405
2024-12-07 16:21:10.751230500,3.13623046875,-0.3524619340896606,0.6834306716918945,-0.3557745218276977
2024-12-07 16:21:10.761258000,3.146258056640625,0.047806978225708,0.6911239624023438,-0.3242831230163574
2024-12-07 16:21:10.771285500,3.156285400390625,0.3334782123565674,0.7841796875,-0.1635023355484008
2024-12-07 16:21:10.781313000,3.16631298828125,0.6922593116760254,0.8902502059936523,-0.200360894203186
2024-12-07 16:21:10.791340800,3.1763408203125,0.9812395572662354,0.8846988677978516,-0.0502233505249023
2024-12-07 16:21:10.801368300,3.186368408203125,1.169766902923584,0.8154134750366211,0.0314124822616577
2024-12-07 16:21:10.811395800,3.196395751953125,1.1486562490463257,0.6350927352905273,0.1480684280395507
2024-12-07 16:21:10.821423400,3.20642333984375,1.148417830467224,0.4208040237426758,0.3359584808349609
2024-12-07 16:21:10.831451000,3.216450927734375,1.2863112688064575,0.2870626449584961,0.7074178457260132
2024-12-07 16:21:10.841478400,3.226478515625,1.2216211557388306,0.381413459777832,1.231937289237976
2024-12-07 16:21:10.851506000,3.236505859375,0.8477040529251099,0.75128173828125,1.5030152797698977
2024-12-07 16:21:10.861533400,3.246533447265625,0.3809890747070312,1.1771011352539062,1.6466803550720217
2024-12-07 16:21:10.871561200,3.256561279296875,-0.1293649673461914,1.5308923721313477,1.774508357048035
2024-12-07 16:21:10.881588700,3.266588623046875,-0.496999979019165,1.7520856857299805,1.8287428617477417
2024-12-07 16:21:10.891616300,3.2766162109375,-0.6679610013961792,1.7990217208862305,1.7979294061660769
2024-12-07 16:21:10.901643800,3.286643798828125,-0.7867941856384277,1.7295446395874023,1.6197311878204346
2024-12-07 16:21:10.911671300,3.29667138671875,-0.8121140003204346,1.6344709396362305,1.2703557014465332
2024-12-07 16:21:10.921698800,3.30669873046875,-0.9645403623580932,1.5612421035766602,0.7325699329376221
2024-12-07 16:21:10.931726300,3.316726318359375,-1.1800528764724731,1.519205093383789,0.0393763780593872
2024-12-07 16:21:10.941753900,3.32675390625,-1.3280305862426758,1.5319747924804688,-0.6755118370056152
2024-12-07 16:21:10.951781600,3.33678173828125,-1.3442721366882324,1.527994155883789,-1.2368677854537964
2024-12-07 16:21:10.961809200,3.34680908203125,-1.1546372175216677,1.5174188613891602,-1.6913703680038452
2024-12-07 16:21:10.971836700,3.356836669921875,-0.5365390777587891,1.3616132736206057,-1.7825766801834106
2024-12-07 16:21:10.981864200,3.3668642578125,0.2574467658996582,1.0112638473510742,-1.897721529006958
2024-12-07 16:21:10.991891700,3.3768916015625,0.8011853694915771,0.6087141036987305,-2.111696243286133
2024-12-07 16:21:11.001919200,3.386919189453125,1.1099510192871094,0.321115493774414,-2.3606395721435547
2024-12-07 16:21:11.011946800,3.39694677734375,1.2374343872070312,0.1478662490844726,-2.3689284324646
2024-12-07 16:21:11.021974300,3.406974365234375,1.273543119430542,0.0452690124511718,-2.0268239974975586
2024-12-07 16:21:11.032002000,3.417001953125,1.3470370769500732,-0.0345573425292968,-1.4422142505645752
2024-12-07 16:21:11.042029600,3.427029541015625,1.7108242511749268,-0.0006828308105468,-0.7572678327560425
2024-12-07 16:21:11.052057000,3.43705712890625,2.298985958099365,0.1702747344970703,0.042553424835205
2024-12-07 16:21:11.062084600,3.447084716796875,2.5253148078918457,0.3634805679321289,0.836167573928833
2024-12-07 16:21:11.072112000,3.457112060546875,2.6437325477600098,0.3982162475585937,1.2262922525405884
2024-12-07 16:21:11.082139600,3.4671396484375,2.801560878753662,0.0937280654907226,1.0825321674346924
2024-12-07 16:21:11.092167200,3.477167236328125,2.639693260192871,-0.787898063659668,0.9270578622817992
2024-12-07 16:21:11.102194700,3.487194580078125,2.355851650238037,-2.254547119140625,0.8091100454330444
2024-12-07 16:21:11.112222500,3.497222412109375,2.2611231803894043,-3.9706621170043945,0.650194525718689
2024-12-07 16:21:11.122250000,3.50725,2.025042057037353,-4.995759963989258,0.3410075902938843
2024-12-07 16:21:11.132277500,3.517277587890625,1.3530921936035156,-4.076964378356934,-0.2954632043838501
2024-12-07 16:21:11.142305000,3.527304931640625,-0.0061233043670654,-1.6968021392822266,-0.3743757009506225
2024-12-07 16:21:11.152332500,3.53733251953125,-1.517232894897461,0.6096992492675781,-0.2789610624313354
2024-12-07 16:21:11.162360000,3.547360107421875,-2.587676286697388,2.294792652130127,0.0096321105957031
2024-12-07 16:21:11.172387600,3.5573876953125,-3.260450839996338,3.055603504180908,0.8527919054031372
2024-12-07 16:21:11.182415000,3.5674150390625,-3.3603620529174805,3.339958667755127,1.3832335472106934
2024-12-07 16:21:11.192443000,3.57744287109375,-3.079746723175049,2.973138332366944,1.2004135847091677
2024-12-07 16:21:11.202470400,3.587470458984375,-2.1303725242614746,1.7795524597167969,0.4229902625083923
2024-12-07 16:21:11.212498000,3.597497802734375,-1.4268083572387695,0.4616603851318359,-0.6228283643722534
2024-12-07 16:21:11.222525400,3.607525390625,-1.2856757640838623,-0.737635612487793,-1.4166193008422852
2024-12-07 16:21:11.232553000,3.617552978515625,-0.8564194440841675,-1.6618146896362305,-1.606258988380432
2024-12-07 16:21:11.242580500,3.62758056640625,-0.2490546703338623,-2.088150978088379,-1.469367504119873
2024-12-07 16:21:11.252608000,3.63760791015625,0.1207340955734252,-2.0234289169311523,-1.1755932569503784
2024-12-07 16:21:11.262635500,3.647635498046875,0.2793730497360229,-1.602931022644043,-0.6843428611755371
2024-12-07 16:21:11.272663300,3.657663330078125,0.0826421976089477,-1.0042505264282229,0.0445867776870727
2024-12-07 16:21:11.282690800,3.66769091796875,-0.4621890783309936,-0.3419570922851562,0.8274894952774048
2024-12-07 16:21:11.292718300,3.67771826171875,-1.096381425857544,0.279794692993164,1.585970401763916
2024-12-07 16:21:11.302745900,3.687745849609375,-1.71429181098938,0.7238540649414062,2.221952438354492
2024-12-07 16:21:11.312773400,3.6977734375,-2.154202461242676,0.9390983581542968,2.399792194366455
2024-12-07 16:21:11.322801000,3.70780078125,-2.461724281311035,0.9265413284301758,2.187774181365967
2024-12-07 16:21:11.332828400,3.717828369140625,-2.616577625274658,0.6629085540771484,1.765375018119812
2024-12-07 16:21:11.342856000,3.72785595703125,-2.5241169929504395,0.2057323455810547,1.2311357259750366
2024-12-07 16:21:11.352883700,3.7378837890625,-2.306520462036133,-0.3162822723388672,0.6407828330993652
2024-12-07 16:21:11.362911200,3.7479111328125,-1.9796035289764404,-0.7221078872680664,-0.0020805597305297
2024-12-07 16:21:11.372938800,3.757938720703125,-1.482583999633789,-1.0078659057617188,-0.5596950054168701
2024-12-07 16:21:11.382966300,3.76796630859375,-0.8323301672935486,-1.098123550415039,-0.7997285723686218
2024-12-07 16:21:11.392993800,3.777993896484375,-0.1803282499313354,-0.950885772705078,-0.5460080504417419
2024-12-07 16:21:11.403021300,3.788021240234375,0.3037426471710205,-0.724365234375,0.2397416234016418
2024-12-07 16:21:11.413048800,3.798048828125,0.5384424924850464,-0.5568609237670898,1.0406862497329712
2024-12-07 16:21:11.423076600,3.80807666015625,0.4812129735946655,-0.4238901138305664,1.6903252601623535
2024-12-07 16:21:11.433104100,3.818104248046875,0.0244659185409545,-0.2674636840820312,2.0233731269836426
2024-12-07 16:21:11.443131600,3.828131591796875,-0.3653725385665893,-0.1539058685302734,2.39117431640625
2024-12-07 16:21:11.453159400,3.838159423828125,-0.5210040211677551,0.0412483215332031,2.2670645713806152
2024-12-07 16:21:11.463187000,3.84818701171875,-0.5250787138938904,0.1697025299072265,1.9047698974609373
2024-12-07 16:21:11.473214500,3.85821435546875,-0.5125471949577332,0.20281982421875,1.3053245544433594
2024-12-07 16:21:11.483242200,3.8682421875,-0.559252142906189,0.1835851669311523,0.4005064368247986
2024-12-07 16:21:11.493269800,3.878269775390625,-0.5784754753112793,0.1213760375976562,-0.5569429397583008
2024-12-07 16:21:11.503297300,3.88829736328125,-0.575179934501648,0.0398855209350585,-1.3441122770309448
2024-12-07 16:21:11.513325000,3.898324951171875,-0.5773010849952698,-0.0179500579833984,-1.94490933418274
2024-12-07 16:21:11.523352600,3.9083525390625,-0.512607216835022,-0.0380115509033203,-2.3285136222839355
2024-12-07 16:21:11.533380000,3.918380126953125,-0.3907617926597595,-0.1112709045410156,-2.469660997390747
2024-12-07 16:21:11.543407900,3.928407958984375,-0.302348256111145,-0.1229610443115234,-2.20128870010376
2024-12-07 16:21:11.553435400,3.938435302734375,-0.303020715713501,-0.1254682540893554,-1.626697063446045
2024-12-07 16:21:11.563463000,3.948462890625,-0.177606999874115,-0.1567916870117187,-0.9979189038276672
2024-12-07 16:21:11.573490700,3.95849072265625,-0.0240080952644348,-0.1882076263427734,-0.4795422554016113
2024-12-07 16:21:11.583518200,3.968518310546875,-0.0635756254196167,-0.2101936340332031,0.0184031128883361
2024-12-07 16:21:11.593545700,3.978545654296875,-0.161389946937561,-0.1557378768920898,0.3897289037704468
2024-12-07 16:21:11.603573500,3.988573486328125,-0.1354504823684692,-0.0583276748657226,0.858049213886261
2024-12-07 16:21:11.613601000,3.99860107421875,0.0561462044715881,0.0677070617675781,1.163425326347351
2024-12-07 16:21:11.623628500,4.008628662109375,0.2109237313270568,0.1601486206054687,1.3057491779327393
2024-12-07 16:21:11.633656300,4.01865625,0.2184165716171264,0.1521310806274414,1.2667371034622192
2024-12-07 16:21:11.643683800,4.028683837890625,0.1462730765342712,0.015212059020996,1.176533818244934
2024-12-07 16:21:11.653711400,4.03871142578125,0.0438536405563354,-0.0783042907714843,1.050262212753296
2024-12-07 16:21:11.663739100,4.0487392578125,0.204343557357788,-0.3147106170654297,0.9263900518417358
2024-12-07 16:21:11.673766700,4.0587666015625,0.4670904278755188,-0.4026651382446289,0.4539722800254822
2024-12-07 16:21:11.683794200,4.068794189453125,0.3063982129096985,-0.3807802200317383,0.1405942440032959
2024-12-07 16:21:11.693822000,4.078822021484375,0.1873259544372558,-0.3543930053710937,-0.1760252118110656
2024-12-07 16:21:11.703849500,4.088849365234375,0.0329843759536743,-0.2519245147705078,-0.3377428650856018
2024-12-07 16:21:11.713877000,4.098876953125,-0.1801507472991943,-0.1403789520263672,-0.450457751750946
2024-12-07 16:21:11.723904500,4.108904541015625,-0.3653160333633423,-0.0818119049072265,-0.4332698583602905
2024-12-07 16:21:11.733932300,4.118932373046875,-0.3970809876918793,-0.0281915664672851,-0.4161381125450134
2024-12-07 16:21:11.743959800,4.128959716796875,-0.3278490602970123,0.0682716369628906,-0.4177780747413635
2024-12-07 16:21:11.753987300,4.1389873046875,-0.4238846898078918,0.2267313003540039,-0.4198835492134094
2024-12-07 16:21:11.764015000,4.14901513671875,-0.4919302463531494,0.3755064010620117,-0.4463101029396057
2024-12-07 16:21:11.774042600,4.159042724609375,-0.4928803443908691,0.4859828948974609,-0.3291546106338501
2024-12-07 16:21:11.784070100,4.169070068359375,-0.3639204204082489,0.4293603897094726,-0.3175063133239746
2024-12-07 16:21:11.794098000,4.179097900390625,-0.2030965089797973,0.3061504364013672,-0.4532887935638428
2024-12-07 16:21:11.804125400,4.18912548828125,-0.1937224864959716,0.1642074584960937,-0.612764298915863
2024-12-07 16:21:11.814153000,4.199153076171875,-0.1542312502861023,-0.053755760192871,-0.8056877255439758
2024-12-07 16:21:11.824180700,4.2091806640625,-0.0991260111331939,-0.2281675338745117,-0.9648343324661256
2024-12-07 16:21:11.834208300,4.219208251953125,0.0191866159439086,-0.4021663665771484,-1.056376814842224
2024-12-07 16:21:11.844235800,4.22923583984375,0.2853566408157348,-0.5328435897827148,-1.085064172744751
2024-12-07 16:21:11.854263600,4.239263671875,0.5485068559646606,-0.5248918533325195,-1.10371196269989
2024-12-07 16:21:11.864291000,4.249291015625,0.6214723587036133,-0.3022680282592773,-1.097933650016785
2024-12-07 16:21:11.874318600,4.259318603515625,0.5531112551689148,-0.0230693817138671,-0.98211407661438
2024-12-07 16:21:11.884346400,4.269346435546875,0.4370827376842499,0.1694574356079101,-0.7339576482772827
2024-12-07 16:21:11.894374000,4.279373779296875,0.6746858358383179,0.1561079025268554,-0.7692865133285522
2024-12-07 16:21:11.904401400,4.2894013671875,0.8046149015426636,0.1236000061035156,-0.4715444147586822
2024-12-07 16:21:11.914429200,4.29942919921875,0.7740330696105957,-0.0712699890136718,-0.4261710941791534
2024-12-07 16:21:11.924456700,4.309456787109375,0.6919065117835999,-0.4329843521118164,-0.6982365846633911
2024-12-07 16:21:11.934484200,4.319484130859375,0.5818464756011963,-0.961228370666504,-0.9405859112739564
2024-12-07 16:21:11.944512000,4.329511962890625,0.5008025169372559,-1.5123672485351562,-1.2037581205368042
2024-12-07 16:21:11.954539500,4.33953955078125,0.4109030961990356,-1.933493614196777,-1.400807499885559
2024-12-07 16:21:11.964567000,4.349567138671875,0.375726044178009,-2.1962156295776367,-1.6936078071594238
2024-12-07 16:21:11.974594800,4.3595947265625,0.4493135809898376,-2.2674388885498047,-1.8658753633499143
2024-12-07 16:21:11.984622300,4.369622314453125,0.7801302671432495,-2.0281753540039062,-1.8517634868621824
2024-12-07 16:21:11.994649900,4.37964990234375,1.2187995910644531,-1.517390251159668,-1.6156182289123535
2024-12-07 16:21:12.004677600,4.389677734375,1.6779663562774658,-1.003251075744629,-1.269970417022705
2024-12-07 16:21:12.014705200,4.399705078125,2.198434829711914,-0.5288305282592773,-0.8793509006500244
2024-12-07 16:21:12.024732700,4.409732666015625,2.641847610473633,-0.1993474960327148,-0.388689637184143
2024-12-07 16:21:12.034760400,4.419760498046875,2.6272082328796387,0.1142177581787109,-0.2011635601520538
2024-12-07 16:21:12.044788000,4.4297880859375,2.431848526000977,0.4545984268188476,-0.2619678974151611
2024-12-07 16:21:12.054815500,4.4398154296875,2.2137041091918945,0.7497797012329102,-0.3877186775207519
2024-12-07 16:21:12.064843300,4.44984326171875,1.978226900100708,1.0712060928344729,-0.5661776065826416
2024-12-07 16:21:12.074870800,4.459870849609375,1.7256684303283691,1.408895492553711,-0.7614256143569946
2024-12-07 16:21:12.084898300,4.469898193359375,1.2372859716415403,1.6144342422485352,-1.0238454341888428
2024-12-07 16:21:12.094926000,4.479926025390625,0.4761973619461059,1.6692819595336914,-1.2687373161315918
2024-12-07 16:21:12.104953600,4.48995361328125,0.0258734226226806,1.6315193176269531,-1.2919397354125977
2024-12-07 16:21:12.114981000,4.499981201171875,-0.5603227615356445,1.462175369262695,-1.084643006324768
2024-12-07 16:21:12.125009000,4.5100087890625,-1.9983210563659668,1.103287696838379,-0.7245442867279053
2024-12-07 16:21:12.135036400,4.520036376953125,-3.331432819366455,0.5277214050292969,-0.7202398777008057
2024-12-07 16:21:12.145064000,4.53006396484375,-3.630341053009033,-0.1607856750488281,-1.0919979810714722
2024-12-07 16:21:12.155091700,4.540091796875,-3.0892953872680664,-0.8436527252197266,-1.612058162689209
2024-12-07 16:21:12.165119200,4.550119140625,-1.41327965259552,-1.3560914993286133,-1.133878469467163
2024-12-07 16:21:12.175147000,4.56014697265625,0.4787497520446777,-1.639238357543945,0.7611111998558044
2024-12-07 16:21:12.185174500,4.570174560546875,0.0715378522872924,-1.9726152420043943,2.711424827575684
2024-12-07 16:21:12.195202300,4.580202392578125,-1.2672810554504397,-1.6777315139770508,3.6769909858703618
2024-12-07 16:21:12.205230000,4.59022998046875,-2.3394975662231445,-0.7946567535400391,3.8568272590637207
2024-12-07 16:21:12.215257600,4.600257568359375,-3.219238519668579,0.1837482452392578,3.872086524963379
2024-12-07 16:21:12.225285400,4.610285400390625,-3.5957603454589844,0.8101587295532227,3.741582155227661
2024-12-07 16:21:12.235313000,4.62031298828125,-2.9007139205932617,1.028681755065918,3.3558053970336914
2024-12-07 16:21:12.245340700,4.630340576171875,-1.437366247177124,1.1254301071166992,2.153980731964112
2024-12-07 16:21:12.255368200,4.6403681640625,-0.0255289077758789,0.9311399459838868,0.7666298747062683
2024-12-07 16:21:12.265396000,4.65039599609375,0.5366349220275879,0.7451763153076172,-0.0640341639518737
2024-12-07 16:21:12.275423500,4.660423583984375,0.1409590244293213,0.6009092330932617,-0.1759582757949829
2024-12-07 16:21:12.285451300,4.670451171875,-0.2170826196670532,0.4084024429321289,-0.2457684874534607
2024-12-07 16:21:12.295478800,4.680478759765625,-0.3210409879684448,0.1107645034790039,-0.0400985479354858
2024-12-07 16:21:12.305506600,4.690506591796875,-0.27765953540802,-0.2011661529541015,0.3009787499904632
2024-12-07 16:21:12.315534000,4.7005341796875,0.1773936748504638,-0.4991035461425781,0.7130475044250488
2024-12-07 16:21:12.325561900,4.710561767578125,0.9861221313476562,-0.7119235992431641,1.2440128326416016
2024-12-07 16:21:12.335589400,4.72058935546875,1.8280482292175293,-0.6301918029785156,1.4082998037338257
2024-12-07 16:21:12.345617200,4.7306171875,2.742164850234986,-0.4031848907470703,1.2662395238876345
2024-12-07 16:21:12.355644700,4.740644775390625,3.191333293914795,-0.1508474349975586,0.9106593132019044
2024-12-07 16:21:12.365672400,4.75067236328125,2.633800506591797,0.098052978515625,0.6930267810821533
2024-12-07 16:21:12.375700200,4.7607001953125,1.4602667093276978,0.4015054702758789,0.5017029643058777
2024-12-07 16:21:12.385727700,4.770727783203125,0.7046277523040771,0.6261787414550781,0.2171096205711364
2024-12-07 16:21:12.395755500,4.780755615234375,0.2357897758483886,0.7298908233642578,0.1410188674926757
2024-12-07 16:21:12.405783000,4.790782958984375,-0.1475424766540527,0.8432483673095703,0.0962348580360412
2024-12-07 16:21:12.415810800,4.800810791015625,-0.4322383403778076,0.9290237426757812,-0.1908802986145019
2024-12-07 16:21:12.425838300,4.81083837890625,-0.9317705631256104,0.978184700012207,-0.5125370025634766
2024-12-07 16:21:12.435866000,4.8208662109375,-1.3326600790023804,0.9961786270141602,-1.057999849319458
2024-12-07 16:21:12.445893600,4.8308935546875,-1.2435085773468018,0.9067792892456056,-1.5113754272460938
2024-12-07 16:21:12.455921400,4.84092138671875,-0.929468035697937,0.9440975189208984,-1.8728630542755127
2024-12-07 16:21:12.465949000,4.850948974609375,-0.5257456302642822,0.968989372253418,-2.3940305709838867
2024-12-07 16:21:12.475976700,4.860976806640625,-0.3816725015640259,0.9143362045288086,-3.1629109382629395
2024-12-07 16:21:12.486004200,4.871004150390625,-0.1032552719116211,0.8459510803222656,-3.709393739700317
2024-12-07 16:21:12.496032000,4.881031982421875,0.3113725185394287,0.7296562194824219,-3.775099754333496
2024-12-07 16:21:12.506059500,4.8910595703125,0.788062572479248,0.5651111602783203,-3.11475133895874
2024-12-07 16:21:12.516087300,4.90108740234375,1.0649816989898682,0.4616765975952148,-2.087339162826538
2024-12-07 16:21:12.526115000,4.911114990234375,0.8033819198608398,0.4481830596923828,-1.204131245613098
2024-12-07 16:21:12.536142600,4.921142578125,0.5227675437927246,0.5060186386108398,-0.3281748294830322
2024-12-07 16:21:12.546170400,4.93117041015625,0.4359140396118164,0.6311626434326172,0.6473856568336487
2024-12-07 16:21:12.556198000,4.941197998046875,0.395421028137207,0.7572755813598633,1.6282442808151243
2024-12-07 16:21:12.566225700,4.9512255859375,0.5350461006164551,0.8944387435913086,2.41015625
2024-12-07 16:21:12.576253200,4.961253173828125,1.1294536590576172,0.9186191558837892,2.8315021991729736
2024-12-07 16:21:12.586281000,4.971281005859375,1.9721496105194087,0.8150014877319336,2.623670816421509
2024-12-07 16:21:12.596308500,4.98130859375,2.1981775760650635,0.5777988433837891,1.809887409210205
2024-12-07 16:21:12.606336300,4.991336181640625,1.734262466430664,0.3549890518188476,0.8754177689552307
2024-12-07 16:21:12.616363800,5.00136376953125,1.3974547386169434,0.146585464477539,0.1223298907279968
2024-12-07 16:21:12.626391600,5.0113916015625,1.175004243850708,0.0098457336425781,-0.3789894580841064
2024-12-07 16:21:12.636419000,5.021419189453125,1.0296454429626465,-0.0791940689086914,-0.5461285710334778
2024-12-07 16:21:12.646446800,5.03144677734375,0.7047369480133057,-0.2731742858886719,-0.3939351439476013
2024-12-07 16:21:12.656474400,5.041474365234375,0.1565394401550293,-0.938817024230957,0.0722007155418396
2024-12-07 16:21:12.666502100,5.051502197265625,0.1651778221130371,-2.208362579345703,0.702575147151947
2024-12-07 16:21:12.676530000,5.061530029296875,0.6864984035491943,-3.741897583007813,1.2024545669555664
2024-12-07 16:21:12.686557400,5.071557373046875,0.7782132625579834,-4.751669883728027,1.4618473052978516
2024-12-07 16:21:12.696585200,5.081585205078125,0.5501234531402588,-4.671247482299805,1.266099452972412
2024-12-07 16:21:12.706612700,5.09161279296875,0.0491595268249511,-3.179567337036133,0.8147191405296326
2024-12-07 16:21:12.716640500,5.101640625,-0.7477155923843384,-1.3343591690063477,0.7642259001731873
2024-12-07 16:21:12.726668000,5.11166796875,-1.300652027130127,0.3249711990356445,0.584780752658844
2024-12-07 16:21:12.736695800,5.12169580078125,-1.9854234457015991,1.6372756958007812,0.7317729592323303
2024-12-07 16:21:12.746723300,5.131723388671875,-2.292654037475586,2.532960891723633,1.1312392950057983
2024-12-07 16:21:12.756751000,5.141751220703125,-1.9094704389572144,2.659952163696289,1.7899317741394043
2024-12-07 16:21:12.766778600,5.151778564453125,-1.5817296504974363,1.914655685424805,2.215440273284912
2024-12-07 16:21:12.776806400,5.161806396484375,-1.372874140739441,1.110586166381836,2.243530750274658
2024-12-07 16:21:12.786834000,5.171833984375,-1.30591082572937,0.4767904281616211,2.0460305213928223
2024-12-07 16:21:12.796861700,5.18186181640625,-1.4123454093933103,-0.0398893356323242,1.5704435110092163
2024-12-07 16:21:12.806889200,5.19188916015625,-1.476695537567139,-0.4976081848144531,0.7995164394378662
2024-12-07 16:21:12.816917000,5.2019169921875,-1.5917035341262815,-0.7302265167236328,0.0659390091896057
2024-12-07 16:21:12.826944500,5.211944580078125,-1.9058676958084104,-0.6144237518310547,-0.4587607383728027
2024-12-07 16:21:12.836972300,5.22197216796875,-2.1983609199523926,-0.4231891632080078,-0.6401628255844116
2024-12-07 16:21:12.847000000,5.232,-2.2257003784179688,-0.2999343872070312,-0.6610774993896484
2024-12-07 16:21:12.857027600,5.242027587890625,-1.85620379447937,-0.2828617095947265,-0.5613860487937927
2024-12-07 16:21:12.867055400,5.252055419921875,-1.332066535949707,-0.3146085739135742,-0.2680225372314453
2024-12-07 16:21:12.877083000,5.262082763671875,-1.0840914249420166,-0.4663496017456054,0.3742334246635437
2024-12-07 16:21:12.887110700,5.272110595703125,-1.086678147315979,-0.5748300552368164,0.8097334504127502
2024-12-07 16:21:12.897138200,5.28213818359375,-1.0320227146148682,-0.5872774124145508,0.8897157907485962
2024-12-07 16:21:12.907166000,5.292166015625,-0.9149841070175172,-0.4895544052124023,0.7158688306808472
2024-12-07 16:21:12.917193500,5.302193359375,-0.8876915574073792,-0.3487882614135742,0.352485716342926
2024-12-07 16:21:12.927221200,5.31222119140625,-0.9675664901733398,-0.1077938079833984,-0.1534832119941711
2024-12-07 16:21:12.937248800,5.322248779296875,-0.9198410511016846,0.0801687240600586,-0.6169701814651489
2024-12-07 16:21:12.947276500,5.332276611328125,-0.769746720790863,0.1815633773803711,-0.8365835547447205
2024-12-07 16:21:12.957304000,5.342303955078125,-0.6519713401794434,0.2442398071289062,-0.8127368092536926
2024-12-07 16:21:12.967331800,5.352331787109375,-0.4808202981948852,0.1870918273925781,-0.5900780558586121
2024-12-07 16:21:12.977359600,5.362359619140625,-0.1811215877532959,0.0390682220458984,-0.3672788143157959
2024-12-07 16:21:12.987387100,5.37238720703125,0.1631755828857422,-0.018233299255371,-0.2947831153869629
2024-12-07 16:21:12.997415000,5.382414794921875,0.4873578548431396,-0.1332225799560547,-0.1593645215034485
2024-12-07 16:21:13.007442700,5.392442626953125,0.6416863203048706,-0.2198238372802734,-0.3159785270690918
2024-12-07 16:21:13.017470500,5.402470458984375,0.412499189376831,-0.2111225128173828,-0.5436364412307739
2024-12-07 16:21:13.027498000,5.412498046875,0.1141190528869628,-0.1405172348022461,-0.8267117142677307
2024-12-07 16:21:13.037525800,5.42252587890625,-0.0269702672958374,-0.0223827362060546,-1.0919495820999146
2024-12-07 16:21:13.047553500,5.432553466796875,-0.1111149191856384,0.1478538513183593,-1.3373643159866333
2024-12-07 16:21:13.057581300,5.442581298828125,-0.1629654765129089,0.2313213348388672,-1.5362591743469238
2024-12-07 16:21:13.067608800,5.45260888671875,-0.3920285701751709,0.247349739074707,-1.501020431518555
2024-12-07 16:21:13.077636600,5.46263671875,-0.567398190498352,0.1532669067382812,-1.0655232667922974
2024-12-07 16:21:13.087664400,5.472664306640625,-0.5788475275039673,0.0258846282958984,-0.6904464960098267
2024-12-07 16:21:13.097692200,5.482692138671875,-0.5138773918151855,-0.0678920745849609,-0.2716584801673889
2024-12-07 16:21:13.107719700,5.4927197265625,-0.5786049365997314,-0.1137838363647461,0.1033669412136077
2024-12-07 16:21:13.117747500,5.50274755859375,-0.6479851007461548,-0.1213455200195312,0.4097238779067993
2024-12-07 16:21:13.127775200,5.512775146484375,-0.721424400806427,-0.0714702606201171,0.5846917033195496
2024-12-07 16:21:13.137802800,5.522802734375,-0.8079209327697754,-0.0263290405273437,0.7140843868255615
2024-12-07 16:21:13.147830500,5.53283056640625,-0.8556860685348511,-0.0385351181030273,0.807783842086792
2024-12-07 16:21:13.157858300,5.5428583984375,-0.9690343141555786,-0.0600757598876953,0.9797088503837584
2024-12-07 16:21:13.167886000,5.552885986328125,-0.6061393618583679,-0.282318115234375,0.7682116031646729
2024-12-07 16:21:13.177913600,5.56291357421875,-0.6675525307655334,-0.3608961105346679,1.0235083103179932
2024-12-07 16:21:13.187941400,5.57294140625,-0.6443735361099243,-0.3389501571655273,0.9881263971328736
2024-12-07 16:21:13.197969200,5.58296923828125,-0.5374729633331299,-0.283731460571289,0.8983395099639893
2024-12-07 16:21:13.207997000,5.592996826171875,-0.5135830640792847,-0.2096099853515625,0.8450811505317688
2024-12-07 16:21:13.218024400,5.6030244140625,-0.4992420971393585,-0.1738548278808593,0.6612585783004761
2024-12-07 16:21:13.228052200,5.61305224609375,-0.4503737092018127,-0.1381340026855468,0.5294755697250366
2024-12-07 16:21:13.238080000,5.623080078125,-0.2103240191936493,-0.1598691940307617,0.2785414457321167
2024-12-07 16:21:13.248107800,5.633107666015625,-0.0868841409683227,-0.1530618667602539,0.1051530241966247
2024-12-07 16:21:13.258135300,5.64313525390625,-0.023101806640625,-0.2038154602050781,-0.0952601432800293
2024-12-07 16:21:13.268163000,5.6531630859375,-0.0520968437194824,-0.2355785369873047,-0.3024736940860748
2024-12-07 16:21:13.278190800,5.66319091796875,-0.0586298704147338,-0.2340364456176757,-0.2440049946308136
2024-12-07 16:21:13.288218400,5.67321826171875,-0.1608333885669708,-0.2277650833129882,-0.1137326657772064
2024-12-07 16:21:13.298246100,5.68324609375,0.0184844136238098,-0.3410243988037109,-0.4456388056278229
2024-12-07 16:21:13.308274000,5.69327392578125,-0.0903857052326202,-0.1818819046020507,-0.3546615540981293
2024-12-07 16:21:13.318301700,5.7033017578125,-0.1708361506462097,-0.0088510513305664,-0.3594596683979034
2024-12-07 16:21:13.328329200,5.7133291015625,-0.2612713873386383,0.2162580490112304,-0.2550297081470489
2024-12-07 16:21:13.338357000,5.72335693359375,-0.3270497024059295,0.4504261016845703,-0.0906689167022705
2024-12-07 16:21:13.348384800,5.733384765625,-0.195841759443283,0.7223234176635742,-0.0294917821884155
2024-12-07 16:21:13.358412500,5.74341259765625,0.0159770250320434,0.8980321884155273,-0.1190787404775619
2024-12-07 16:21:13.368440000,5.753440185546875,0.2166200280189514,0.8248815536499023,-0.382499486207962
2024-12-07 16:21:13.378467800,5.7634677734375,0.3683332800865173,0.5608072280883789,-0.6657369136810303
2024-12-07 16:21:13.388495600,5.77349560546875,0.4526808261871338,0.2400388717651367,-1.020641207695007
2024-12-07 16:21:13.398523400,5.7835234375,0.3469577431678772,-0.0703582763671875,-1.2455955743789673
2024-12-07 16:21:13.408551000,5.793551025390625,0.2672788500785827,-0.3751630783081054,-1.6123909950256348
2024-12-07 16:21:13.418578700,5.80357861328125,0.1612962484359741,-0.5693330764770508,-1.6209932565689087
2024-12-07 16:21:13.428606500,5.8136064453125,0.1113772988319397,-0.6387290954589844,-1.326164484024048
2024-12-07 16:21:13.438634200,5.82363427734375,0.2125871479511261,-0.7030849456787109,-1.0735636949539185
2024-12-07 16:21:13.448661800,5.833661865234375,0.4532832205295563,-0.8389167785644531,-0.7443501949310303
2024-12-07 16:21:13.458689500,5.843689453125,0.769400954246521,-0.7929630279541016,-0.487623393535614
2024-12-07 16:21:13.468717300,5.85371728515625,0.9459813833236694,-0.5322246551513672,-0.1753747463226318
2024-12-07 16:21:13.478744800,5.863744873046875,1.2836480140686035,-0.4632549285888672,-0.1105192154645919
2024-12-07 16:21:13.488772600,5.873772705078125,1.3973878622055054,-0.3946342468261719,-0.3817791640758514
2024-12-07 16:21:13.498800400,5.88380029296875,1.1646651029586792,-0.2164573669433593,-0.5208033323287964
2024-12-07 16:21:13.508828200,5.893828125,0.956571102142334,0.0042228698730468,-0.6001743078231812
2024-12-07 16:21:13.518855700,5.903855712890625,0.831316351890564,0.2720975875854492,-0.9054692387580872
2024-12-07 16:21:13.528883500,5.913883544921875,0.5857094526290894,0.5919189453125,-1.2029707431793213
2024-12-07 16:21:13.538911200,5.9239111328125,0.6709968447685242,0.86334228515625,-1.112259864807129
2024-12-07 16:21:13.548939000,5.93393896484375,0.8709621429443359,1.057634353637695,-0.6361372470855713
2024-12-07 16:21:13.558966500,5.943966552734375,0.5510157346725464,0.8452863693237305,-0.4798251986503601
2024-12-07 16:21:13.568994300,5.953994384765625,0.7465428113937378,0.4137163162231445,-0.6680812835693359
2024-12-07 16:21:13.579022000,5.96402197265625,1.7701406478881836,-0.0026226043701171,-0.2800056338310241
2024-12-07 16:21:13.589049900,5.9740498046875,1.7511478662490845,-0.1082878112792968,0.6216503381729126
2024-12-07 16:21:13.599077400,5.984077392578125,-1.1748464107513428,0.2005939483642578,1.4236464500427246
2024-12-07 16:21:13.609105200,5.994105224609375,-2.7745323181152344,0.092839241027832,0.7384443283081055
2024-12-07 16:21:13.619133000,6.0041328125,-1.2864148616790771,0.0100250244140625,-0.8524710536003113
2024-12-07 16:21:13.629160700,6.01416064453125,1.7137054204940796,-0.3062686920166015,-1.697279930114746
2024-12-07 16:21:13.639188200,6.024188232421875,2.908623218536377,-0.7801485061645508,-1.454190015792847
2024-12-07 16:21:13.649216000,6.034216064453125,1.715437650680542,-1.1774702072143557,-1.1058101654052734
2024-12-07 16:21:13.659243800,6.044243896484375,0.2987700700759887,-1.4596195220947266,-0.8079677224159241
2024-12-07 16:21:13.669271300,6.054271240234375,-0.5570343732833862,-1.4975948333740234,-0.6440988183021545
2024-12-07 16:21:13.679299000,6.064299072265625,-1.2950336933135986,-1.2583189010620115,-0.6843253970146179
2024-12-07 16:21:13.689326800,6.074326904296875,-1.6544257402420044,-0.8803129196166992,-0.6435160040855408
2024-12-07 16:21:13.699354600,6.084354736328125,-1.040575623512268,-0.6453742980957031,-0.0868409276008606
2024-12-07 16:21:13.709382100,6.094382080078125,-0.0986069440841674,-0.6635313034057617,0.8087543249130249
2024-12-07 16:21:13.719410000,6.104409912109375,0.326612651348114,-0.7054567337036133,1.6733593940734863
2024-12-07 16:21:13.729437700,6.114437744140625,0.4364702105522156,-0.6950092315673828,2.2645821571350098
2024-12-07 16:21:13.739465500,6.124465576171875,0.4881695508956909,-0.6276340484619141,2.4252328872680664
2024-12-07 16:21:13.749493000,6.134492919921875,0.6351941823959351,-0.3983898162841797,2.154391288757324
2024-12-07 16:21:13.759520800,6.144520751953125,0.767388105392456,-0.093729019165039,1.762007236480713
2024-12-07 16:21:13.769548500,6.154548583984375,0.8801160454750061,0.1858329772949218,1.3048031330108645
2024-12-07 16:21:13.779576300,6.164576416015625,1.0788085460662842,0.3829984664916992,0.5508056282997131
2024-12-07 16:21:13.789603800,6.174603759765625,1.2433619499206543,0.4214029312133789,-0.2252862155437469
2024-12-07 16:21:13.799631600,6.184631591796875,1.4501674175262451,0.2631177902221679,-0.8852709531784058
2024-12-07 16:21:13.809659400,6.194659423828125,1.4983563423156738,0.0040292739868164,-1.2894766330718994
2024-12-07 16:21:13.819687000,6.20468701171875,1.6953763961791992,-0.2457389831542968,-1.7927218675613403
2024-12-07 16:21:13.829714700,6.214714599609375,1.9801647663116453,-0.4963531494140625,-1.930505871772766
2024-12-07 16:21:13.839742500,6.224742431640625,1.702004075050354,-0.4997749328613281,-1.9307613372802737
2024-12-07 16:21:13.849770200,6.234770263671875,1.0873255729675293,-0.213139533996582,-2.030590534210205
2024-12-07 16:21:13.859797800,6.2447978515625,0.5421618223190308,0.1913013458251953,-1.9339687824249268
2024-12-07 16:21:13.869825500,6.254825439453125,0.2166786193847656,0.6085176467895508,-1.619103193283081
2024-12-07 16:21:13.879853300,6.264853271484375,0.1499159336090088,1.010258674621582,-1.076549053192139
2024-12-07 16:21:13.889881000,6.274881103515625,0.1077656745910644,1.4496688842773438,-0.4755706191062927
2024-12-07 16:21:13.899908600,6.28490869140625,-0.0926904678344726,1.750178337097168,0.1317514479160308
2024-12-07 16:21:13.909936400,6.294936279296875,-0.7759812474250793,1.9840011596679688,0.6495978236198425
2024-12-07 16:21:13.919964200,6.304964111328125,-1.8218470811843872,2.1282334327697754,1.0088759660720823
2024-12-07 16:21:13.929992000,6.314991943359375,-2.507492780685425,2.126901149749756,1.3824220895767212
2024-12-07 16:21:13.940019500,6.32501953125,-2.252875804901123,2.18678617477417,1.3494718074798584
2024-12-07 16:21:13.950047200,6.335047119140625,-1.4464774131774902,2.2257800102233887,0.9071493148803712
2024-12-07 16:21:13.960075000,6.345074951171875,-0.722606897354126,2.0989813804626465,0.7011569738388062
2024-12-07 16:21:13.970102800,6.355102783203125,-0.2812896966934204,1.791399002075195,0.4910423457622528
2024-12-07 16:21:13.980130300,6.36513037109375,-0.036427617073059,1.379558563232422,0.3903211057186126
2024-12-07 16:21:13.990158000,6.375157958984375,0.2223298549652099,1.049785614013672,0.3489602208137512
2024-12-07 16:21:14.000185900,6.385185791015625,0.1695650815963745,0.5676651000976562,0.5689878463745117
2024-12-07 16:21:14.010213400,6.39521337890625,-0.2038578987121582,0.0346336364746093,0.7591184377670288
2024-12-07 16:21:14.020241200,6.4052412109375,-0.3709217309951782,-0.4718456268310547,0.6433250904083252
2024-12-07 16:21:14.030269000,6.41526904296875,-0.1258108615875244,-1.0903081893920898,0.2092188596725464
2024-12-07 16:21:14.040296700,6.425296630859375,0.4308124780654907,-1.8308019638061523,-0.408341109752655
2024-12-07 16:21:14.050324200,6.43532421875,1.0946484804153442,-2.484199523925781,-0.8924850821495056
2024-12-07 16:21:14.060352000,6.44535205078125,1.3949273824691772,-2.7317886352539062,-0.8570338487625122
2024-12-07 16:21:14.070379800,6.4553798828125,0.8457149267196655,-2.5503406524658203,-0.3083347976207733
2024-12-07 16:21:14.080407600,6.465407470703125,0.0853166580200195,-2.146059989929199,0.1968954205513
2024-12-07 16:21:14.090435000,6.47543505859375,-0.6078364849090576,-1.318805694580078,0.7412365674972534
2024-12-07 16:21:14.100462800,6.485462890625,-1.3198035955429075,-0.135411262512207,1.7146577835083008
2024-12-07 16:21:14.110490600,6.49549072265625,-2.005749464035034,1.0415258407592771,2.5422909259796143
2024-12-07 16:21:14.120518400,6.505518310546875,-1.9035882949829104,1.5294837951660156,3.2127723693847656
2024-12-07 16:21:14.130546000,6.5155458984375,-1.0573253631591797,1.3583784103393557,3.446051597595215
2024-12-07 16:21:14.140573700,6.52557373046875,0.0097283124923706,0.8441123962402344,2.7620675563812256
2024-12-07 16:21:14.150601500,6.5356015625,0.9606552124023438,0.1342411041259765,1.7192267179489136
2024-12-07 16:21:14.160629200,6.545629150390625,1.9670621156692505,-0.5760087966918945,0.5511174201965332
2024-12-07 16:21:14.170657000,6.555656982421875,2.70125961303711,-1.077005386352539,-0.0729323327541351
2024-12-07 16:21:14.180684800,6.565684814453125,2.768528938293457,-0.9775209426879884,-0.3918533623218536
2024-12-07 16:21:14.190712600,6.575712646484375,1.792673110961914,-0.3023853302001953,-0.6127579212188721
2024-12-07 16:21:14.200740400,6.585740234375,-0.4556996822357178,0.5236196517944336,-0.8774768114089966
2024-12-07 16:21:14.210768100,6.59576806640625,-2.77530288696289,1.0914945602416992,-1.5001895427703855
2024-12-07 16:21:14.220796000,6.6057958984375,-4.272995471954346,1.2832117080688477,-2.150360107421875
2024-12-07 16:21:14.230823700,6.61582373046875,-5.382974147796631,1.0714330673217771,-2.009723663330078
2024-12-07 16:21:14.240851500,6.6258515625,-5.335017204284668,0.6676340103149414,-0.9607553482055664
2024-12-07 16:21:14.250879200,6.635879150390625,-3.8372507095336914,0.0569982528686523,0.1981340944766998
2024-12-07 16:21:14.260907000,6.645906982421875,-2.077136516571045,-0.5416078567504883,0.8420675992965698
2024-12-07 16:21:14.270934800,6.655934814453125,-0.3538541197776794,-1.0097990036010742,1.2188068628311155
2024-12-07 16:21:14.280962600,6.665962646484375,0.9141385555267334,-1.2246713638305664,1.2955645322799685
2024-12-07 16:21:14.290990300,6.675990234375,1.2583402395248413,-1.283127784729004,1.3869996070861816
2024-12-07 16:21:14.301017900,6.686017822265625,0.7907850742340088,-1.1806840896606443,1.6805636882781982
2024-12-07 16:21:14.311045600,6.696045654296875,-0.1522425413131714,-0.7786073684692383,1.999009370803833
2024-12-07 16:21:14.321073400,6.706073486328125,-0.8989242911338806,-0.2726898193359375,2.1937105655670166
2024-12-07 16:21:14.331101200,6.71610107421875,-1.131008863449097,0.1986160278320312,2.0046586990356445
2024-12-07 16:21:14.341129000,6.72612890625,-1.24920654296875,0.3537654876708984,1.8240554332733152
2024-12-07 16:21:14.351156700,6.73615673828125,-1.2729889154434204,0.198333740234375,1.3444819450378418
2024-12-07 16:21:14.361184500,6.7461845703125,-1.0425114631652832,-0.0857505798339843,-0.0702536478638649
2024-12-07 16:21:14.371212300,6.75621240234375,-0.918944776058197,-0.4077558517456054,-1.8385266065597536
2024-12-07 16:21:14.381240000,6.766239990234375,-0.8682129979133606,-0.5764636993408203,-3.34000015258789
2024-12-07 16:21:14.391267800,6.776267822265625,-0.7449878454208374,-0.5394048690795898,-4.201326847076416
2024-12-07 16:21:14.401295600,6.786295654296875,-0.5100764036178589,-0.3494091033935547,-4.234521865844727
2024-12-07 16:21:14.411323400,6.796323486328125,-0.3501919507980346,-0.0928173065185546,-3.5092196464538574
2024-12-07 16:21:14.421351200,6.80635107421875,-0.3324492573738098,0.1536998748779297,-2.537163257598877
2024-12-07 16:21:14.431379000,6.81637890625,-0.3002603054046631,0.3517885208129883,-1.5604995489120483
2024-12-07 16:21:14.441406700,6.82640673828125,-0.2983446419239044,0.4727411270141601,-0.5778011083602905
2024-12-07 16:21:14.451434500,6.8364345703125,-0.1409659385681152,0.5357999801635742,0.3452625274658203
2024-12-07 16:21:14.461462000,6.8464619140625,0.2043143510818481,0.5601873397827148,1.1769126653671265
2024-12-07 16:21:14.471489800,6.85648974609375,0.5218991637229919,0.4361600875854492,1.6663192510604858
2024-12-07 16:21:14.481517600,6.866517578125,0.7448956966400146,0.1975431442260742,1.8507148027420044
2024-12-07 16:21:14.491545300,6.87654541015625,0.7487159967422485,-0.0933265686035156,1.8394194841384888
2024-12-07 16:21:14.501573000,6.886572998046875,0.5014910101890564,-0.2881937026977539,1.4297105073928833
2024-12-07 16:21:14.511601000,6.896600830078125,0.2449288964271545,-0.4540376663208008,0.977968156337738
2024-12-07 16:21:14.521628700,6.906628662109375,0.0757657885551452,-0.504887580871582,0.4914095997810364
2024-12-07 16:21:14.531656400,6.916656494140625,-0.0340033173561096,-0.4982919692993164,0.1005772948265075
2024-12-07 16:21:14.541684200,6.926684326171875,-0.1135487258434295,-0.467844009399414,-0.1839330494403839
2024-12-07 16:21:14.551712000,6.9367119140625,-0.0641234517097473,-0.4566631317138672,-0.4666692018508911
2024-12-07 16:21:14.561739800,6.94673974609375,0.0306239128112792,-0.5173301696777344,-0.6223878264427185
2024-12-07 16:21:14.571767600,6.956767578125,0.0174484252929687,-0.5923404693603516,-0.6611326336860657
2024-12-07 16:21:14.581795300,6.96679541015625,0.061291754245758,-0.571624755859375,-0.8016880750656128
2024-12-07 16:21:14.591823000,6.976822998046875,-0.0168978571891784,-0.5555715560913086,-0.6807988882064819
2024-12-07 16:21:14.601851000,6.986850830078125,0.2139075398445129,-0.6301755905151367,-0.6745312809944153
2024-12-07 16:21:14.611878700,6.996878662109375,0.3878239393234253,-0.7571659088134766,-0.7794196605682373
2024-12-07 16:21:14.621906400,7.006906494140625,0.3789513707160949,-0.8696212768554688,-0.9611330032348632
2024-12-07 16:21:14.631934000,7.016933837890625,0.1548088490962982,-0.8910923004150391,-0.8410181403160095
2024-12-07 16:21:14.641961700,7.026961669921875,-0.0240887403488159,-0.8551139831542969,-0.6242170929908752
2024-12-07 16:21:14.651989500,7.036989501953125,-0.0457080602645874,-0.6805191040039062,-0.1576704680919647
2024-12-07 16:21:14.662017300,7.047017333984375,0.195811241865158,-0.5300931930541992,0.3555506467819214
2024-12-07 16:21:14.672045000,7.057045166015625,0.6894736289978027,-0.4565143585205078,0.8068616390228271
2024-12-07 16:21:14.682072800,7.06707275390625,0.9955366849899292,-0.3834304809570312,0.9466255307197572
2024-12-07 16:21:14.692100600,7.0771005859375,0.7922139167785645,-0.3347883224487304,0.9722955226898192
2024-12-07 16:21:14.702128400,7.08712841796875,0.6051396131515503,-0.1337480545043945,0.9930449724197388
2024-12-07 16:21:14.712156200,7.09715625,0.770160436630249,0.3338050842285156,0.6674030423164368
2024-12-07 16:21:14.722184000,7.107183837890625,1.1602320671081543,0.8233814239501953,-0.1464339792728424
2024-12-07 16:21:14.732211700,7.117211669921875,0.9493569135665894,1.1677322387695312,-1.176250696182251
2024-12-07 16:21:14.742239500,7.127239501953125,-0.1065097376704216,1.314985275268555,-2.0645999908447266
2024-12-07 16:21:14.752267300,7.137267333984375,-0.7919031381607056,1.3614721298217771,-2.685060977935791
2024-12-07 16:21:14.762295000,7.147294921875,-1.0445606708526611,1.2168951034545898,-3.007782459259033
2024-12-07 16:21:14.772322800,7.15732275390625,-0.4471401572227478,0.8916454315185547,-3.1399576663970947
2024-12-07 16:21:14.782350600,7.1673505859375,0.5843175649642944,0.4533100128173828,-2.935166835784912
2024-12-07 16:21:14.792378000,7.177378173828125,1.2222381830215454,0.0739936828613281,-2.132315397262573
2024-12-07 16:21:14.802406000,7.187406005859375,1.4661130905151367,-0.2133808135986328,-1.2478655576705933
2024-12-07 16:21:14.812433700,7.19743359375,1.5485036373138428,-0.5525093078613281,-0.6040542125701904
2024-12-07 16:21:14.822461400,7.20746142578125,1.7594982385635376,-0.8333940505981445,-0.0855928063392639
2024-12-07 16:21:14.832489200,7.2174892578125,1.8201642036437988,-0.8702898025512695,0.5431042313575745
2024-12-07 16:21:14.842517000,7.22751708984375,1.2916226387023926,-0.7693901062011719,0.7217918634414673
2024-12-07 16:21:14.852544800,7.237544677734375,0.5115038752555847,-0.7266349792480469,0.0789369344711303
2024-12-07 16:21:14.862572500,7.247572509765625,-0.201815515756607,-0.688385009765625,-0.9027880430221558
2024-12-07 16:21:14.872600300,7.257600341796875,-0.8360613584518433,-0.5776653289794922,-1.425586462020874
2024-12-07 16:21:14.882628000,7.267628173828125,-1.2560852766036987,-0.4231939315795898,-1.6202185153961182
2024-12-07 16:21:14.892655900,7.27765576171875,-1.22235107421875,-0.2681808471679687,-1.5052201747894287
2024-12-07 16:21:14.902683600,7.28768359375,-0.8120545148849487,-0.1985654830932617,-1.2911648750305176
2024-12-07 16:21:14.912711400,7.29771142578125,-0.1931266188621521,-0.1952896118164062,-0.5471338629722595
2024-12-07 16:21:14.922739200,7.3077392578125,0.3641971945762634,-0.2158184051513672,0.5699383616447449
2024-12-07 16:21:14.932767000,7.31776708984375,0.7395482659339905,-0.1651525497436523,1.5046055316925049
2024-12-07 16:21:14.942794800,7.327794677734375,1.1164555549621582,-0.0675764083862304,1.9254043102264404
2024-12-07 16:21:14.952822300,7.337822265625,1.4765675067901611,0.0766448974609375,2.063333749771118
2024-12-07 16:21:14.962850000,7.34785009765625,1.5177288055419922,0.2435083389282226,2.006567001342773
2024-12-07 16:21:14.972877800,7.3578779296875,1.4806249141693115,0.3279657363891601,1.9201126098632808
2024-12-07 16:21:14.982905600,7.367905517578125,1.5621833801269531,0.3445119857788086,1.8184281587600708
2024-12-07 16:21:14.992933400,7.377933349609375,1.548267841339111,0.3219537734985351,1.5877342224121094
2024-12-07 16:21:15.002961200,7.387961181640625,1.2662612199783323,0.3322467803955078,1.1870532035827637
2024-12-07 16:21:15.012989000,7.397989013671875,0.7834036946296692,0.3804044723510742,0.5658482909202576
2024-12-07 16:21:15.023016700,7.4080166015625,0.2104333639144897,0.5145769119262695,-0.4263617992401123
2024-12-07 16:21:15.033044500,7.41804443359375,-0.1088912487030029,0.6634111404418945,-1.6998337507247925
2024-12-07 16:21:15.043072300,7.428072265625,-0.1043233871459961,0.8125925064086914,-3.000821828842163
2024-12-07 16:21:15.053100000,7.43810009765625,0.2552965879440307,0.8759374618530273,-4.110621929168701
2024-12-07 16:21:15.063127800,7.4481279296875,1.0269709825515747,0.8099575042724609,-4.55105447769165
2024-12-07 16:21:15.073155600,7.458155517578125,1.7562251091003418,0.6857318878173828,-4.08445930480957
2024-12-07 16:21:15.083183400,7.468183349609375,2.085234403610229,0.5408477783203125,-2.7874200344085693
2024-12-07 16:21:15.093211100,7.478211181640625,1.919501543045044,0.3324241638183594,-1.0640983581542969
2024-12-07 16:21:15.103239000,7.488239013671875,1.4528071880340576,0.2133598327636718,0.4390815496444702
2024-12-07 16:21:15.113266700,7.4982666015625,0.8118394613265991,0.2841958999633789,1.500278115272522
2024-12-07 16:21:15.123294200,7.508294189453125,0.0373784303665161,0.4452476501464844,2.10058069229126
2024-12-07 16:21:15.133322000,7.518322021484375,-0.5279627442359924,0.5828781127929688,2.2571518421173096
2024-12-07 16:21:15.143349800,7.528349853515625,-0.532360315322876,0.611872673034668,2.1399216651916504
2024-12-07 16:21:15.153377500,7.53837744140625,0.1450202465057373,0.6947641372680664,1.7081749439239502
2024-12-07 16:21:15.163405300,7.5484052734375,1.0610814094543457,0.94500732421875,1.1187903881072998
2024-12-07 16:21:15.173433000,7.55843310546875,1.5082886219024658,1.1751747131347656,1.1511638164520264
2024-12-07 16:21:15.183460900,7.5684609375,1.3104017972946167,1.5477838516235352,1.1600947380065918
2024-12-07 16:21:15.193488600,7.578488525390625,0.474096417427063,2.063253402709961,0.3861996829509735
2024-12-07 16:21:15.203516400,7.588516357421875,-0.0670059919357299,2.4496874809265137,-0.391397476196289
2024-12-07 16:21:15.213544200,7.598544189453125,-0.4688194990158081,2.406789302825928,-1.01177716255188
2024-12-07 16:21:15.223572000,7.608572021484375,-0.5802487134933472,2.0078048706054688,-1.2534115314483645
2024-12-07 16:21:15.233599700,7.618599853515625,-0.2593168020248413,1.4732389450073242,-0.9968563914299012
2024-12-07 16:21:15.243627500,7.62862744140625,0.2097477912902832,0.8550701141357422,-0.4466384053230285
2024-12-07 16:21:15.253655300,7.6386552734375,0.5757361650466919,-0.0243244171142578,0.3123491704463959
2024-12-07 16:21:15.263683000,7.64868310546875,0.5577436685562134,-1.4372014999389648,0.9959304928779602
2024-12-07 16:21:15.273710800,7.6587109375,0.2196466922760009,-3.396632194519043,1.2401126623153689
2024-12-07 16:21:15.283738400,7.66873828125,-0.1190587282180786,-5.8627119064331055,1.3098088502883911
2024-12-07 16:21:15.293766100,7.67876611328125,-0.2758724689483642,-8.203561782836914,1.408095359802246
2024-12-07 16:21:15.303794000,7.6887939453125,-0.8305356502532959,-8.943854331970215,0.6681106090545654
2024-12-07 16:21:15.313822000,7.698822021484375,-1.478874921798706,-6.764552116394043,-0.6503413319587708
2024-12-07 16:21:15.323849700,7.708849609375,-2.0414581298828125,-2.9002809524536133,-0.6020203828811646
2024-12-07 16:21:15.333877500,7.71887744140625,-3.5160226821899414,0.6590032577514648,0.6581705212593079
2024-12-07 16:21:15.343905300,7.7289052734375,-4.157258033752441,3.21863317489624,2.2510619163513184
2024-12-07 16:21:15.353933000,7.73893310546875,-3.092952251434326,4.748173713684082,3.810451030731201
2024-12-07 16:21:15.363960800,7.7489609375,-1.617715835571289,5.454420566558838,4.900017738342285
2024-12-07 16:21:15.373988600,7.758988525390625,-1.3893502950668335,5.276276111602783,5.298630714416504
2024-12-07 16:21:15.384016600,7.7690166015625,-1.7026562690734863,4.387726306915283,4.491784572601318
2024-12-07 16:21:15.394044400,7.77904443359375,-1.3475233316421509,3.1098074913024902,2.607663154602051
2024-12-07 16:21:15.404072200,7.789072265625,-0.9015070199966432,1.4757843017578125,0.7199566960334778
2024-12-07 16:21:15.414100000,7.799099853515625,-0.6177070140838623,-0.1315164566040039,-0.4009438753128052
2024-12-07 16:21:15.424127700,7.809127685546875,-0.0653479099273681,-1.3728294372558594,-1.087934494018555
2024-12-07 16:21:15.434155500,7.819155517578125,0.4850159883499145,-2.1966867446899414,-1.7357083559036257
2024-12-07 16:21:15.444183300,7.829183349609375,0.4531729221343994,-2.69503116607666,-2.178633689880371
2024-12-07 16:21:15.454211300,7.83921142578125,0.3891453742980957,-2.964191436767578,-2.153646230697632
2024-12-07 16:21:15.464239000,7.849239013671875,0.3076146841049194,-2.76582145690918,-1.532613754272461
2024-12-07 16:21:15.474267000,7.859266845703125,0.1372520923614502,-2.14339542388916,-0.938579559326172
2024-12-07 16:21:15.484294700,7.869294677734375,0.3384715318679809,-1.2022113800048828,-0.7472777366638184
2024-12-07 16:21:15.494322400,7.879322509765625,0.3524225950241089,-0.3632192611694336,-0.1020398437976837
2024-12-07 16:21:15.504350200,7.88935009765625,0.0724463462829589,0.2925100326538086,0.3739160895347595
2024-12-07 16:21:15.514378000,7.8993779296875,-0.4118016958236694,0.8369626998901367,0.2576301097869873
2024-12-07 16:21:15.524406000,7.909406005859375,-0.9615837335586548,1.0841197967529297,-0.1290155947208404
2024-12-07 16:21:15.534433800,7.919433837890625,-1.4807549715042114,1.1445703506469729,-0.6055848598480225
2024-12-07 16:21:15.544461600,7.929461669921875,-1.8372373580932613,1.128948211669922,-0.9918123483657836
2024-12-07 16:21:15.554489300,7.9394892578125,-1.7894728183746338,0.9708614349365234,-1.1608668565750122
2024-12-07 16:21:15.564517000,7.94951708984375,-1.442768096923828,0.6086044311523438,-1.0172449350357056
2024-12-07 16:21:15.574545000,7.959544921875,-0.9574488997459412,0.1904945373535156,-0.8162024021148682
2024-12-07 16:21:15.584572700,7.96957275390625,-0.5289996266365051,-0.1644048690795898,-0.6492789387702942
2024-12-07 16:21:15.594600700,7.9796005859375,-0.1741285324096679,-0.427835464477539,-0.4415389895439148
2024-12-07 16:21:15.604628500,7.98962841796875,0.0677137374877929,-0.5810470581054688,-0.2889468371868133
2024-12-07 16:21:15.614656300,7.99965625,0.2826555371284485,-0.6577425003051758,-0.0956336259841919
2024-12-07 16:21:15.624684000,8.00968408203125,0.4851335287094116,-0.5960044860839844,0.1959148496389389
2024-12-07 16:21:15.634711800,8.0197119140625,0.4891483187675476,-0.3627090454101562,0.394685298204422
2024-12-07 16:21:15.644739600,8.029739501953125,0.3201113939285278,-0.1301345825195312,0.529790997505188
2024-12-07 16:21:15.654767400,8.039767333984376,0.2080673575401306,0.0826597213745117,0.5581074953079224
2024-12-07 16:21:15.664795100,8.049795166015626,0.1851276159286499,0.2374067306518554,0.5419188141822815
2024-12-07 16:21:15.674823200,8.0598232421875,0.1448747515678405,0.2911939620971679,0.5378375053405762
2024-12-07 16:21:15.684851000,8.069850830078124,0.0825947523117065,0.2204093933105468,0.4785100817680359
2024-12-07 16:21:15.694878700,8.079878662109374,0.0607616901397705,0.0158319473266601,0.3787413239479065
2024-12-07 16:21:15.704906500,8.089906494140624,0.0556545257568359,-0.2792034149169922,0.2247693240642547
2024-12-07 16:21:15.714934300,8.099934326171875,-0.0330747365951538,-0.4591150283813476,-0.0484293401241302
2024-12-07 16:21:15.724962000,8.109962158203125,-0.2414485812187194,-0.5909023284912109,-0.2010190188884735
2024-12-07 16:21:15.734989800,8.11998974609375,-0.3573233187198639,-0.5646800994873047,-0.3911742866039276
2024-12-07 16:21:15.745017900,8.130017822265625,-0.4039558470249176,-0.5049753189086914,-0.5077294111251831
2024-12-07 16:21:15.755045600,8.140045654296875,-0.4675039649009704,-0.3879919052124023,-0.4500912427902221
2024-12-07 16:21:15.765073400,8.150073486328125,-0.4281223118305206,-0.2281618118286132,-0.4447824656963348
2024-12-07 16:21:15.775101200,8.16010107421875,-0.3293938040733337,-0.0017404556274414,-0.3636001050472259
2024-12-07 16:21:15.785129000,8.17012890625,-0.1101066470146179,0.1095380783081054,-0.3227215409278869
2024-12-07 16:21:15.795156700,8.18015673828125,0.0655720233917236,0.1297235488891601,-0.3845732510089874
2024-12-07 16:21:15.805184500,8.1901845703125,0.0774954557418823,0.0876302719116211,-0.658345639705658
2024-12-07 16:21:15.815212500,8.200212646484376,-0.0732922554016113,-0.045201301574707,-0.91216641664505
2024-12-07 16:21:15.825240300,8.210240234375,-0.2608332335948944,-0.220682144165039,-0.9396816492080688
2024-12-07 16:21:15.835268000,8.22026806640625,-0.4117239117622375,-0.3048543930053711,-0.8844808340072632
2024-12-07 16:21:15.845295600,8.230295654296874,-0.4151653051376343,-0.2549028396606445,-0.7989309430122375
2024-12-07 16:21:15.855323400,8.240323486328125,-0.3481746315956116,-0.1428356170654297,-0.63436359167099
2024-12-07 16:21:15.865351200,8.25035107421875,-0.1548816263675689,0.0072021484375,-0.1872922778129577
2024-12-07 16:21:15.875379000,8.26037890625,0.1469132900238037,0.1566877365112304,0.1468225717544555
2024-12-07 16:21:15.885406700,8.27040673828125,0.3630807995796203,0.2242660522460937,0.2334632128477096
2024-12-07 16:21:15.895434500,8.2804345703125,0.3735285103321075,0.1909914016723632,0.2921152710914612
2024-12-07 16:21:15.905462300,8.290462158203125,0.3334326446056366,0.0810747146606445,0.2171900421380996
2024-12-07 16:21:15.915490000,8.300489990234375,0.484590470790863,-0.17681884765625,0.0430204719305038
2024-12-07 16:21:15.925517800,8.310517822265625,0.8088515400886536,-0.591827392578125,-0.2436936348676681
2024-12-07 16:21:15.935545600,8.320545654296875,1.1672790050506592,-1.0059404373168943,-0.713282585144043
2024-12-07 16:21:15.945573400,8.330573486328126,1.405778884887695,-1.3475408554077148,-1.2396900653839111
2024-12-07 16:21:15.955601200,8.34060107421875,1.4321553707122805,-1.6406841278076172,-1.6916652917861938
2024-12-07 16:21:15.965629000,8.35062890625,1.397454023361206,-1.93795108795166,-1.9510776996612549
2024-12-07 16:21:15.975656700,8.36065673828125,1.214712381362915,-2.0910844802856445,-1.828123688697815
2024-12-07 16:21:15.985684500,8.3706845703125,0.9382655620574952,-2.0286121368408203,-1.2167783975601196
2024-12-07 16:21:15.995712300,8.380712158203124,0.7145761251449585,-1.8035736083984373,-0.3784250617027282
2024-12-07 16:21:16.005739800,8.39073974609375,0.6756833791732788,-1.454636573791504,0.3336682319641113
2024-12-07 16:21:16.015767600,8.400767578125,0.9171381592750548,-1.0252676010131836,0.7051610946655273
2024-12-07 16:21:16.025795300,8.41079541015625,1.215664029121399,-0.6305303573608398,0.7096757888793945
2024-12-07 16:21:16.035823000,8.420822998046875,1.3699735403060913,-0.1798105239868164,0.3894315659999847
2024-12-07 16:21:16.045851000,8.430850830078125,0.9505919814109802,0.2215690612792968,-0.1869823187589645
2024-12-07 16:21:16.055878700,8.440878662109375,0.4528536796569824,0.4497327804565429,-0.810066819190979
2024-12-07 16:21:16.065906400,8.450906494140625,0.285489946603775,0.8444423675537109,-1.0942336320877075
2024-12-07 16:21:16.075934200,8.460934326171875,-0.7026225328445435,1.514719009399414,-0.3785927295684814
2024-12-07 16:21:16.085962000,8.4709619140625,-2.540961742401123,2.149026870727539,0.1031806468963623
2024-12-07 16:21:16.095989800,8.48098974609375,-2.613752603530884,2.4422621726989746,-0.5515958070755005
2024-12-07 16:21:16.106017500,8.491017578125,-0.7975889444351196,2.620601177215576,-1.833216905593872
2024-12-07 16:21:16.116045300,8.50104541015625,1.5911259651184082,2.5603480339050293,-2.1200919151306152
2024-12-07 16:21:16.126073000,8.511072998046876,2.560297727584839,2.199334144592285,-1.12900710105896
2024-12-07 16:21:16.136100900,8.521100830078124,2.138835906982422,1.5901012420654297,0.3576332628726959
2024-12-07 16:21:16.146128600,8.531128662109374,1.6331050395965576,0.9335365295410156,1.2595609426498413
2024-12-07 16:21:16.156156400,8.541156494140624,0.6233177185058594,0.363616943359375,1.5239198207855225
2024-12-07 16:21:16.166184200,8.55118408203125,-0.7784786224365234,-0.1002435684204101,1.385769605636597
2024-12-07 16:21:16.176211700,8.561211669921875,-1.7970033884048462,-0.4863300323486328,1.0270617008209229
2024-12-07 16:21:16.186239500,8.571239501953125,-2.301017999649048,-0.7799768447875977,0.6856135129928589
2024-12-07 16:21:16.196267300,8.581267333984375,-2.2194178104400635,-0.8139495849609375,0.6214820146560669
2024-12-07 16:21:16.206295000,8.591294921875,-1.4660606384277344,-0.5652141571044922,0.7189348936080933
2024-12-07 16:21:16.216322800,8.60132275390625,-0.3525746166706085,-0.3071403503417969,0.99022114276886
2024-12-07 16:21:16.226350600,8.6113505859375,0.6859206557273865,-0.1071004867553711,1.141312837600708
2024-12-07 16:21:16.236378400,8.62137841796875,1.3788173198699951,0.0108375549316406,1.009477972984314
2024-12-07 16:21:16.246406100,8.63140625,1.7157970666885376,0.0706300735473632,0.6439470648765564
2024-12-07 16:21:16.256434000,8.641433837890625,1.815878629684448,0.0867137908935546,0.1049085855484008
2024-12-07 16:21:16.266461700,8.651461669921876,1.618887186050415,0.040349006652832,-0.3983736038208008
2024-12-07 16:21:16.276489500,8.661489501953126,1.2908209562301636,-0.0727262496948242,-0.7345440983772278
2024-12-07 16:21:16.286517200,8.671517333984376,1.0256056785583496,-0.1374692916870117,-0.9272255301475524
2024-12-07 16:21:16.296545000,8.681544921875,0.8337090015411377,-0.0727748870849609,-1.0109384059906006
2024-12-07 16:21:16.306572800,8.69157275390625,0.6628512144088745,0.0732002258300781,-1.0970807075500488
2024-12-07 16:21:16.316600600,8.7016005859375,0.4714061021804809,0.2811975479125976,-1.2681697607040403
2024-12-07 16:21:16.326628400,8.71162841796875,0.4561442136764526,0.4316987991333008,-1.4049999713897705
2024-12-07 16:21:16.336656000,8.72165576171875,0.50527024269104,0.4863834381103515,-1.4177013635635376
2024-12-07 16:21:16.346683600,8.73168359375,0.4078742265701294,0.4930553436279297,-1.2235263586044312
2024-12-07 16:21:16.356711400,8.74171142578125,0.4086251258850097,0.5569591522216797,-1.0688269138336182
2024-12-07 16:21:16.366739200,8.7517392578125,0.5645774602890015,0.6254405975341797,-1.16375732421875
2024-12-07 16:21:16.376767000,8.76176708984375,0.7886594533920288,0.5981273651123047,-1.018822193145752
2024-12-07 16:21:16.386794800,8.771794677734375,1.1701109409332275,0.5514945983886719,-0.5937149524688721
2024-12-07 16:21:16.396822500,8.781822509765625,1.3016542196273804,0.5755901336669922,-0.0851764902472496
2024-12-07 16:21:16.406850300,8.791850341796875,1.0399067401885986,0.6366958618164062,0.4482710659503937
2024-12-07 16:21:16.416878000,8.801878173828126,0.6953181028366089,0.7257194519042969,0.8708111643791199
2024-12-07 16:21:16.426905900,8.81190576171875,0.652518630027771,0.7665519714355469,1.115626335144043
2024-12-07 16:21:16.436933600,8.82193359375,0.7247809171676636,0.6973323822021484,1.30201256275177
2024-12-07 16:21:16.446961400,8.83196142578125,0.9820331335067748,0.5850658416748047,1.170708179473877
2024-12-07 16:21:16.456989200,8.8419892578125,1.0302804708480835,0.4295730590820312,0.6757631897926331
2024-12-07 16:21:16.467017000,8.852016845703124,0.993661403656006,0.2356061935424804,0.120328888297081
2024-12-07 16:21:16.477044700,8.862044677734374,0.9600210189819336,0.0607795715332031,-0.3691880106925964
2024-12-07 16:21:16.487072500,8.872072509765625,1.0173096656799316,-0.0421886444091796,-0.9801919460296632
2024-12-07 16:21:16.497100300,8.882100341796875,1.180559158325195,-0.1020393371582031,-0.8792811632156372
2024-12-07 16:21:16.507127800,8.8921279296875,1.2069063186645508,0.0150823593139648,-0.5999919772148132
2024-12-07 16:21:16.517155600,8.902155517578125,0.9982950687408448,0.2757701873779297,-0.3847276270389557
2024-12-07 16:21:16.527183400,8.912183349609375,0.6720075607299805,0.6515283584594727,-0.4696328043937683
2024-12-07 16:21:16.537211100,8.922211181640625,0.4431779384613037,1.0418329238891602,-0.8734843730926514
2024-12-07 16:21:16.547239000,8.932239013671875,0.0440478324890136,1.4179773330688477,-1.4408632516860962
2024-12-07 16:21:16.557266700,8.9422666015625,-0.4319241046905517,1.7851448059082031,-1.9153525829315183
2024-12-07 16:21:16.567294500,8.95229443359375,-0.4912309646606445,2.0910849571228027,-2.010316610336304
2024-12-07 16:21:16.577322200,8.962322265625,-0.109870433807373,2.3640332221984863,-1.553165078163147
2024-12-07 16:21:16.587350000,8.97235009765625,0.212374210357666,2.6554088592529297,-1.1874314546585083
2024-12-07 16:21:16.597377800,8.982377685546876,0.1680053472518921,2.764105796813965,-0.7007443904876709
2024-12-07 16:21:16.607405600,8.992405517578124,0.1478859186172485,2.156123638153076,0.3051514625549316
2024-12-07 16:21:16.617433300,9.002433349609374,0.464889645576477,-0.1166858673095703,2.3663580417633057
2024-12-07 16:21:16.627461000,9.012461181640624,1.5003328323364258,-4.155828475952148,4.354658603668213
2024-12-07 16:21:16.637489000,9.022489013671876,2.287992477416992,-8.516064643859863,4.685086250305176
2024-12-07 16:21:16.647516700,9.0325166015625,1.1393076181411743,-10.508450508117676,3.731366872787475
2024-12-07 16:21:16.657544400,9.04254443359375,0.1413265466690063,-9.822517395019531,1.7822641134262085
2024-12-07 16:21:16.667572000,9.052572021484377,-0.5302306413650513,-5.852757453918457,-0.0198821127414703
2024-12-07 16:21:16.677599700,9.062599853515623,-1.3022925853729248,-1.2383508682250977,1.247145414352417
2024-12-07 16:21:16.687627500,9.07262744140625,-2.422825813293457,1.5842933654785156,2.263427257537842
2024-12-07 16:21:16.697655300,9.0826552734375,-3.303775787353516,3.255770206451416,2.5766372680664062
2024-12-07 16:21:16.707683000,9.09268310546875,-3.734379529953003,4.257492542266846,2.3641104698181152
2024-12-07 16:21:16.717710800,9.1027109375,-4.008967876434326,4.768429756164551,1.7348926067352295
2024-12-07 16:21:16.727738600,9.112738525390624,-4.312768459320068,4.416782855987549,0.9260876774787904
2024-12-07 16:21:16.737766400,9.122766357421876,-4.224369525909424,3.2564196586608887,-0.5085888504981995
2024-12-07 16:21:16.747794200,9.132794189453126,-2.710312604904175,1.7697420120239258,-2.071176290512085
2024-12-07 16:21:16.757822000,9.142822021484376,-1.179202437400818,0.4427738189697265,-2.827989101409912
2024-12-07 16:21:16.767849700,9.152849609375,-0.5408377647399902,-0.3858585357666015,-2.716447114944458
2024-12-07 16:21:16.777877500,9.16287744140625,-0.2833648920059204,-0.821589469909668,-2.201064348220825
2024-12-07 16:21:16.787905300,9.1729052734375,-0.1484869718551635,-1.0651168823242188,-1.202987551689148
2024-12-07 16:21:16.797933000,9.18293310546875,0.0132195949554443,-1.0403032302856443,-0.4927980303764343
2024-12-07 16:21:16.807960800,9.1929609375,0.2992113828659057,-1.0157575607299805,0.2697972953319549
2024-12-07 16:21:16.817988600,9.202988525390625,0.5360006093978882,-1.0305585861206057,1.0064148902893066
2024-12-07 16:21:16.828016000,9.21301611328125,0.2989289760589599,-1.1329259872436523,1.9191994667053225
2024-12-07 16:21:16.838044000,9.2230439453125,-0.4129379987716675,-1.1884374618530271,2.892296075820923
2024-12-07 16:21:16.848071700,9.23307177734375,-0.5715160965919495,-0.9624309539794922,3.255490779876709
2024-12-07 16:21:16.858099500,9.243099365234375,-0.235425591468811,-0.7564659118652344,3.2637722492218018
2024-12-07 16:21:16.868127200,9.253127197265623,0.1880098581314087,-0.6898641586303711,3.3183512687683105
2024-12-07 16:21:16.878155000,9.263155029296875,0.6044979095458984,-0.5142631530761719,3.225879430770874
2024-12-07 16:21:16.888182800,9.273182861328126,0.4137452840805053,0.0180873870849609,2.056910276412964
2024-12-07 16:21:16.898210600,9.28321044921875,-0.1977425813674926,0.2427396774291992,0.4023607671260834
2024-12-07 16:21:16.908238300,9.29323828125,-0.8311823606491089,0.2901248931884765,-0.8039662837982178
2024-12-07 16:21:16.918266000,9.30326611328125,-1.1057186126708984,0.2709598541259765,-1.927035927772522
2024-12-07 16:21:16.928294000,9.3132939453125,-1.280126452445984,0.1376514434814453,-2.7109694480896
2024-12-07 16:21:16.938321700,9.32332177734375,-1.574105739593506,0.0194730758666992,-2.984989643096924
2024-12-07 16:21:16.948349400,9.333349365234374,-1.809563398361206,0.0215625762939453,-3.1334242820739746
2024-12-07 16:21:16.958377200,9.343377197265625,-1.7290278673171997,0.1053266525268554,-2.771167516708374
2024-12-07 16:21:16.968405000,9.353405029296876,-1.3928263187408447,0.1747570037841797,-2.107795000076294
2024-12-07 16:21:16.978432800,9.363432861328125,-1.170496702194214,0.1628971099853515,-1.40433931350708
2024-12-07 16:21:16.988460500,9.37346044921875,-1.1273136138916016,0.1321992874145507,-0.7206506729125977
2024-12-07 16:21:16.998488000,9.383488037109377,-1.0048946142196655,0.0588226318359375,-0.2392594665288925
2024-12-07 16:21:17.008515800,9.393515869140623,-0.9143095016479492,0.0191764831542968,0.0974775999784469
2024-12-07 16:21:17.018543600,9.403543701171875,-0.769665002822876,0.0800018310546875,0.4814284145832062
2024-12-07 16:21:17.028571400,9.4135712890625,-0.5424823760986328,0.0594997406005859,0.6935993432998657
2024-12-07 16:21:17.038599200,9.42359912109375,-0.106150209903717,-0.0757923126220703,0.8279122710227966
2024-12-07 16:21:17.048627000,9.433626953125,0.2174358367919922,-0.1632947921752929,1.0669970512390137
2024-12-07 16:21:17.058654700,9.44365478515625,0.4564695954322815,-0.222264289855957,1.1947827339172363
2024-12-07 16:21:17.068682500,9.4536826171875,0.6094561219215393,-0.3149633407592773,1.153855800628662
2024-12-07 16:21:17.078710300,9.463710205078126,0.556638240814209,-0.3696680068969726,1.0160260200500488
2024-12-07 16:21:17.088738000,9.473738037109374,0.3666239380836487,-0.4580059051513672,0.9433073401451112
2024-12-07 16:21:17.098765800,9.483765869140624,0.3365935683250427,-0.6085014343261719,0.757850706577301
2024-12-07 16:21:17.108793600,9.493793701171874,0.3212419152259826,-0.6730375289916992,0.5314648747444153
2024-12-07 16:21:17.118821400,9.5038212890625,0.0435592532157897,-0.5706424713134766,0.310722291469574
2024-12-07 16:21:17.128849200,9.51384912109375,-0.1603340208530426,-0.4306259155273437,-0.2032807916402816
2024-12-07 16:21:17.138877000,9.523876953125,-0.3901968598365783,-0.2291269302368164,-0.4913500547409057
2024-12-07 16:21:17.148904700,9.53390478515625,-0.5964020490646362,-0.0951433181762695,-0.5874803066253662
2024-12-07 16:21:17.158932200,9.54393212890625,-0.6821385622024536,-0.0570859909057617,-0.5546205639839172
2024-12-07 16:21:17.168960000,9.5539599609375,-0.5421428084373474,-0.0048351287841796,-0.5891778469085693
2024-12-07 16:21:17.178987800,9.56398779296875,-0.3533498644828796,0.257425308227539,-0.6431313753128052
2024-12-07 16:21:17.189015600,9.574015625,-0.0444198250770568,0.5907011032104492,-1.0916746854782104
2024-12-07 16:21:17.199043300,9.584043212890624,0.1208187937736511,0.966205596923828,-1.4965972900390625
2024-12-07 16:21:17.209071000,9.594071044921876,0.1773805618286132,1.0974044799804688,-1.7562294006347656
2024-12-07 16:21:17.219099000,9.604098876953126,0.1076828837394714,1.0040826797485352,-1.7237341403961182
2024-12-07 16:21:17.229126700,9.614126708984376,0.1710022091865539,0.5053062438964844,-1.83599853515625
2024-12-07 16:21:17.239154400,9.624154541015624,0.1463110446929931,0.0271615982055664,-1.8052725791931152
2024-12-07 16:21:17.249182200,9.63418212890625,0.12974214553833,-0.3921928405761719,-1.6416910886764526
2024-12-07 16:21:17.259210000,9.6442099609375,0.3968745172023773,-0.8151121139526367,-1.44172203540802
2024-12-07 16:21:17.269237800,9.65423779296875,0.7621597051620483,-1.0411376953125,-1.2004228830337524
2024-12-07 16:21:17.279265500,9.664265625,1.0374417304992676,-0.956195831298828,-0.8176001310348511
2024-12-07 16:21:17.289293300,9.674293212890625,1.21918785572052,-0.7187252044677734,-0.229520559310913
2024-12-07 16:21:17.299321000,9.684321044921877,1.4512964487075806,-0.4868097305297851,0.3020369708538055
2024-12-07 16:21:17.309348900,9.694348876953123,1.7043616771697998,-0.3035192489624023,0.6552307605743408
2024-12-07 16:21:17.319376600,9.704376708984377,1.9384198188781736,-0.197484016418457,0.7532272338867188
2024-12-07 16:21:17.329404200,9.714404052734375,1.9858280420303345,-0.1637725830078125,0.8015998601913452
2024-12-07 16:21:17.339432000,9.724431884765623,1.9766720533370967,-0.3120384216308594,0.5717934370040894
2024-12-07 16:21:17.349459700,9.734459716796875,1.9120793342590328,-0.5366621017456055,0.4151407778263092
2024-12-07 16:21:17.359487500,9.744487548828126,1.7880641222000122,-0.8517475128173828,0.1794487237930297
2024-12-07 16:21:17.369515300,9.754515380859376,1.680781602859497,-1.1997051239013672,-0.1998323053121566
2024-12-07 16:21:17.379542800,9.764542724609376,1.4559868574142456,-1.4657211303710938,-0.6431103944778442
2024-12-07 16:21:17.389570600,9.774570556640626,1.090534210205078,-1.496922492980957,-1.2128772735595703
2024-12-07 16:21:17.399598300,9.784598388671874,0.6635685563087463,-1.2889289855957031,-1.4777987003326416
2024-12-07 16:21:17.409626000,9.794626220703124,0.2750667333602905,-0.9090394973754884,-1.6262421607971191
2024-12-07 16:21:17.419653600,9.804653564453124,0.3767715990543365,-0.5724906921386719,-1.659130573272705
2024-12-07 16:21:17.429681400,9.814681396484374,0.9914973974227904,-0.3749475479125976,-1.5100809335708618
2024-12-07 16:21:17.439709200,9.824709228515625,1.4016857147216797,-0.2354421615600586,-1.1241590976715088
2024-12-07 16:21:17.449736700,9.83473681640625,1.5880976915359497,-0.1444549560546875,-1.072805881500244
2024-12-07 16:21:17.459764500,9.844764404296876,1.6598012447357178,0.0465059280395507,-1.0985064506530762
2024-12-07 16:21:17.469792300,9.854792236328125,0.6793758273124695,0.8475971221923828,-0.2542886734008789
2024-12-07 16:21:17.479820000,9.864820068359377,-2.102208137512207,1.6114377975463867,1.055313229560852
2024-12-07 16:21:17.489847600,9.87484765625,-3.738124370574951,2.382286548614502,0.4728324711322784
2024-12-07 16:21:17.499875300,9.884875244140623,-3.7327475547790527,2.880746841430664,-1.3261282444000244
2024-12-07 16:21:17.509903000,9.894903076171875,-0.5668805837631226,2.7739181518554688,-3.486197233200073
2024-12-07 16:21:17.519931000,9.904930908203124,3.3258285522460938,2.061159133911133,-4.391061782836914
2024-12-07 16:21:17.529958400,9.91495849609375,4.147592544555664,0.7705726623535156,-3.868494749069214
2024-12-07 16:21:17.539986200,9.924986083984376,3.63804030418396,-0.3227434158325195,-3.8244166374206543
2024-12-07 16:21:17.550014000,9.935013916015626,1.248701095581055,-0.9993171691894532,-2.330462694168091
2024-12-07 16:21:17.560041700,9.945041748046876,-2.2910819053649902,-1.1779117584228516,0.0165394507348537
2024-12-07 16:21:17.570069200,9.9550693359375,-3.076998949050904,-1.2976207733154297,1.690799355506897
2024-12-07 16:21:17.580097000,9.965096923828124,-1.3069177865982056,-1.1770963668823242,2.5055575370788574
2024-12-07 16:21:17.590124800,9.975124755859374,-0.3884620070457458,-0.7364568710327148,2.1936402320861816
2024-12-07 16:21:17.600152600,9.985152587890624,-0.7873446941375732,-0.4498376846313476,1.5317548513412476
2024-12-07 16:21:17.610180000,9.99518017578125,-1.1835472583770752,-0.4025726318359375,1.3305189609527588
2024-12-07 16:21:17.620207900,10.005207763671876,-0.825073778629303,-0.3932647705078125,1.086738348007202
2024-12-07 16:21:17.630235600,10.015235595703125,0.0944170951843261,-0.4601278305053711,0.5082403421401978
2024-12-07 16:21:17.640263200,10.02526318359375,0.9772030115127563,-0.6511983871459961,-0.1034716963768005
2024-12-07 16:21:17.650291000,10.035291015625,1.5627752542495728,-0.8184213638305664,-0.637726902961731
2024-12-07 16:21:17.660318700,10.045318603515623,2.092752695083618,-0.8953580856323242,-1.0330883264541626
2024-12-07 16:21:17.670346500,10.055346435546875,2.5279273986816406,-0.844822883605957,-1.1609504222869873
2024-12-07 16:21:17.680374000,10.0653740234375,2.436488151550293,-0.6675662994384766,-1.0393232107162476
2024-12-07 16:21:17.690401800,10.07540185546875,1.8757561445236208,-0.4257965087890625,-0.781017005443573
2024-12-07 16:21:17.700429600,10.0854296875,1.1192985773086548,-0.2052850723266601,-0.2133539319038391
2024-12-07 16:21:17.710457300,10.095457275390626,0.4996687173843384,0.004500389099121,0.6655523180961609
2024-12-07 16:21:17.720484900,10.10548486328125,0.4829506874084472,0.2424812316894531,1.429569125175476
2024-12-07 16:21:17.730512600,10.1155126953125,0.806209921836853,0.5561399459838867,1.8648812770843504
2024-12-07 16:21:17.740540400,10.12554052734375,0.8915404081344604,0.9115390777587892,2.078073501586914
2024-12-07 16:21:17.750568200,10.135568115234374,0.5579952001571655,1.217876434326172,1.992760419845581
2024-12-07 16:21:17.760595700,10.145595703125,0.2730954885482788,1.4184846878051758,1.8966538906097408
2024-12-07 16:21:17.770623500,10.15562353515625,0.1664049625396728,1.532815933227539,1.5284326076507568
2024-12-07 16:21:17.780651300,10.1656513671875,-0.0437495708465576,1.642298698425293,1.282470703125
2024-12-07 16:21:17.790678800,10.1756787109375,0.07283616065979,1.713608741760254,1.0852000713348389
2024-12-07 16:21:17.800706600,10.18570654296875,0.0284734964370727,1.7708139419555664,0.6582471132278442
2024-12-07 16:21:17.810734300,10.195734375,-0.6157249212265015,1.7718095779418943,0.181402638554573
2024-12-07 16:21:17.820762000,10.20576220703125,-1.342902421951294,1.7423925399780271,-0.2790656983852386
2024-12-07 16:21:17.830789600,10.21578955078125,-1.3836513757705688,1.8366355895996096,-0.726915180683136
2024-12-07 16:21:17.840817400,10.2258173828125,-0.7616264820098877,1.9820442199707031,-0.9709047079086304
2024-12-07 16:21:17.850845200,10.23584521484375,-0.177932858467102,2.129274845123291,-1.0032392740249634
2024-12-07 16:21:17.860873000,10.245873046875,-0.1337623596191406,2.372814655303955,-1.149243712425232
2024-12-07 16:21:17.870900500,10.255900390625,-0.2624440193176269,2.601927757263184,-1.291329860687256
2024-12-07 16:21:17.880928300,10.26592822265625,-0.1260131597518921,2.7111072540283203,-1.3017195463180542
2024-12-07 16:21:17.890956000,10.2759560546875,0.1284866333007812,2.384809970855713,-1.1640334129333496
2024-12-07 16:21:17.900983800,10.28598388671875,0.0971559286117553,1.3705806732177734,-0.8139144778251648
2024-12-07 16:21:17.911011300,10.29601123046875,-0.1606062650680542,-0.6399574279785156,0.0826223939657211
2024-12-07 16:21:17.921039000,10.3060390625,-0.2503798007965088,-3.605618476867676,1.3263555765151978
2024-12-07 16:21:17.931067000,10.31606689453125,0.0323096513748168,-7.146749496459961,2.0308258533477783
2024-12-07 16:21:17.941094700,10.3260947265625,0.5070134401321411,-10.063546180725098,2.4055471420288086
2024-12-07 16:21:17.951122200,10.3361220703125,1.051037073135376,-10.381457328796388,2.340245246887207
2024-12-07 16:21:17.961150000,10.34614990234375,1.6272624731063845,-7.667896270751953,1.199432134628296
2024-12-07 16:21:17.971177700,10.356177734375,0.6868243217468262,-3.257452964782715,-0.2872968018054962
2024-12-07 16:21:17.981205200,10.366205322265625,-1.716508865356445,0.2447919845581054,0.6448010802268982
2024-12-07 16:21:17.991233000,10.37623291015625,-2.681011199951172,2.853679656982422,1.8126823902130127
2024-12-07 16:21:18.001260800,10.3862607421875,-2.09926700592041,4.843380928039551,2.441728115081787
2024-12-07 16:21:18.011288600,10.39628857421875,-1.348292112350464,5.926196098327637,2.7303109169006348
2024-12-07 16:21:18.021316000,10.406316162109375,-1.8517732620239256,5.716012954711914,2.5098795890808105
2024-12-07 16:21:18.031343900,10.41634375,-2.587852478027344,4.508300304412842,1.9698834419250488
2024-12-07 16:21:18.041371600,10.42637158203125,-2.1154470443725586,3.0841660499572754,1.1158596277236938
2024-12-07 16:21:18.051399400,10.4363994140625,-1.256447672843933,1.4187755584716797,0.3592996001243591
2024-12-07 16:21:18.061427000,10.446427001953126,-1.0112426280975342,-0.0194120407104492,-0.4917762577533722
2024-12-07 16:21:18.071454700,10.456454833984376,-0.8240673542022705,-1.1200790405273438,-1.0455098152160645
2024-12-07 16:21:18.081482500,10.466482421875,-0.6001188158988953,-1.8687629699707031,-1.2188447713851929
2024-12-07 16:21:18.091510300,10.47651025390625,-0.4668360948562622,-2.2132625579833984,-1.1190059185028076
2024-12-07 16:21:18.101537800,10.486537841796874,-0.2064588069915771,-2.2790660858154297,-0.6914081573486328
2024-12-07 16:21:18.111565600,10.496565673828124,-0.005401611328125,-2.034193992614746,-0.479966938495636
2024-12-07 16:21:18.121593300,10.50659326171875,-0.2219278812408447,-1.613255500793457,-0.0996376276016235
2024-12-07 16:21:18.131621000,10.51662109375,-0.4121224880218506,-1.1500625610351562,0.3883606195449829
2024-12-07 16:21:18.141648600,10.526648681640625,-0.5194270014762878,-0.6020011901855469,0.8643010854721069
2024-12-07 16:21:18.151676400,10.536676513671877,-0.8795064091682434,-0.1319417953491211,1.3857084512710571
2024-12-07 16:21:18.161704200,10.5467041015625,-1.257469654083252,0.3080577850341797,1.6052191257476809
2024-12-07 16:21:18.171731700,10.556731689453123,-1.4097976684570312,0.5604400634765625,1.9853956699371336
2024-12-07 16:21:18.181759500,10.566759521484377,-1.099624752998352,0.6923770904541016,2.237789869308472
2024-12-07 16:21:18.191787300,10.576787353515623,-0.440207839012146,0.7134609222412109,2.0597822666168213
2024-12-07 16:21:18.201815000,10.58681494140625,-0.0977112054824829,0.542658805847168,1.3772094249725342
2024-12-07 16:21:18.211842600,10.596842529296875,-0.2081219553947448,0.1950550079345703,0.4293642342090606
2024-12-07 16:21:18.221870300,10.606870361328124,-0.1796029210090637,-0.084878921508789,-0.4450907707214355
2024-12-07 16:21:18.231898000,10.616898193359376,0.1311272382736206,-0.2255887985229492,-1.143802523612976
2024-12-07 16:21:18.241926000,10.62692578125,0.3585293292999267,-0.3183660507202148,-1.7247493267059326
2024-12-07 16:21:18.251953400,10.636953369140626,0.2866111993789673,-0.3204641342163086,-2.1120498180389404
2024-12-07 16:21:18.261981200,10.646981201171876,0.1503045558929443,-0.2702970504760742,-2.325655698776245
2024-12-07 16:21:18.272009000,10.657009033203124,-0.0205436944961547,-0.1631288528442382,-2.152424573898315
2024-12-07 16:21:18.282036700,10.66703662109375,-0.0912129878997802,-0.0324897766113281,-1.8820184469223025
2024-12-07 16:21:18.292064300,10.677064208984374,0.1253308057785034,0.0022306442260742,-1.801821112632752
2024-12-07 16:21:18.302092000,10.687092041015624,0.3371410965919494,0.0081844329833984,-1.7519514560699463
2024-12-07 16:21:18.312119800,10.697119873046876,0.34878671169281,-0.0049123764038085,-1.648703932762146
2024-12-07 16:21:18.322147300,10.707147216796876,0.2218582034111023,0.0298414230346679,-1.5752248764038086
2024-12-07 16:21:18.332175000,10.717175048828125,-0.1714140176773071,0.0981254577636718,-1.3053895235061646
2024-12-07 16:21:18.342202600,10.72720263671875,-0.4942759871482849,0.1426639556884765,-0.945814609527588
2024-12-07 16:21:18.352230400,10.73723046875,-0.5940439105033875,0.1348190307617187,-0.5931535363197327
2024-12-07 16:21:18.362258000,10.7472578125,-0.6432738900184631,0.1319704055786132,-0.1916300505399704
2024-12-07 16:21:18.372285700,10.75728564453125,-0.6330447196960449,0.0432424545288085,0.1659311652183532
2024-12-07 16:21:18.382313200,10.767313232421875,-0.5354475975036621,0.0072412490844726,0.6013153195381165
2024-12-07 16:21:18.392341000,10.777341064453124,-0.2567929327487945,0.0237073898315429,0.488836407661438
2024-12-07 16:21:18.402368800,10.78736865234375,-0.2240952551364898,-0.0126724243164062,0.7469110488891602
2024-12-07 16:21:18.412396300,10.797396240234375,-0.2452530264854431,0.0367660522460937,0.6906690001487732
2024-12-07 16:21:18.422424000,10.807424072265626,-0.2476108372211456,0.0668134689331054,0.6514335870742798
2024-12-07 16:21:18.432451600,10.81745166015625,-0.1215095520019531,-0.0084037780761718,0.4261033535003662
2024-12-07 16:21:18.442479400,10.827479248046876,-0.1343271434307098,0.0550241470336914,0.4026386141777038
2024-12-07 16:21:18.452507000,10.8375068359375,-0.2092047929763794,0.0513944625854492,0.2230497598648071
2024-12-07 16:21:18.462534700,10.84753466796875,-0.350153386592865,0.0144119262695312,0.090420514345169
2024-12-07 16:21:18.472562200,10.857562255859374,-0.4552722573280334,-0.1465330123901367,0.4579973518848419
2024-12-07 16:21:18.482590000,10.86758984375,-0.2045375108718872,-0.2258558273315429,0.7672624588012695
2024-12-07 16:21:18.492617500,10.877617431640624,0.0606929957866668,-0.3242082595825195,0.9255788922309875
2024-12-07 16:21:18.502645200,10.887645263671876,0.2244556844234466,-0.5085201263427734,0.998826503753662
2024-12-07 16:21:18.512672800,10.8976728515625,0.2480142414569854,-0.7022218704223633,1.0004520416259766
2024-12-07 16:21:18.522700500,10.907700439453125,0.1951144337654113,-0.7380495071411133,0.7879331111907959
2024-12-07 16:21:18.532728000,10.91772802734375,0.2344274222850799,-0.6688137054443359,0.5604289770126343
2024-12-07 16:21:18.542755800,10.927755859375,0.5913654565811157,-0.5616455078125,0.5133126974105835
2024-12-07 16:21:18.552783600,10.93778369140625,1.1261852979660034,-0.4501962661743164,0.3576163947582245
2024-12-07 16:21:18.562811100,10.94781103515625,1.6801837682724,-0.4445037841796875,0.5208019614219666
2024-12-07 16:21:18.572839000,10.9578388671875,2.1840128898620605,-0.5446891784667969,0.2083057463169098
2024-12-07 16:21:18.582866400,10.967866455078124,2.630603790283203,-0.5928516387939453,-0.8076109886169434
2024-12-07 16:21:18.592894200,10.977894287109375,2.729390382766724,-0.5793352127075195,-1.7823963165283203
2024-12-07 16:21:18.602921700,10.987921630859375,2.0650198459625244,-0.5565185546875,-2.475818634033203
2024-12-07 16:21:18.612949500,10.997949462890626,0.6388909816741943,-0.6959619522094727,-2.887864828109741
2024-12-07 16:21:18.622977000,11.00797705078125,-0.6753418445587158,-0.8821659088134766,-2.748454570770264
2024-12-07 16:21:18.633004800,11.0180048828125,-0.4824871718883514,-1.067124366760254,-2.009222507476806
2024-12-07 16:21:18.643032300,11.0280322265625,0.978730857372284,-1.518972396850586,-1.0233871936798096
2024-12-07 16:21:18.653060000,11.03806005859375,1.3126152753829956,-1.7029809951782229,-0.306253582239151
2024-12-07 16:21:18.663087600,11.048087646484374,1.3477038145065308,-1.5194787979125977,-0.5879117250442505
2024-12-07 16:21:18.673115400,11.058115478515624,2.171526432037353,-1.1222000122070312,-0.653196394443512
2024-12-07 16:21:18.683143000,11.068142822265624,2.3108103275299072,-0.6367559432983398,-0.4902960956096649
2024-12-07 16:21:18.693170700,11.078170654296876,0.713679313659668,-0.0307369232177734,-0.326492577791214
2024-12-07 16:21:18.703198500,11.088198486328125,-1.2982912063598633,0.4905376434326172,-0.3877260982990265
2024-12-07 16:21:18.713226000,11.09822607421875,-2.263742208480835,0.9383602142333984,-1.0111143589019775
2024-12-07 16:21:18.723253800,11.108253662109377,-2.004186630249023,1.286334991455078,-2.3755416870117188
2024-12-07 16:21:18.733281300,11.11828125,0.3354732990264892,1.6314668655395508,-4.355677604675293
2024-12-07 16:21:18.743309000,11.12830908203125,1.8779507875442505,1.676591873168945,-4.736146926879883
2024-12-07 16:21:18.753336600,11.138336669921877,2.114795207977295,1.3443279266357422,-3.874411821365357
2024-12-07 16:21:18.763364400,11.1483642578125,1.1748462915420532,0.8880758285522461,-2.7515764236450195
2024-12-07 16:21:18.773392000,11.158391845703123,-0.0285581350326538,0.6192903518676758,-1.4467134475708008
2024-12-07 16:21:18.783419600,11.168419677734375,-0.800287127494812,0.3604698181152344,0.3375959992408752
2024-12-07 16:21:18.793447200,11.178447265625,-1.9227771759033203,0.5028409957885742,2.026795148849488
2024-12-07 16:21:18.803475000,11.188474853515626,-3.0225415229797363,0.7403984069824219,2.626383304595948
2024-12-07 16:21:18.813502700,11.198502685546876,-3.6201987266540527,0.6203880310058594,2.3992764949798584
2024-12-07 16:21:18.823530500,11.208530517578126,-3.3633501529693604,0.1400337219238281,2.206662893295288
2024-12-07 16:21:18.833558000,11.21855810546875,-2.182906150817871,-0.413055419921875,2.601731061935425
2024-12-07 16:21:18.843585800,11.228585693359374,-0.4748026132583618,-0.7578086853027344,2.853358268737793
2024-12-07 16:21:18.853613600,11.238613525390624,0.8939564228057861,-0.9677734375,2.8204166889190674
2024-12-07 16:21:18.863641300,11.248641357421874,1.720144510269165,-1.01092529296875,2.594247341156006
2024-12-07 16:21:18.873668900,11.2586689453125,2.155336380004883,-0.8068428039550781,1.99812126159668
2024-12-07 16:21:18.883696600,11.268696533203125,2.530787229537964,-0.5376777648925781,1.2604440450668335
2024-12-07 16:21:18.893724400,11.278724365234376,2.745366334915161,-0.3232812881469726,0.2892919778823852
2024-12-07 16:21:18.903752200,11.288752197265625,2.440739631652832,-0.2114648818969726,-0.8422281742095947
2024-12-07 16:21:18.913779700,11.29877978515625,1.9549856185913088,-0.1205682754516601,-1.7353715896606443
2024-12-07 16:21:18.923807500,11.308807373046877,1.3151179552078247,0.0738534927368164,-2.0834243297576904
2024-12-07 16:21:18.933835300,11.318835205078123,0.4305499792098999,0.4436407089233398,-2.036801338195801
2024-12-07 16:21:18.943863000,11.328863037109375,-0.6827530264854431,0.8171443939208984,-1.409532070159912
2024-12-07 16:21:18.953890600,11.338890625,-1.4834659099578855,1.123676300048828,-0.7528380155563354
2024-12-07 16:21:18.963918300,11.34891845703125,-1.7775204181671145,1.3642311096191406,-0.1176177263259887
2024-12-07 16:21:18.973946000,11.358946044921876,-1.2235565185546875,1.5580768585205078,0.1745975315570831
2024-12-07 16:21:18.983973600,11.3689736328125,-0.1915850639343261,1.6139144897460938,0.3941775560379028
2024-12-07 16:21:18.994001400,11.37900146484375,0.6726434230804443,1.459829330444336,0.5656603574752808
2024-12-07 16:21:19.004029200,11.389029296875,1.2179104089736938,1.3203105926513672,0.5351971983909607
2024-12-07 16:21:19.014057000,11.399056884765624,1.385746955871582,1.4529008865356443,0.2473942935466766
2024-12-07 16:21:19.024084500,11.40908447265625,1.0013723373413086,1.6898412704467771,-0.1368127763271331
2024-12-07 16:21:19.034112300,11.4191123046875,0.3565999269485473,1.7592105865478516,-0.5413249135017395
2024-12-07 16:21:19.044140000,11.42914013671875,0.0462045669555664,1.671269416809082,-0.9667057394981384
2024-12-07 16:21:19.054167800,11.439167724609376,-0.0294234752655029,1.3359403610229492,-1.3555879592895508
2024-12-07 16:21:19.064195300,11.4491953125,0.0261620283126831,0.8020401000976562,-1.6244745254516602
2024-12-07 16:21:19.074223000,11.45922314453125,-0.039467453956604,0.2947969436645508,-2.0432729721069336
2024-12-07 16:21:19.084251000,11.4692509765625,0.2365846633911132,-0.0140056610107421,-2.2221970558166504
2024-12-07 16:21:19.094278700,11.479278564453123,0.7117635011672974,-0.1541194915771484,-1.870824098587036
2024-12-07 16:21:19.104306200,11.48930615234375,1.1987563371658323,-0.2750272750854492,-1.2463650703430176
2024-12-07 16:21:19.114334000,11.499333984375,1.3401362895965576,-0.5303421020507812,-0.5257932543754578
2024-12-07 16:21:19.124361700,11.50936181640625,1.1186931133270264,-0.7905731201171875,-0.0648360550403595
2024-12-07 16:21:19.134389200,11.51938916015625,0.940688967704773,-1.011977195739746,0.2051215320825576
2024-12-07 16:21:19.144417000,11.5294169921875,1.1844923496246338,-1.2756500244140625,0.432290643453598
2024-12-07 16:21:19.154444500,11.539444580078126,1.5556236505508425,-1.7108182907104492,0.6259382367134094
2024-12-07 16:21:19.164472300,11.549472412109376,1.6401032209396362,-2.2602453231811523,0.8101423978805542
2024-12-07 16:21:19.174499800,11.559499755859376,1.2033824920654297,-2.613401412963867,0.9567202925682068
2024-12-07 16:21:19.184527600,11.569527587890626,0.3673838376998901,-2.6559457778930664,1.0338178873062134
2024-12-07 16:21:19.194555400,11.579555419921874,-0.405922532081604,-2.244955062866211,1.080810546875
2024-12-07 16:21:19.204583000,11.5895830078125,-1.0563106536865234,-1.366680145263672,1.090912938117981
2024-12-07 16:21:19.214610700,11.599610595703124,-1.4153043031692505,-0.3419990539550781,1.281977891921997
2024-12-07 16:21:19.224638200,11.60963818359375,-1.9417988061904907,0.6903142929077148,1.7897636890411377
