time,seconds_elapsed,z,y,x
2024-12-07 16:03:40.563521800,0.158521728515625,0.0620298385620117,0.2165193557739257,-0.0426309034228324
2024-12-07 16:03:40.573465000,0.168465087890625,0.0931435823440551,0.1543941497802734,-0.0511185452342033
2024-12-07 16:03:40.583446800,0.17844677734375,0.0788336992263794,-0.0153436660766601,-0.0938276126980781
2024-12-07 16:03:40.593467400,0.18846728515625,0.2779639959335327,0.5217418670654297,-0.1851602792739868
2024-12-07 16:03:40.603524900,0.19852490234375,0.0458680391311645,-0.0214529037475585,-0.2109995484352111
2024-12-07 16:03:40.613617400,0.208617431640625,-0.062659740447998,-0.0904531478881836,-0.0003309175372123
2024-12-07 16:03:40.623740400,0.218740478515625,-0.1783002614974975,-0.0837335586547851,-0.1591890156269073
2024-12-07 16:03:40.633889000,0.228888916015625,-0.1620815992355346,0.188084602355957,-0.2019358873367309
2024-12-07 16:03:40.644057600,0.2390576171875,-0.0482051372528076,0.784576416015625,-0.4653246998786926
2024-12-07 16:03:40.654239200,0.2492392578125,0.4028468132019043,0.6713809967041016,-0.473902016878128
2024-12-07 16:03:40.664427800,0.259427734375,-0.1244478225708007,-0.2806930541992187,-0.1315009742975235
2024-12-07 16:03:40.674615000,0.269614990234375,-0.2552998065948486,-0.1115198135375976,0.2633362412452698
2024-12-07 16:03:40.684642600,0.279642578125,0.3676995038986206,0.7991533279418945,0.8537988066673279
2024-12-07 16:03:40.694670000,0.289670166015625,0.1663405895233154,0.7000226974487305,0.923450767993927
2024-12-07 16:03:40.704697600,0.299697509765625,-0.4627331495285034,0.0747213363647461,-0.0857931748032569
2024-12-07 16:03:40.714725000,0.30972509765625,-0.2097005844116211,-0.0837221145629882,-0.5771296620368958
2024-12-07 16:03:40.724752600,0.319752685546875,-0.2623530626296997,-0.0384292602539062,-0.5241098403930664
2024-12-07 16:03:40.734780000,0.32977978515625,-0.7729188203811646,-0.063812255859375,-0.1428259015083313
2024-12-07 16:03:40.744807400,0.339807373046875,-0.852331280708313,0.0644607543945312,0.0815274715423584
2024-12-07 16:03:40.754835000,0.3498349609375,-0.9227160811424256,0.0038776397705078,0.1254052221775055
2024-12-07 16:03:40.764862500,0.359862548828125,-0.960992991924286,-0.3365850448608398,0.2662941217422485
2024-12-07 16:03:40.774890000,0.369889892578125,-0.9964478015899658,-0.4204778671264648,0.4759506285190582
2024-12-07 16:03:40.784917500,0.37991748046875,-1.1328517198562622,-0.5200309753417969,0.274518221616745
2024-12-07 16:03:40.794945000,0.389945068359375,-0.745356559753418,-0.8394031524658203,0.1717729270458221
2024-12-07 16:03:40.804972500,0.39997265625,0.133919358253479,-0.3228654861450195,-0.3499637544155121
2024-12-07 16:03:40.815000000,0.41,0.4153729677200317,-0.2448711395263672,-0.3004891872406006
2024-12-07 16:03:40.825027600,0.420027587890625,0.66004478931427,0.0446376800537109,-0.3675853013992309
2024-12-07 16:03:40.835055000,0.43005517578125,0.8742315769195557,1.1834430694580078,-1.0557876825332642
2024-12-07 16:03:40.845082600,0.44008251953125,1.1373083591461182,1.724135398864746,-1.356474757194519
2024-12-07 16:03:40.855110100,0.450110107421875,1.1573323011398315,0.3388223648071289,-0.8062088489532471
2024-12-07 16:03:40.865137400,0.460137451171875,1.1182503700256348,-0.1856813430786132,-0.268179178237915
2024-12-07 16:03:40.875165000,0.4701650390625,0.8830697536468506,-0.1510763168334961,0.802246630191803
2024-12-07 16:03:40.885192400,0.4801923828125,0.8629323244094849,-0.0474157333374023,1.1786725521087646
2024-12-07 16:03:40.895220000,0.490219970703125,0.9023407697677612,-0.1616773605346679,0.9577175378799438
2024-12-07 16:03:40.905247500,0.50024755859375,0.5607813596725464,-0.3018398284912109,0.8334829807281494
2024-12-07 16:03:40.915275000,0.51027490234375,0.3756413459777832,0.0246744155883789,0.3218357861042022
2024-12-07 16:03:40.925302500,0.520302490234375,0.4122158288955688,0.1011476516723632,-0.1530219912528991
2024-12-07 16:03:40.935330000,0.530330078125,0.7220896482467651,0.2558116912841797,-0.4067726731300354
2024-12-07 16:03:40.945357600,0.540357666015625,0.5887333154678345,0.5431785583496094,-0.9515770673751832
2024-12-07 16:03:40.955385000,0.550385009765625,0.4168342351913452,0.8674774169921875,-1.411976337432861
2024-12-07 16:03:40.965412600,0.56041259765625,0.5750677585601807,-0.0718011856079101,-1.1417124271392822
2024-12-07 16:03:40.975440100,0.570440185546875,0.5406830310821533,-0.9697132110595704,-0.5176256895065308
2024-12-07 16:03:40.985467600,0.580467529296875,0.2112250328063964,-1.7009735107421875,0.5982469320297241
2024-12-07 16:03:40.995495000,0.590494873046875,-0.4156472682952881,-1.8692874908447263,0.6179061532020569
2024-12-07 16:03:41.005522400,0.6005224609375,-0.6899267435073853,-1.2965240478515625,-0.4146155714988708
2024-12-07 16:03:41.015550000,0.610550048828125,-0.6635215282440186,-0.6584243774414062,-2.0208098888397217
2024-12-07 16:03:41.025577500,0.620577392578125,0.5190887451171875,-0.083348274230957,-2.282559394836426
2024-12-07 16:03:41.035605000,0.63060498046875,0.2593123912811279,1.309213638305664,-2.2070202827453613
2024-12-07 16:03:41.045632500,0.640632568359375,-0.8320361971855164,1.1585397720336914,-2.452679395675659
2024-12-07 16:03:41.055660000,0.650659912109375,-1.4447633028030396,1.1379270553588867,-2.275319576263428
2024-12-07 16:03:41.065687600,0.6606875,-1.3727083206176758,1.5503063201904297,-2.172513961791992
2024-12-07 16:03:41.075715000,0.670715087890625,-0.7761218547821045,2.18031644821167,-2.015047073364258
2024-12-07 16:03:41.085742600,0.68074267578125,-0.5264354944229126,3.41482162475586,-2.5250818729400635
2024-12-07 16:03:41.095770000,0.69077001953125,0.3520146012306213,4.442174911499023,-2.428176164627075
2024-12-07 16:03:41.105797600,0.700797607421875,0.4863601326942444,3.394559860229492,-1.884427547454834
2024-12-07 16:03:41.115825200,0.7108251953125,-1.8908095359802248,1.2036008834838867,-2.0929598808288574
2024-12-07 16:03:41.125852400,0.720852294921875,-3.639141321182251,0.4128265380859375,-2.2104134559631348
2024-12-07 16:03:41.135880000,0.7308798828125,-3.4045557975769043,-0.565826416015625,-0.5839662551879883
2024-12-07 16:03:41.145907500,0.740907470703125,-3.100069999694824,-1.9472618103027344,0.7607291340827942
2024-12-07 16:03:41.155935000,0.75093505859375,-1.7231276035308838,-5.197851181030273,2.012091398239136
2024-12-07 16:03:41.165962500,0.76096240234375,-0.7154865860939026,-7.658283233642578,4.477597713470459
2024-12-07 16:03:41.175990000,0.770989990234375,-0.061253547668457,-7.299571990966797,6.08937406539917
2024-12-07 16:03:41.186017500,0.781017578125,1.2304999828338623,-5.662271499633789,6.202141761779785
2024-12-07 16:03:41.196044800,0.791044921875,2.014878511428833,-5.394410133361816,7.716980934143066
2024-12-07 16:03:41.206072300,0.801072265625,2.3612539768218994,-4.008605003356934,6.324367046356201
2024-12-07 16:03:41.216099800,0.811099853515625,2.583314895629883,-2.941899299621582,3.269460201263428
2024-12-07 16:03:41.226127400,0.82112744140625,1.6841118335723877,-2.1814002990722656,0.8303414583206177
2024-12-07 16:03:41.236154600,0.831154541015625,0.8638865351676941,-2.0390443801879883,0.5041880011558533
2024-12-07 16:03:41.246182100,0.84118212890625,0.3967565298080444,-1.5690832138061523,0.9645321369171144
2024-12-07 16:03:41.256209700,0.851209716796875,0.2656554579734802,-1.075395584106445,1.076708436012268
2024-12-07 16:03:41.266237200,0.8612373046875,-0.0639510750770568,0.136845588684082,-0.087171196937561
2024-12-07 16:03:41.276264400,0.871264404296875,-0.352084219455719,0.6814384460449219,-0.8775986433029175
2024-12-07 16:03:41.286292000,0.8812919921875,-0.4806599617004394,0.4294080734252929,-0.6118507385253906
2024-12-07 16:03:41.296319500,0.891319580078125,-0.6065348982810974,0.2469797134399414,-0.3894689083099365
2024-12-07 16:03:41.306346800,0.9013466796875,-1.4101617336273191,0.0284996032714843,-1.412611722946167
2024-12-07 16:03:41.316374300,0.911374267578125,-0.6931770443916321,-0.2363777160644531,-0.0926110744476318
2024-12-07 16:03:41.326401800,0.92140185546875,1.8012326955795288,0.9301042556762696,0.3402996063232422
2024-12-07 16:03:41.336429300,0.93142919921875,0.8762450218200684,2.724806308746338,-1.141523003578186
2024-12-07 16:03:41.346456600,0.94145654296875,-0.2717468440532684,2.722177505493164,-1.7177232503890991
2024-12-07 16:03:41.356484000,0.951484130859375,-0.3962322175502777,1.8995361328125,-1.1498943567276
2024-12-07 16:03:41.366511600,0.96151171875,-0.1842365711927414,0.8913345336914062,-0.1680124998092651
2024-12-07 16:03:41.376539000,0.971538818359375,-0.0705297291278839,-0.1108055114746093,0.6303892731666565
2024-12-07 16:03:41.386566400,0.98156640625,-0.0443377196788787,-0.5336627960205078,0.6404858827590942
2024-12-07 16:03:41.396594000,0.991593994140625,-0.4896087944507599,-0.5115175247192383,-0.1101526021957397
2024-12-07 16:03:41.406621400,1.001621337890625,-1.3616310358047483,-0.3760910034179687,-0.6769740581512451
2024-12-07 16:03:41.416648700,1.011648681640625,-1.8173184394836424,-0.2232322692871093,-0.809780478477478
2024-12-07 16:03:41.426676200,1.02167626953125,-1.9272204637527464,-0.0009565353393554,-0.7549622058868408
2024-12-07 16:03:41.436703700,1.031703857421875,-1.6763389110565186,0.1809568405151367,-0.556543231010437
2024-12-07 16:03:41.446731000,1.04173095703125,-1.254346489906311,0.2282638549804687,-0.1746481657028198
2024-12-07 16:03:41.456758500,1.051758544921875,-0.7685704231262207,0.2514810562133789,0.0747063159942627
2024-12-07 16:03:41.466786000,1.0617861328125,-0.3306951820850372,0.3030214309692383,0.2633942365646362
2024-12-07 16:03:41.476813600,1.0718134765625,-0.0981968790292739,0.3447885513305664,0.2914893627166748
2024-12-07 16:03:41.486841000,1.081841064453125,-0.0792080163955688,0.3104543685913086,0.1609464883804321
2024-12-07 16:03:41.496868400,1.091868408203125,-0.1711840033531189,0.2671070098876953,-0.0076806545257568
2024-12-07 16:03:41.506896000,1.101895751953125,-0.3479510843753814,0.2669534683227539,-0.1944794654846191
2024-12-07 16:03:41.516923400,1.11192333984375,-0.3993618488311767,0.181497573852539,-0.3040978908538818
2024-12-07 16:03:41.526951000,1.121950927734375,-0.3883084654808044,0.0068311691284179,-0.4087400436401367
2024-12-07 16:03:41.536978400,1.131978515625,-0.3862797617912292,-0.0902023315429687,-0.4468487501144409
2024-12-07 16:03:41.547006000,1.142005859375,-0.3779748678207397,-0.2667951583862304,-0.4005112648010254
2024-12-07 16:03:41.557033500,1.152033447265625,-0.1924152970314026,-0.4748725891113281,-0.2841981649398803
2024-12-07 16:03:41.567061000,1.16206103515625,-0.0552040785551071,-0.5576715469360352,-0.0033282041549682
2024-12-07 16:03:41.577088500,1.172088623046875,-0.0372525155544281,-0.4498882293701172,0.3314316272735595
2024-12-07 16:03:41.587116000,1.182115966796875,0.0138145387172698,-0.3572778701782226,0.7244075536727905
2024-12-07 16:03:41.597143600,1.1921435546875,0.0392201691865921,-0.345977783203125,1.0695233345031738
2024-12-07 16:03:41.607171000,1.202171142578125,0.1483547687530517,-0.4151325225830078,1.1955199241638184
2024-12-07 16:03:41.617198600,1.212198486328125,0.415867805480957,-0.3504152297973633,0.9568961262702942
2024-12-07 16:03:41.627225900,1.222225830078125,0.5349021553993225,-0.1768035888671875,0.6087371110916138
2024-12-07 16:03:41.637253400,1.23225341796875,0.3359018564224243,0.0525922775268554,0.1707758903503418
2024-12-07 16:03:41.647281000,1.242281005859375,0.0328112542629241,0.2517595291137695,-0.2840030193328857
2024-12-07 16:03:41.657308400,1.252308349609375,-0.2382199913263321,0.3829183578491211,-0.545711874961853
2024-12-07 16:03:41.667336000,1.2623359375,-0.3573592901229858,0.5368976593017578,-0.6396323442459106
2024-12-07 16:03:41.677363500,1.272363525390625,-0.444624125957489,0.6234130859375,-0.7055985927581787
2024-12-07 16:03:41.687391000,1.282390869140625,-0.5614781379699707,0.5670795440673828,-0.7012815475463867
2024-12-07 16:03:41.697418500,1.29241845703125,-0.4902554750442505,0.4925765991210937,-0.7417027950286865
2024-12-07 16:03:41.707446000,1.302446044921875,-0.3626828193664551,0.4237394332885742,-0.8075040578842163
2024-12-07 16:03:41.717473500,1.3124736328125,-0.3222289681434631,0.3177137374877929,-0.879281759262085
2024-12-07 16:03:41.727501000,1.3225009765625,-0.2582562267780304,0.1367406845092773,-0.966149926185608
2024-12-07 16:03:41.737528600,1.332528564453125,-0.1660229116678238,-0.0521373748779296,-1.0250043869018557
2024-12-07 16:03:41.747555800,1.342555908203125,-0.0882954224944114,-0.1634712219238281,-1.0601143836975098
2024-12-07 16:03:41.757583400,1.352583251953125,0.0033095329999923,-0.150517463684082,-1.0183830261230469
2024-12-07 16:03:41.767611000,1.36261083984375,0.0940128117799758,-0.0666046142578125,-0.9187324047088624
2024-12-07 16:03:41.777638400,1.372638427734375,0.1121588051319122,-0.0216245651245117,-0.6898746490478516
2024-12-07 16:03:41.787666000,1.382666015625,0.0820461064577102,0.0132045745849609,-0.4418323040008545
2024-12-07 16:03:41.797693400,1.392693359375,0.0323967784643173,-0.0238037109375,-0.2793720960617065
2024-12-07 16:03:41.807721000,1.402720947265625,-0.0696261674165725,-0.0845537185668945,-0.1069819927215576
2024-12-07 16:03:41.817748500,1.41274853515625,-0.0801900401711463,-0.1449775695800781,0.0079294443130493
2024-12-07 16:03:41.827776000,1.42277587890625,0.0094246715307235,-0.2050065994262695,0.0795110464096069
2024-12-07 16:03:41.837803500,1.432803466796875,0.1832655966281891,-0.2788143157958984,0.1073218584060669
2024-12-07 16:03:41.847831000,1.4428310546875,0.3586497902870178,-0.2284412384033203,0.062929630279541
2024-12-07 16:03:41.857858600,1.452858642578125,0.4489153027534485,-0.0975627899169921,-0.0294951200485229
2024-12-07 16:03:41.867886000,1.462885986328125,0.3407100141048431,0.0609321594238281,-0.1789206266403198
2024-12-07 16:03:41.877913300,1.472913330078125,0.1460997462272644,0.1612129211425781,-0.3082526922225952
2024-12-07 16:03:41.887940900,1.48294091796875,-0.0330427289009094,0.1323575973510742,-0.3317388296127319
2024-12-07 16:03:41.897968400,1.492968505859375,-0.167070984840393,0.0512685775756835,-0.2398897409439087
2024-12-07 16:03:41.907996000,1.502995849609375,-0.2653186619281769,-0.0579214096069335,0.0141512155532836
2024-12-07 16:03:41.918023400,1.5130234375,-0.2326583564281463,-0.0569877624511718,0.2619248628616333
2024-12-07 16:03:41.928051000,1.523051025390625,-0.1268164217472076,0.0725221633911132,0.4213808178901672
2024-12-07 16:03:41.938078500,1.533078369140625,-0.0575645416975021,0.1824283599853515,0.4732650518417358
2024-12-07 16:03:41.948106000,1.54310595703125,-0.0625423043966293,0.2158689498901367,0.465355634689331
2024-12-07 16:03:41.958133500,1.553133544921875,-0.0843902677297592,0.1686716079711914,0.3213253021240234
2024-12-07 16:03:41.968161000,1.5631611328125,-0.1519411355257034,0.0935859680175781,0.1187887191772461
2024-12-07 16:03:41.978188500,1.5731884765625,-0.2200695276260376,0.0284385681152343,-0.0502655506134033
2024-12-07 16:03:41.988216000,1.583216064453125,-0.1918704211711883,0.0162734985351562,-0.1562608480453491
2024-12-07 16:03:41.998243600,1.59324365234375,-0.0605827793478965,0.0937786102294921,-0.1855207681655883
2024-12-07 16:03:42.008270800,1.603270751953125,0.1192458644509315,0.1935148239135742,-0.1345016956329345
2024-12-07 16:03:42.018298400,1.61329833984375,0.3359672427177429,0.2868938446044922,-0.0991058349609375
2024-12-07 16:03:42.028326000,1.623325927734375,0.4710110425949096,0.2515974044799804,-0.1261451244354248
2024-12-07 16:03:42.038353400,1.633353515625,0.5171219706535339,0.1274309158325195,-0.22858726978302
2024-12-07 16:03:42.048381000,1.643380859375,0.547197699546814,-0.0417633056640625,-0.3578792810440063
2024-12-07 16:03:42.058408400,1.653408447265625,0.5148594975471497,-0.1799125671386718,-0.5180790424346924
2024-12-07 16:03:42.068436000,1.66343603515625,0.3554251194000244,-0.2593011856079101,-0.6755130290985107
2024-12-07 16:03:42.078463500,1.67346337890625,0.0911074429750442,-0.2997665405273437,-0.8156672716140747
2024-12-07 16:03:42.088491000,1.683490966796875,-0.0872210636734962,-0.3207645416259765,-0.8824023008346558
2024-12-07 16:03:42.098518500,1.6935185546875,-0.2610496282577514,-0.2755670547485351,-0.9190233945846558
2024-12-07 16:03:42.108545800,1.7035458984375,-0.3881437182426452,-0.1841917037963867,-0.9865455627441406
2024-12-07 16:03:42.118573300,1.7135732421875,-0.521392822265625,-0.1558132171630859,-0.9658361673355104
2024-12-07 16:03:42.128600800,1.723600830078125,-0.6082579493522644,-0.1753311157226562,-0.8576763868331909
2024-12-07 16:03:42.138628400,1.73362841796875,-0.5268458724021912,-0.1619071960449218,-0.6635380983352661
2024-12-07 16:03:42.148655600,1.743655517578125,-0.2617823779582977,-0.026534080505371,-0.3810725212097168
2024-12-07 16:03:42.158683100,1.75368310546875,-0.0296627879142761,0.0783052444458007,-0.1268148422241211
2024-12-07 16:03:42.168710700,1.763710693359375,0.1041346192359924,0.0591068267822265,0.0277376174926757
2024-12-07 16:03:42.178738200,1.77373828125,0.1183126419782638,-0.0443010330200195,0.0410602092742919
2024-12-07 16:03:42.188765400,1.783765380859375,0.1559188067913055,-0.1881475448608398,-0.0562303066253662
2024-12-07 16:03:42.198793000,1.79379296875,0.1251563727855682,-0.3482942581176758,-0.2192840576171875
2024-12-07 16:03:42.208820500,1.803820556640625,-0.133560225367546,-0.4163074493408203,-0.3233368396759033
2024-12-07 16:03:42.218847700,1.81384765625,-0.5153276920318604,-0.3326101303100586,-0.2789798974990845
2024-12-07 16:03:42.228875300,1.823875244140625,-0.7425576448440552,-0.1374588012695312,-0.1729387044906616
2024-12-07 16:03:42.238902800,1.83390283203125,-0.7929474711418152,0.0448827743530273,0.1440989375114441
2024-12-07 16:03:42.248930300,1.843930419921875,-0.5895545482635498,0.0734567642211914,0.4886314272880554
2024-12-07 16:03:42.258957600,1.85395751953125,-0.2980964481830597,0.0074176788330078,0.8074570894241333
2024-12-07 16:03:42.268985000,1.863985107421875,0.0595331043004989,-0.1138935089111328,1.0671265125274658
2024-12-07 16:03:42.279012600,1.8740126953125,0.4096856415271759,-0.2141284942626953,1.1689703464508057
2024-12-07 16:03:42.289040000,1.884039794921875,0.6826599836349487,-0.3255720138549804,1.0906511545181274
2024-12-07 16:03:42.299067400,1.8940673828125,0.8108410239219666,-0.3933591842651367,0.9393813610076904
2024-12-07 16:03:42.309095000,1.904094970703125,0.8614450097084045,-0.3892107009887695,0.7590243816375732
2024-12-07 16:03:42.319122400,1.914122314453125,0.8208747506141663,-0.3469200134277344,0.5265260934829712
2024-12-07 16:03:42.329149700,1.924149658203125,0.8136065006256104,-0.2953824996948242,0.3196003437042236
2024-12-07 16:03:42.339177200,1.93417724609375,0.8630911707878113,-0.2204046249389648,0.1862515211105346
2024-12-07 16:03:42.349204700,1.944204833984375,0.8548940420150757,-0.079228401184082,0.0780550241470336
2024-12-07 16:03:42.359232000,1.95423193359375,0.8176799416542053,0.1658782958984375,0.0568577647209167
2024-12-07 16:03:42.369259500,1.964259521484375,0.5658986568450928,0.4477338790893554,0.1450167894363403
2024-12-07 16:03:42.379287000,1.974287109375,0.231008380651474,0.6041851043701172,0.060642123222351
2024-12-07 16:03:42.389314600,1.984314453125,-0.1887129247188568,0.6120090484619141,0.0053181052207946
2024-12-07 16:03:42.399341800,1.994341796875,-0.5464591979980469,0.5101261138916016,-0.0404046773910522
2024-12-07 16:03:42.409369300,2.004369384765625,-0.6596523523330688,0.3277215957641601,-0.1813146471977234
2024-12-07 16:03:42.419396900,2.01439697265625,-0.5337638854980469,0.0842504501342773,-0.3400067090988159
2024-12-07 16:03:42.429424000,2.024424072265625,-0.2759946286678314,-0.134251594543457,-0.4777740836143493
2024-12-07 16:03:42.439451600,2.03445166015625,-0.0980292633175849,-0.2802648544311523,-0.5473012924194336
2024-12-07 16:03:42.449479200,2.044479248046875,-0.0242957323789596,-0.430368423461914,-0.5922357439994812
2024-12-07 16:03:42.459506700,2.054506591796875,0.0258012562990188,-0.5226106643676758,-0.6604814529418945
2024-12-07 16:03:42.469534000,2.064533935546875,-0.0579039677977561,-0.4858503341674804,-0.6895654797554016
2024-12-07 16:03:42.479561500,2.0745615234375,-0.2069344222545623,-0.3350419998168945,-0.7217116355895996
2024-12-07 16:03:42.489589000,2.084589111328125,-0.263050228357315,-0.2089204788208007,-0.6944920420646667
2024-12-07 16:03:42.499616300,2.0946162109375,-0.2081466317176818,-0.1454925537109375,-0.6078282594680786
2024-12-07 16:03:42.509643800,2.104643798828125,-0.1389133632183075,-0.111088752746582,-0.3573850393295288
2024-12-07 16:03:42.519671300,2.11467138671875,-0.156477689743042,-0.1055221557617187,-0.0309920907020568
2024-12-07 16:03:42.529698800,2.12469873046875,-0.1649977415800094,-0.1238412857055664,0.2319367527961731
2024-12-07 16:03:42.539726000,2.13472607421875,-0.0539285540580749,-0.1515846252441406,0.5549627542495728
2024-12-07 16:03:42.549753600,2.144753662109375,0.1799422353506088,-0.0981483459472656,0.7700661420822144
2024-12-07 16:03:42.559781000,2.154781005859375,0.4007712006568908,0.0121898651123046,0.8446164727210999
2024-12-07 16:03:42.569808600,2.16480859375,0.6415011286735535,0.1314678192138672,0.9462662935256958
2024-12-07 16:03:42.579836000,2.1748359375,0.8788279294967651,0.3931007385253906,0.926722288131714
2024-12-07 16:03:42.589863400,2.184863525390625,1.0925451517105105,0.6390800476074219,0.9300426244735718
2024-12-07 16:03:42.599891000,2.194890869140625,0.900218665599823,0.8456296920776367,0.8784596920013428
2024-12-07 16:03:42.609918200,2.204918212890625,0.5232499837875366,1.1034479141235352,0.6009299755096436
2024-12-07 16:03:42.619945700,2.21494580078125,-0.0689024627208709,1.1072711944580078,0.3425999581813812
2024-12-07 16:03:42.629973200,2.22497314453125,-0.5567230582237244,1.015702247619629,0.1040634512901306
2024-12-07 16:03:42.640000800,2.235000732421875,-0.8533831834793091,0.8530693054199219,-0.0993477702140808
2024-12-07 16:03:42.650028000,2.245028076171875,-1.0402305126190186,0.5816049575805664,-0.2432542890310287
2024-12-07 16:03:42.660055600,2.2550556640625,-1.1549228429794312,0.3591594696044922,-0.3273218274116516
2024-12-07 16:03:42.670083000,2.2650830078125,-1.172680139541626,0.1999073028564453,-0.261366993188858
2024-12-07 16:03:42.680110300,2.2751103515625,-0.9752116203308104,0.1274003982543945,-0.2134151011705398
2024-12-07 16:03:42.690137900,2.285137939453125,-0.7460556030273438,0.1030445098876953,-0.2879025340080261
2024-12-07 16:03:42.700165400,2.295165283203125,-0.3389116525650024,0.088414192199707,-0.3883981704711914
2024-12-07 16:03:42.710193000,2.30519287109375,0.0910028219223022,0.1644020080566406,-0.5139992237091064
2024-12-07 16:03:42.720220200,2.31522021484375,0.4712637662887573,0.2304544448852539,-0.6117499470710754
2024-12-07 16:03:42.730247700,2.32524755859375,0.8734722137451172,0.2866048812866211,-0.7051069736480713
2024-12-07 16:03:42.740275200,2.335275146484375,1.46844220161438,0.4758749008178711,-0.6842302083969116
2024-12-07 16:03:42.750302500,2.345302490234375,1.5873314142227173,0.6207609176635742,-0.4126616716384887
2024-12-07 16:03:42.760330000,2.355330078125,0.7698449492454529,0.7166414260864258,-0.521461009979248
2024-12-07 16:03:42.770357500,2.365357421875,1.0201550722122192,0.7211227416992188,-0.9106804728507996
2024-12-07 16:03:42.780385000,2.375385009765625,1.7842469215393066,0.6865739822387695,-0.863071084022522
2024-12-07 16:03:42.790412500,2.38541259765625,1.8716825246810915,0.3647022247314453,-0.3922472298145294
2024-12-07 16:03:42.800439800,2.395439697265625,0.7257922291755676,0.0754308700561523,0.0490950644016265
2024-12-07 16:03:42.810467300,2.40546728515625,-0.8942868709564209,-0.1142082214355468,-0.1163398623466491
2024-12-07 16:03:42.820494800,2.415494873046875,-1.4791334867477417,-0.2559871673583984,-0.47743621468544
2024-12-07 16:03:42.830522400,2.4255224609375,-1.115054726600647,-0.2681989669799804,-0.7110027074813843
2024-12-07 16:03:42.840550000,2.4355498046875,0.303657054901123,-0.2991600036621094,-0.9771463871002196
2024-12-07 16:03:42.850577400,2.445577392578125,2.302619457244873,-0.455082893371582,-1.0753791332244873
2024-12-07 16:03:42.860605000,2.45560498046875,3.2130582332611084,-0.8328838348388672,-0.8101000785827637
2024-12-07 16:03:42.870632400,2.465632568359375,2.2286808490753174,-0.8455352783203125,-0.7629633545875549
2024-12-07 16:03:42.880660000,2.475659912109375,0.4204204082489013,-0.8601388931274414,-0.5191271305084229
2024-12-07 16:03:42.890687500,2.4856875,-1.1257113218307495,-0.9314146041870116,-0.0207192301750183
2024-12-07 16:03:42.900715000,2.495715087890625,-1.2059499025344849,-0.9245824813842772,0.3533549010753631
2024-12-07 16:03:42.910742500,2.505742431640625,-0.809706449508667,-0.9643383026123048,0.8491736650466919
2024-12-07 16:03:42.920770000,2.51577001953125,-0.7524949908256531,-0.993178367614746,1.243292212486267
2024-12-07 16:03:42.930797300,2.52579736328125,-1.0131458044052124,-0.9294757843017578,1.5097646713256836
2024-12-07 16:03:42.940824800,2.535824951171875,-1.2027935981750488,-0.7445802688598633,1.4493284225463867
2024-12-07 16:03:42.950852400,2.545852294921875,-0.9418176412582396,-0.4394168853759765,1.018641471862793
2024-12-07 16:03:42.960879900,2.5558798828125,-0.6212538480758667,-0.1345119476318359,0.6137773990631104
2024-12-07 16:03:42.970907400,2.565907470703125,-0.7842488288879395,0.0555429458618164,0.4191290140151977
2024-12-07 16:03:42.980935000,2.575934814453125,-0.8390779495239258,0.2220754623413086,0.4236176013946533
2024-12-07 16:03:42.990962400,2.58596240234375,-0.4762454032897949,0.3554725646972656,0.3850560784339905
2024-12-07 16:03:43.000990000,2.595989990234375,-0.1620987653732299,0.3555402755737304,0.7258518934249878
2024-12-07 16:03:43.011017500,2.606017578125,0.2643700838088989,0.494211196899414,0.4112943410873413
2024-12-07 16:03:43.021045000,2.616044921875,0.6008222103118896,0.317352294921875,0.6948795318603516
2024-12-07 16:03:43.031072500,2.626072509765625,0.8358360528945923,0.164830207824707,1.0310784578323364
2024-12-07 16:03:43.041100000,2.63610009765625,1.015498161315918,0.0936079025268554,1.1410517692565918
2024-12-07 16:03:43.051127600,2.64612744140625,1.0714260339736938,0.0937690734863281,0.9324583411216736
2024-12-07 16:03:43.061154800,2.65615478515625,1.0170422792434692,0.1267499923706054,0.5913859009742737
2024-12-07 16:03:43.071182300,2.666182373046875,0.9238779544830322,0.1351022720336914,0.3472325205802917
2024-12-07 16:03:43.081209900,2.6762099609375,0.8112657070159912,0.1951589584350586,-0.2432901859283447
2024-12-07 16:03:43.091237400,2.6862373046875,0.6721014976501465,0.1444454193115234,-1.0693562030792236
2024-12-07 16:03:43.101265000,2.696264892578125,0.6614601612091064,-0.0546865463256835,-1.4784058332443235
2024-12-07 16:03:43.111292400,2.70629248046875,0.5707459449768066,-0.2442512512207031,-1.7841919660568235
2024-12-07 16:03:43.121319700,2.716319580078125,0.5134313106536865,-0.4142656326293945,-1.708713173866272
2024-12-07 16:03:43.131347200,2.72634716796875,0.91618013381958,-0.4982948303222656,-1.3608720302581787
2024-12-07 16:03:43.141374700,2.736374755859375,0.9179775714874268,-0.52117919921875,-0.9367655515670776
2024-12-07 16:03:43.151402200,2.74640234375,0.6485846042633057,-0.41619873046875,-0.6487936973571777
2024-12-07 16:03:43.161429500,2.756429443359375,0.4299492835998535,-0.2168989181518554,-0.3678954839706421
2024-12-07 16:03:43.171457000,2.76645703125,0.2853970527648926,-0.0332889556884765,-0.0711474418640136
2024-12-07 16:03:43.181484500,2.776484619140625,0.1961507797241211,0.2160053253173828,0.031007170677185
2024-12-07 16:03:43.191511800,2.78651171875,0.1958844661712646,0.4639625549316406,0.1260275840759277
2024-12-07 16:03:43.201539300,2.796539306640625,0.1515734195709228,0.6677513122558594,0.2146631479263305
2024-12-07 16:03:43.211566800,2.80656689453125,0.1660084724426269,0.627863883972168,0.5922050476074219
2024-12-07 16:03:43.221594400,2.816594482421875,0.3853781223297119,0.6931867599487305,0.6989851593971252
2024-12-07 16:03:43.231621600,2.82662158203125,0.2621183395385742,0.7197628021240234,0.925392210483551
2024-12-07 16:03:43.241649200,2.836649169921875,-0.4277632236480713,0.895146369934082,0.9875103235244752
2024-12-07 16:03:43.251676700,2.8466767578125,-1.093181610107422,0.9005317687988281,1.1276661157608032
2024-12-07 16:03:43.261704000,2.856703857421875,-1.3212289810180664,0.8986310958862305,1.1363681554794312
2024-12-07 16:03:43.271731500,2.8667314453125,-1.0954930782318115,0.8129673004150391,1.066141128540039
2024-12-07 16:03:43.281759000,2.876759033203125,-0.6121006011962891,0.6817474365234375,0.8702252507209778
2024-12-07 16:03:43.291786500,2.886786376953125,-0.2865495681762695,0.6143512725830078,0.4214164018630981
2024-12-07 16:03:43.301813800,2.896813720703125,-0.1470532417297363,0.6531085968017578,-0.0626574754714965
2024-12-07 16:03:43.311841300,2.90684130859375,0.0799331665039062,0.6351985931396484,-0.4265543222427368
2024-12-07 16:03:43.321868800,2.916868896484375,0.2876052856445312,0.5267238616943359,-0.506932258605957
2024-12-07 16:03:43.331896000,2.92689599609375,0.3177211284637451,0.4995594024658203,-0.3335105180740356
2024-12-07 16:03:43.341923600,2.936923583984375,0.1960818767547607,0.5683021545410156,-0.0752887725830078
2024-12-07 16:03:43.351951000,2.946951171875,0.0013666152954101,0.6281862258911133,-0.0620306730270385
2024-12-07 16:03:43.361978600,2.956978515625,-0.1174013614654541,0.5313167572021484,-0.2056909799575805
2024-12-07 16:03:43.372006000,2.967005859375,-0.1745743751525879,0.4069318771362304,-0.2040203809738159
2024-12-07 16:03:43.382033400,2.977033447265625,-0.0509877204895019,0.2933788299560547,-0.0817848443984985
2024-12-07 16:03:43.392061000,2.98706103515625,0.2711749076843261,0.1286821365356445,0.1494257450103759
2024-12-07 16:03:43.402088200,2.997088134765625,0.4270908832550049,0.0369129180908203,0.3877044916152954
2024-12-07 16:03:43.412115700,3.00711572265625,0.3265914916992187,0.0656042098999023,0.5180404186248779
2024-12-07 16:03:43.422143200,3.017143310546875,0.0531730651855468,0.1382970809936523,0.5985188484191895
2024-12-07 16:03:43.432170800,3.027170654296875,-0.0948727130889892,0.1934347152709961,0.7953917384147644
2024-12-07 16:03:43.442198000,3.037197998046875,0.1694190502166748,0.1242876052856445,0.79280024766922
2024-12-07 16:03:43.452225500,3.0472255859375,0.414924144744873,0.0400123596191406,0.81898432970047
2024-12-07 16:03:43.462253000,3.057253173828125,0.4931592941284179,-0.0066194534301757,0.7335450649261475
2024-12-07 16:03:43.472280300,3.0672802734375,0.5507619380950928,-0.0582075119018554,0.4954668283462524
2024-12-07 16:03:43.482307800,3.077307861328125,0.7183840274810791,-0.1812982559204101,0.1778779029846191
2024-12-07 16:03:43.492335400,3.08733544921875,0.9040818214416504,-0.2614679336547851,-0.2469048500061035
2024-12-07 16:03:43.502363000,3.09736279296875,0.9250831604003906,-0.2421636581420898,-0.6005977392196655
2024-12-07 16:03:43.512390100,3.10739013671875,0.7674739360809326,-0.1477184295654297,-0.7157567739486694
2024-12-07 16:03:43.522417700,3.117417724609375,0.5478808879852295,-0.0445718765258789,-0.432308554649353
2024-12-07 16:03:43.532445200,3.127445068359375,0.2913928031921386,0.0679359436035156,0.0503661632537841
2024-12-07 16:03:43.542472700,3.13747265625,0.1696565151214599,0.1806821823120117,0.5569911003112793
2024-12-07 16:03:43.552500000,3.1475,0.181821584701538,0.3036355972290039,0.9844558238983154
2024-12-07 16:03:43.562527500,3.157527587890625,0.2033820152282714,0.3512506484985351,1.101762294769287
2024-12-07 16:03:43.572555000,3.167554931640625,0.1446218490600586,0.228581428527832,1.0288803577423096
2024-12-07 16:03:43.582582300,3.177582275390625,0.0345044136047363,-0.0402288436889648,0.8822234272956848
2024-12-07 16:03:43.592609800,3.18760986328125,-0.0892083644866943,-0.421849250793457,0.6926249265670776
2024-12-07 16:03:43.602637300,3.19763720703125,-0.2118000984191894,-0.8590269088745117,0.4530317783355713
2024-12-07 16:03:43.612664800,3.207664794921875,-0.2076508998870849,-1.2421140670776367,0.0383700132369995
2024-12-07 16:03:43.622692000,3.217692138671875,-0.1903674602508545,-1.4667434692382812,-0.3647971153259277
2024-12-07 16:03:43.632719600,3.2277197265625,0.0778210163116455,-1.4814949035644531,-0.5868984460830688
2024-12-07 16:03:43.642747100,3.2377470703125,0.2974982261657715,-1.2494659423828125,-0.5850898027420044
2024-12-07 16:03:43.652774400,3.2477744140625,0.2819154262542724,-0.7810297012329102,-0.3366615772247314
2024-12-07 16:03:43.662802000,3.257802001953125,0.2416232824325561,-0.2293081283569336,-0.0739322900772094
2024-12-07 16:03:43.672829400,3.267829345703125,0.1803542375564575,0.3195667266845703,0.2348307371139526
2024-12-07 16:03:43.682857000,3.27785693359375,0.0370224714279174,0.7898426055908203,0.7683383822441101
2024-12-07 16:03:43.692884200,3.28788427734375,-0.0256776809692382,1.0869054794311523,1.2598679065704346
2024-12-07 16:03:43.702911700,3.297911865234375,-0.0817244052886962,1.1446151733398438,1.5199741125106812
2024-12-07 16:03:43.712939300,3.307939208984375,-0.098962664604187,0.9588689804077148,1.505431890487671
2024-12-07 16:03:43.722966500,3.317966552734375,0.0182753801345825,0.4923334121704101,1.517548441886902
2024-12-07 16:03:43.732994000,3.327994140625,0.1125645637512207,-0.0201196670532226,1.35080885887146
2024-12-07 16:03:43.743021600,3.338021484375,-0.0678908824920654,-0.3635940551757812,0.8879580497741699
2024-12-07 16:03:43.753049000,3.348049072265625,-0.4851869344711303,-0.5385494232177734,0.1386555433273315
2024-12-07 16:03:43.763076400,3.358076416015625,-0.9103183150291444,-0.4930095672607422,-0.8051949739456177
2024-12-07 16:03:43.773103900,3.368103759765625,-1.292884111404419,-0.3233814239501953,-1.5511327981948853
2024-12-07 16:03:43.783131400,3.37813134765625,-1.398747205734253,-0.0876264572143554,-1.7250772714614868
2024-12-07 16:03:43.793158700,3.38815869140625,-1.225736141204834,0.0373487472534179,-1.216398000717163
2024-12-07 16:03:43.803186200,3.398186279296875,-0.892236053943634,-0.0244674682617187,-0.4182251691818237
2024-12-07 16:03:43.813213700,3.408213623046875,-0.5925801992416382,-0.2579917907714844,0.2864624261856079
2024-12-07 16:03:43.823241200,3.4182412109375,-0.3912616968154907,-0.4477348327636719,0.6793792843818665
2024-12-07 16:03:43.833268500,3.4282685546875,-0.2324055433273315,-0.4840936660766601,0.8414403200149536
2024-12-07 16:03:43.843296000,3.4382958984375,-0.2832077741622925,-0.3817043304443359,0.8440513610839844
2024-12-07 16:03:43.853323500,3.448323486328125,-0.4312798976898193,-0.112070083618164,0.7024880647659302
2024-12-07 16:03:43.863351000,3.45835107421875,-0.5467531085014343,0.1715097427368164,0.4849184155464172
2024-12-07 16:03:43.873378300,3.46837841796875,-0.4769549369812011,0.3590841293334961,0.2351493835449218
2024-12-07 16:03:43.883405800,3.47840576171875,-0.2388279438018798,0.4026985168457031,-0.0120959281921386
2024-12-07 16:03:43.893433300,3.488433349609375,-0.0114163160324096,0.2546358108520508,-0.2464135885238647
2024-12-07 16:03:43.903460600,3.498460693359375,0.0230649709701538,0.0249509811401367,-0.4854086637496948
2024-12-07 16:03:43.913488100,3.508488037109375,-0.1946462392807006,-0.2288484573364257,-0.7264038324356079
2024-12-07 16:03:43.923515600,3.518515625,-0.3928010463714599,-0.4015445709228515,-0.9374665021896362
2024-12-07 16:03:43.933543200,3.528543212890625,-0.4691185355186462,-0.3930797576904297,-0.9636666774749756
2024-12-07 16:03:43.943570400,3.5385703125,-0.6993901133537292,-0.2132482528686523,-0.7391066551208496
2024-12-07 16:03:43.953598000,3.548597900390625,-0.9772310256958008,0.0375747680664062,-0.5577391386032104
2024-12-07 16:03:43.963625500,3.55862548828125,-1.3306316137313845,0.3976154327392578,-0.3683062791824341
2024-12-07 16:03:43.973652700,3.56865283203125,-1.5447108745574951,0.6184272766113281,-0.2392787933349609
2024-12-07 16:03:43.983680300,3.57868017578125,-1.6592202186584473,0.6956691741943359,-0.0432538986206054
2024-12-07 16:03:43.993707800,3.588707763671875,-1.5887035131454468,0.5345115661621094,0.1981371641159057
2024-12-07 16:03:44.003735300,3.5987353515625,-1.3062667846679688,0.2311458587646484,0.4498649835586548
2024-12-07 16:03:44.013762600,3.608762451171875,-0.7961373329162598,-0.2285833358764648,0.4436793327331543
2024-12-07 16:03:44.023790000,3.6187900390625,-0.4340488314628601,-0.5773477554321289,0.2534234523773193
2024-12-07 16:03:44.033817600,3.628817626953125,-0.2524362802505493,-0.6819915771484375,0.178018569946289
2024-12-07 16:03:44.043844900,3.638844970703125,0.1312036514282226,-0.7247838973999023,0.0798537731170654
2024-12-07 16:03:44.053872400,3.648872314453125,0.2901291847229004,-0.5293569564819336,0.1788747310638427
2024-12-07 16:03:44.063900000,3.65889990234375,0.3312070369720459,-0.2727956771850586,0.3161993026733398
2024-12-07 16:03:44.073927400,3.668927490234375,0.3410730361938476,-0.0601930618286132,0.4291296005249023
2024-12-07 16:03:44.083954700,3.67895458984375,0.3057433366775512,0.1087293624877929,0.6028287410736084
2024-12-07 16:03:44.093982200,3.688982177734375,0.3409001231193542,0.1244945526123046,0.7025048732757568
2024-12-07 16:03:44.104009700,3.699009765625,0.4593652486801147,0.0542268753051757,0.6712143421173096
2024-12-07 16:03:44.114037000,3.709037109375,0.3357748389244079,0.0604114532470703,0.5910162329673767
2024-12-07 16:03:44.124064500,3.719064453125,-0.0095766186714172,0.0759391784667968,0.3577576279640198
2024-12-07 16:03:44.134092000,3.729092041015625,-0.3743211627006531,0.0625362396240234,0.0782055854797363
2024-12-07 16:03:44.144119600,3.73911962890625,-0.7138965129852295,0.0776309967041015,-0.1081961393356323
2024-12-07 16:03:44.154146800,3.749146728515625,-0.9358357191085817,0.111703872680664,-0.2345914840698242
2024-12-07 16:03:44.164174300,3.75917431640625,-1.033293604850769,0.1936979293823242,-0.3306455612182617
2024-12-07 16:03:44.174201900,3.769201904296875,-0.9953210353851318,0.2377967834472656,-0.4833383560180664
2024-12-07 16:03:44.184229400,3.7792294921875,-0.7234344482421875,0.1388378143310547,-0.940556526184082
2024-12-07 16:03:44.194256600,3.789256591796875,-0.4165386855602264,-0.0410518646240234,-1.2137640714645386
2024-12-07 16:03:44.204284200,3.7992841796875,-0.0571232438087463,-0.2159252166748047,-1.2455309629440308
2024-12-07 16:03:44.214311700,3.809311767578125,0.1780243515968322,-0.2664642333984375,-1.03611958026886
2024-12-07 16:03:44.224339000,3.8193388671875,0.3175917863845825,-0.2645387649536133,-0.7208515405654907
2024-12-07 16:03:44.234366500,3.829366455078125,0.4322367906570434,-0.2579450607299804,-0.3779619932174682
2024-12-07 16:03:44.244394000,3.83939404296875,0.5442631840705872,-0.2895050048828125,-0.0240049362182617
2024-12-07 16:03:44.254421500,3.84942138671875,0.5982723236083984,-0.3449478149414062,0.2069611549377441
2024-12-07 16:03:44.264448800,3.85944873046875,0.3661628365516662,-0.3332300186157226,0.5864496231079102
2024-12-07 16:03:44.274476300,3.869476318359375,0.2611571550369262,-0.3211555480957031,0.6166931986808777
2024-12-07 16:03:44.284503600,3.879503662109375,0.1584633588790893,-0.2325267791748047,0.5292860269546509
2024-12-07 16:03:44.294531000,3.889531005859375,0.0534581542015075,-0.1248970031738281,0.3631522059440613
2024-12-07 16:03:44.304558300,3.899558349609375,-0.1771809458732605,0.030196189880371,0.1582307815551757
2024-12-07 16:03:44.314585900,3.9095859375,-0.3404268622398376,0.103672981262207,-0.0605033636093139
2024-12-07 16:03:44.324613000,3.919613037109375,-0.5639157891273499,0.1100625991821289,-0.2299895286560058
2024-12-07 16:03:44.334640600,3.929640625,-0.6210123896598816,0.1022014617919921,-0.3741135597229004
2024-12-07 16:03:44.344668000,3.93966796875,-0.5795693397521973,0.0609607696533203,-0.5119205713272095
2024-12-07 16:03:44.354695400,3.9496953125,-0.5118309855461121,-0.0852165222167968,-0.6723287105560303
2024-12-07 16:03:44.364722700,3.95972265625,-0.5099849700927734,-0.2453842163085937,-0.7170159816741943
2024-12-07 16:03:44.374750200,3.969750244140625,-0.3936144113540649,-0.3766384124755859,-0.6412471532821655
2024-12-07 16:03:44.384777500,3.979777587890625,-0.2491772174835205,-0.4120779037475586,-0.4128751754760742
2024-12-07 16:03:44.394805000,3.989804931640625,-0.0484967231750488,-0.351877212524414,-0.2861988544464111
2024-12-07 16:03:44.404832300,3.999832275390625,0.0932706594467163,-0.1532678604125976,-0.0941870212554931
2024-12-07 16:03:44.414859800,4.00985986328125,0.4092217683792114,-0.0936365127563476,-0.1096265316009521
2024-12-07 16:03:44.424887000,4.019886962890625,0.3863663673400879,-0.0773143768310546,-0.1016819477081298
2024-12-07 16:03:44.434914600,4.02991455078125,0.1998282074928283,-0.118316650390625,0.0532183647155761
2024-12-07 16:03:44.444941800,4.03994189453125,0.2002816200256347,-0.1684761047363281,0.0618481636047363
2024-12-07 16:03:44.454969300,4.04996923828125,0.1760857105255127,-0.251805305480957,-0.1797550916671753
2024-12-07 16:03:44.464996600,4.05999658203125,-0.0393480658531188,-0.2537164688110351,-0.3591943979263305
2024-12-07 16:03:44.475024100,4.070024169921875,-0.2292479276657104,-0.1886816024780273,-0.4908033609390259
2024-12-07 16:03:44.485051400,4.080051513671875,-0.4263595342636108,-0.0568780899047851,-0.5599466562271118
2024-12-07 16:03:44.495079000,4.090078857421875,-0.3198052644729614,-0.0447444915771484,-0.6956630945205688
2024-12-07 16:03:44.505106200,4.100106201171875,-0.1517558693885803,0.0245113372802734,-0.7440459728240967
2024-12-07 16:03:44.515133700,4.1101337890625,-0.132207453250885,0.1938438415527343,-0.5246387720108032
2024-12-07 16:03:44.525161000,4.120160888671875,0.0448454618453979,0.3054866790771484,-0.4212974309921264
2024-12-07 16:03:44.535188500,4.1301884765625,0.177264004945755,0.3881959915161133,-0.3717797994613647
2024-12-07 16:03:44.545215700,4.1402158203125,0.2748256921768188,0.3656539916992187,-0.3332651257514953
2024-12-07 16:03:44.555243300,4.1502431640625,0.3457043170928955,0.3382568359375,-0.3620408177375793
2024-12-07 16:03:44.565270800,4.160270751953125,0.240248441696167,0.2358551025390625,-0.2350251078605651
2024-12-07 16:03:44.575298000,4.170298095703125,0.2497890889644622,0.0551357269287109,-0.195353090763092
2024-12-07 16:03:44.585325600,4.18032568359375,0.2593975961208343,-0.0801677703857421,-0.1333816051483154
2024-12-07 16:03:44.595353000,4.19035302734375,0.2074956893920898,-0.1425800323486328,-0.0919386744499206
2024-12-07 16:03:44.605380600,4.200380615234375,0.1281168162822723,-0.0909204483032226,-0.0520742535591125
2024-12-07 16:03:44.615407900,4.210407958984375,-0.0291110873222351,0.1341810226440429,-0.0375766158103942
2024-12-07 16:03:44.625435400,4.220435302734375,0.1743636429309845,0.3413476943969726,-0.3716821074485779
2024-12-07 16:03:44.635463000,4.230462890625,0.2277412712574005,0.6814146041870117,-0.3879506587982178
2024-12-07 16:03:44.645490200,4.240490234375,0.3458820283412933,0.8038320541381836,-0.3892529606819153
2024-12-07 16:03:44.655517700,4.250517578125,0.5224374532699585,0.6697969436645508,-0.5449018478393555
2024-12-07 16:03:44.665545200,4.260545166015625,0.7182416915893555,0.2646646499633789,-0.6301214098930359
2024-12-07 16:03:44.675572700,4.27057275390625,0.8716518878936768,-0.3175878524780273,-0.6742116212844849
2024-12-07 16:03:44.685600000,4.28060009765625,0.8290791511535645,-0.8479681015014648,-0.7151646018028259
2024-12-07 16:03:44.695627500,4.29062744140625,0.8975005149841309,-1.124776840209961,-0.842042863368988
2024-12-07 16:03:44.705655000,4.300655029296875,1.061117172241211,-1.2558574676513672,-0.9868714213371276
2024-12-07 16:03:44.715682300,4.310682373046875,1.1484971046447754,-1.2483501434326172,-0.9517178535461426
2024-12-07 16:03:44.725709800,4.320709716796875,1.2867789268493652,-1.0678205490112305,-0.8095773458480835
2024-12-07 16:03:44.735737300,4.3307373046875,1.3151453733444214,-0.7778129577636719,-0.6685745120048523
2024-12-07 16:03:44.745764900,4.340764892578125,1.3047276735305786,-0.4836483001708984,-0.4485248327255249
2024-12-07 16:03:44.755792100,4.350792236328125,1.491990566253662,-0.3286409378051758,-0.3327197432518005
2024-12-07 16:03:44.765819600,4.360819580078125,1.4107035398483276,-0.0259408950805664,-0.1114830374717712
2024-12-07 16:03:44.775847200,4.37084716796875,1.332487940788269,0.2567882537841797,-0.0474559068679809
2024-12-07 16:03:44.785874700,4.380874755859375,1.1352688074111938,0.677006721496582,0.0940877795219421
2024-12-07 16:03:44.795902000,4.39090185546875,0.7807955741882324,1.0240240097045898,0.0610506534576416
2024-12-07 16:03:44.805929500,4.400929443359375,0.4477894306182861,1.1498165130615234,0.0136767625808715
2024-12-07 16:03:44.815957000,4.41095703125,0.2953997850418091,1.0452289581298828,-0.0117652416229248
2024-12-07 16:03:44.825984300,4.420984375,0.366852343082428,0.8158369064331055,0.1051492094993591
2024-12-07 16:03:44.836011800,4.43101171875,0.5906784534454346,0.4810523986816406,0.1585985422134399
2024-12-07 16:03:44.846039300,4.441039306640625,0.9230542182922364,0.1222362518310546,0.1486735939979553
2024-12-07 16:03:44.856066800,4.45106689453125,1.1293030977249146,-0.1508979797363281,0.0720276832580566
2024-12-07 16:03:44.866094000,4.461093994140625,1.3282792568206787,-0.3291864395141601,0.0334473848342895
2024-12-07 16:03:44.876121600,4.47112158203125,1.3541945219039917,-0.3750905990600586,-0.1596510410308838
2024-12-07 16:03:44.886149000,4.481149169921875,0.8261595964431763,-0.3129529953002929,-0.3308748602867126
2024-12-07 16:03:44.896176400,4.49117626953125,0.1888915300369262,-0.2478551864624023,-0.5524582266807556
2024-12-07 16:03:44.906204000,4.501203857421875,-0.603380560874939,-0.1988487243652343,-0.718874454498291
2024-12-07 16:03:44.916231400,4.5112314453125,-1.52698814868927,-0.1368370056152343,-0.9001479148864746
2024-12-07 16:03:44.926259000,4.521259033203125,-1.9067450761795044,-0.1661233901977539,-1.0936212539672852
2024-12-07 16:03:44.936286200,4.5312861328125,-2.082602977752685,-0.2043991088867187,-1.3210673332214355
2024-12-07 16:03:44.946313700,4.541313720703125,-2.0010428428649902,-0.1789226531982422,-1.584322452545166
2024-12-07 16:03:44.956341200,4.55134130859375,-1.5118372440338137,-0.0940446853637695,-1.6242213249206543
2024-12-07 16:03:44.966368500,4.561368408203125,-0.7629704475402832,-0.1315479278564453,-1.1316555738449097
2024-12-07 16:03:44.976396000,4.57139599609375,-0.0524913072586059,-0.1921615600585937,-0.7591884136199951
2024-12-07 16:03:44.986423600,4.581423583984375,0.166894793510437,-0.1718769073486328,0.2823570370674133
2024-12-07 16:03:44.996451000,4.591451171875,0.0087509155273437,-0.027501106262207,1.6972932815551758
2024-12-07 16:03:45.006478300,4.601478271484375,-0.5157262086868286,0.1127443313598632,2.9135985374450684
2024-12-07 16:03:45.016505900,4.611505859375,-1.025702714920044,0.1208515167236328,3.555943012237549
2024-12-07 16:03:45.026533400,4.621533447265625,-1.4997707605361938,-0.0078115463256835,3.393073081970215
2024-12-07 16:03:45.036560600,4.631560546875,-1.8716496229171755,-0.0107173919677734,2.678619861602783
2024-12-07 16:03:45.046588200,4.641588134765625,-1.831512808799744,0.0540828704833984,2.043220043182373
2024-12-07 16:03:45.056615700,4.65161572265625,-1.1755821704864502,0.1627864837646484,2.090168237686157
2024-12-07 16:03:45.066643200,4.661643310546875,-0.4708015918731689,0.4247980117797851,1.590479016304016
2024-12-07 16:03:45.076670500,4.67167041015625,-0.2772517204284668,0.5374937057495117,1.2732781171798706
2024-12-07 16:03:45.086698000,4.681697998046875,-0.3116652965545654,0.6351556777954102,1.026872992515564
2024-12-07 16:03:45.096725500,4.6917255859375,-0.3291311264038086,0.6464252471923828,0.7353494167327881
2024-12-07 16:03:45.106752800,4.701752685546875,-0.3671272993087768,0.5380983352661133,0.2377262711524963
2024-12-07 16:03:45.116780300,4.7117802734375,-0.4377071857452392,0.2915525436401367,-0.1763206720352172
2024-12-07 16:03:45.126807800,4.721807861328125,-0.2297157049179077,0.093174934387207,-0.6609011888504028
2024-12-07 16:03:45.136835300,4.73183544921875,-0.0606317520141601,-0.1581373214721679,-0.7631676197052002
2024-12-07 16:03:45.146862600,4.741862548828125,0.0112726688385009,-0.4243078231811523,-0.5555204153060913
2024-12-07 16:03:45.156890000,4.75189013671875,0.0289678573608398,-0.5858707427978516,-0.3121988773345947
2024-12-07 16:03:45.166917600,4.761917724609375,0.0639066696166992,-0.5809011459350586,-0.0306611061096191
2024-12-07 16:03:45.176945200,4.771945068359375,0.1535457372665405,-0.4289789199829101,0.201677918434143
2024-12-07 16:03:45.186972400,4.781972412109375,0.250739574432373,-0.1543340682983398,0.2853332757949829
2024-12-07 16:03:45.197000000,4.792,0.5579867362976074,0.128636360168457,0.5150184035301208
2024-12-07 16:03:45.207027500,4.80202734375,0.91575288772583,0.3053188323974609,0.7488775253295898
2024-12-07 16:03:45.217054700,4.8120546875,1.1017093658447266,0.3280763626098633,0.7402019500732422
2024-12-07 16:03:45.227082200,4.822082275390625,1.0526866912841797,0.0776681900024414,0.6129733920097351
2024-12-07 16:03:45.237109800,4.83210986328125,0.8686630725860596,-0.4171342849731445,0.1122047901153564
2024-12-07 16:03:45.247137300,4.84213720703125,0.5353784561157227,-0.8505802154541016,-0.1324214935302734
2024-12-07 16:03:45.257164500,4.85216455078125,0.1880970001220703,-1.103229522705078,-0.3414126634597778
2024-12-07 16:03:45.267192000,4.862192138671875,-0.1062819957733154,-1.155411720275879,-0.3046045303344726
2024-12-07 16:03:45.277219600,4.872219482421875,-0.2532801628112793,-0.9445972442626952,-0.027578592300415
2024-12-07 16:03:45.287246800,4.882246826171875,-0.6378633975982666,-0.7427616119384766,0.8069409132003784
2024-12-07 16:03:45.297274400,4.8922744140625,-0.4866398572921753,-0.1915140151977539,0.9395531415939332
2024-12-07 16:03:45.307302000,4.902302001953125,-0.0201647281646728,0.1487236022949218,1.1535866260528564
2024-12-07 16:03:45.317329400,4.912329345703125,-0.0238256454467773,0.3221073150634765,1.3001725673675537
2024-12-07 16:03:45.327356700,4.922356689453125,-0.4623281955718994,0.3688163757324219,0.9826655387878418
2024-12-07 16:03:45.337384200,4.93238427734375,-0.6459015607833862,0.2259101867675781,0.3923405408859253
2024-12-07 16:03:45.347411500,4.942411376953125,-0.4066205024719238,0.0354032516479492,0.0795580148696899
2024-12-07 16:03:45.357439000,4.95243896484375,-0.3054721355438232,-0.2214031219482422,0.0403103828430175
2024-12-07 16:03:45.367466200,4.96246630859375,-0.2179007530212402,-0.3340377807617187,-0.0468723773956298
2024-12-07 16:03:45.377493800,4.97249365234375,-0.2577531337738037,-0.3268918991088867,-0.0938946008682251
2024-12-07 16:03:45.387521000,4.98252099609375,-0.3700189590454101,-0.2523078918457031,0.1050029993057251
2024-12-07 16:03:45.397548500,4.992548583984375,-0.3911061286926269,-0.1289043426513672,0.6140506267547607
2024-12-07 16:03:45.407575800,5.002575927734375,-0.3416042327880859,0.2012252807617187,1.0130293369293213
2024-12-07 16:03:45.417603300,5.012603271484375,-0.3184785842895508,0.6665792465209961,1.191955327987671
2024-12-07 16:03:45.427630600,5.022630615234375,-0.3329875469207763,1.041081428527832,1.012238621711731
2024-12-07 16:03:45.437658000,5.032658203125,-0.2670178413391113,1.2956409454345703,1.068558931350708
2024-12-07 16:03:45.447685400,5.042685302734375,-0.2296061515808105,1.4123010635375977,1.3525283336639404
2024-12-07 16:03:45.457713000,5.052712890625,-0.2787766456604004,1.469024658203125,1.4044495820999146
2024-12-07 16:03:45.467740200,5.062740234375,-0.0796194076538086,1.4181280136108398,1.211261749267578
2024-12-07 16:03:45.477767700,5.072767578125,0.1299433708190918,1.2492923736572266,0.9269631505012512
2024-12-07 16:03:45.487795000,5.082794921875,0.2395503520965576,1.1153593063354492,0.6909738779067993
2024-12-07 16:03:45.497822500,5.092822509765625,0.1358017921447754,1.0498638153076172,0.4269099235534668
2024-12-07 16:03:45.507849700,5.102849609375,0.0649690628051757,1.000102996826172,0.0375183820724487
2024-12-07 16:03:45.517877200,5.112877197265625,0.2399165630340576,0.9265613555908204,-0.2052536010742187
2024-12-07 16:03:45.527904500,5.122904541015625,0.1611602306365966,0.8386707305908203,-0.1272536516189575
2024-12-07 16:03:45.537932000,5.13293212890625,0.1966688632965088,0.7460336685180664,0.0024085044860839
2024-12-07 16:03:45.547959300,5.142959228515625,0.4496450424194336,0.5672016143798828,0.2637996673583984
2024-12-07 16:03:45.557986800,5.15298681640625,0.8408055305480957,0.3498334884643554,0.6546986699104309
2024-12-07 16:03:45.568014000,5.16301416015625,1.347546100616455,0.1173381805419921,0.8576083779335022
2024-12-07 16:03:45.578041600,5.17304150390625,1.5058412551879885,-0.1350288391113281,0.8574191331863403
2024-12-07 16:03:45.588068900,5.18306884765625,1.5869636535644531,-0.4402542114257812,0.8569788336753845
2024-12-07 16:03:45.598096400,5.193096435546875,1.586327075958252,-0.6554775238037109,0.0430390834808349
2024-12-07 16:03:45.608124000,5.2031240234375,1.2741615772247314,-0.6577777862548828,-0.5488425493240356
2024-12-07 16:03:45.618151200,5.213151123046875,0.8234117031097412,-0.7536630630493164,-0.8490365743637085
2024-12-07 16:03:45.628178700,5.2231787109375,0.0721998214721679,-0.7175140380859375,-1.2883989810943604
2024-12-07 16:03:45.638206000,5.2332060546875,-1.0307101011276243,-0.3657131195068359,-1.829211711883545
2024-12-07 16:03:45.648233500,5.2432333984375,-1.9671136140823364,-0.0733556747436523,-2.0164899826049805
2024-12-07 16:03:45.658260700,5.2532607421875,-2.14266586303711,-0.054295539855957,-1.9112675189971924
2024-12-07 16:03:45.668288300,5.263288330078125,-1.7581145763397217,-0.2571773529052734,-1.7238785028457642
2024-12-07 16:03:45.678315500,5.2733154296875,-1.680983543395996,-0.3390836715698242,-1.1952356100082395
2024-12-07 16:03:45.688343000,5.283343017578125,-1.729396104812622,-0.2570753097534179,-0.5312951803207397
2024-12-07 16:03:45.698370300,5.293370361328125,-1.3456621170043943,-0.2647743225097656,0.2448295354843139
2024-12-07 16:03:45.708397800,5.303397705078125,-0.6600691080093384,-0.3579864501953125,0.9142318964004515
2024-12-07 16:03:45.718425000,5.313425048828125,0.0712575912475586,-0.5230503082275391,1.2285358905792236
2024-12-07 16:03:45.728452600,5.32345263671875,0.360499620437622,-0.5549678802490234,0.9658113718032836
2024-12-07 16:03:45.738479900,5.33347998046875,0.1664896011352539,-0.4922323226928711,0.1680006980895996
2024-12-07 16:03:45.748507400,5.34350732421875,0.035597801208496,-0.4731893539428711,-0.3881469964981079
2024-12-07 16:03:45.758534700,5.35353466796875,0.2091035842895507,-0.4733495712280273,-0.062435507774353
2024-12-07 16:03:45.768562200,5.363562255859375,0.459890604019165,-0.3778076171875,0.6036553382873535
2024-12-07 16:03:45.778589700,5.373589599609375,0.5643258094787598,-0.3019218444824219,1.344495177268982
2024-12-07 16:03:45.788617000,5.383616943359375,0.3072980642318725,-0.1644849777221679,1.9251809120178225
2024-12-07 16:03:45.798644500,5.39364453125,-0.4500346183776855,0.1349420547485351,1.899946212768555
2024-12-07 16:03:45.808672000,5.403672119140625,-1.2468435764312744,0.4100923538208008,1.6961517333984375
2024-12-07 16:03:45.818699500,5.413699462890625,-1.577187180519104,0.4608697891235351,1.4989179372787476
2024-12-07 16:03:45.828726800,5.423726806640625,-1.4176604747772217,0.3688068389892578,1.1010421514511108
2024-12-07 16:03:45.838754300,5.43375439453125,-1.1542823314666748,0.2862691879272461,0.4008037447929382
2024-12-07 16:03:45.848781800,5.44378173828125,-1.0085349082946775,0.1365022659301757,-0.1037265062332153
2024-12-07 16:03:45.858809000,5.45380908203125,-0.6996054649353027,-0.1280889511108398,-0.4054614305496216
2024-12-07 16:03:45.868836600,5.463836669921875,-0.287258505821228,-0.2779817581176758,-0.6273475885391235
2024-12-07 16:03:45.878864100,5.473864013671875,0.0107728242874145,-0.3664207458496094,-0.8317538499832153
2024-12-07 16:03:45.888891600,5.4838916015625,0.0551228523254394,-0.4702329635620117,-0.793291449546814
2024-12-07 16:03:45.898919000,5.4939189453125,-0.0058885812759399,-0.5082035064697266,-0.6176283359527588
2024-12-07 16:03:45.908946400,5.503946533203125,-0.0995217561721801,-0.3895015716552734,-0.1959208250045776
2024-12-07 16:03:45.918974000,5.513973876953125,-0.2002439498901367,-0.2000074386596679,0.3164470791816711
2024-12-07 16:03:45.929001200,5.524001220703125,-0.3778371810913086,0.0558700561523437,0.6830152869224548
2024-12-07 16:03:45.939028700,5.53402880859375,-0.6019648313522339,0.3449745178222656,0.9500139951705932
2024-12-07 16:03:45.949056300,5.54405615234375,-0.5852477550506592,0.4334306716918945,0.7580040693283081
2024-12-07 16:03:45.959083800,5.554083740234375,-0.6305370926856995,0.3214349746704101,0.6055012345314026
2024-12-07 16:03:45.969111000,5.564111083984375,-0.8851178288459778,0.1193313598632812,0.1925418376922607
2024-12-07 16:03:45.979138600,5.574138671875,-1.1653860807418823,-0.1630239486694336,-0.2398192882537841
2024-12-07 16:03:45.989166000,5.584166015625,-1.318366765975952,-0.4539012908935547,-0.6378650665283203
2024-12-07 16:03:45.999193300,5.594193359375,-1.3262391090393066,-0.6676006317138672,-0.971641719341278
2024-12-07 16:03:46.009220900,5.604220947265625,-1.2382934093475342,-0.7473230361938477,-1.1680501699447632
2024-12-07 16:03:46.019248400,5.614248291015625,-1.1123533248901367,-0.7508811950683594,-1.0779461860656738
2024-12-07 16:03:46.029276000,5.62427587890625,-0.9718318581581116,-0.6259002685546875,-0.6440166234970093
2024-12-07 16:03:46.039303200,5.63430322265625,-0.7579114437103271,-0.3914365768432617,0.0118258595466613
2024-12-07 16:03:46.049330700,5.64433056640625,-0.3895553350448608,-0.1526508331298828,0.4855134785175323
2024-12-07 16:03:46.059358200,5.654358154296875,-0.0363999605178833,0.0424728393554687,0.6284724473953247
2024-12-07 16:03:46.069385700,5.6643857421875,0.0756360292434692,0.0985002517700195,0.9697727560997008
2024-12-07 16:03:46.079413000,5.6744130859375,0.1515140533447265,0.0587472915649414,0.781741738319397
2024-12-07 16:03:46.089440500,5.6844404296875,0.0749356746673584,-0.0721044540405273,0.4826047122478485
2024-12-07 16:03:46.099468000,5.694468017578125,-0.1482919454574585,-0.2221288681030273,0.2977391481399536
2024-12-07 16:03:46.109495300,5.704495361328125,-0.3872538805007934,-0.2668962478637695,0.0742042660713195
2024-12-07 16:03:46.119522800,5.714522705078125,-0.5827984809875488,-0.2447004318237304,-0.0727002024650573
2024-12-07 16:03:46.129550300,5.72455029296875,-0.6955924034118652,-0.2128582000732422,-0.1051415801048278
2024-12-07 16:03:46.139577900,5.734577880859375,-0.7400218844413757,-0.1617984771728515,-0.0667815208435058
2024-12-07 16:03:46.149605000,5.744605224609375,-0.7307804226875305,-0.1249923706054687,-0.0490739941596984
2024-12-07 16:03:46.159632600,5.754632568359375,-0.7019500136375427,-0.0212917327880859,-0.0851981043815612
2024-12-07 16:03:46.169660200,5.76466015625,-0.6817634701728821,0.1539468765258789,-0.1366588473320007
2024-12-07 16:03:46.179687400,5.7746875,-0.6089767217636108,0.3717126846313476,-0.2646797895431518
2024-12-07 16:03:46.189715000,5.78471484375,-0.694025993347168,0.4933032989501953,-0.4013894200325012
2024-12-07 16:03:46.199742500,5.794742431640625,-0.6927649974822998,0.4806709289550781,-0.6554286479949951
2024-12-07 16:03:46.209770000,5.80477001953125,-0.6346784830093384,0.4391517639160156,-0.7634707689285278
2024-12-07 16:03:46.219797200,5.81479736328125,-0.7145211100578308,0.5552425384521484,-0.9361613392829896
2024-12-07 16:03:46.229824800,5.82482470703125,-0.6242021918296814,0.6042289733886719,-0.977039873600006
2024-12-07 16:03:46.239852300,5.834852294921875,-0.1647053360939026,0.5145463943481445,-1.1019535064697266
2024-12-07 16:03:46.249879600,5.844879638671875,0.2775654792785644,0.4151391983032226,-1.233885407447815
2024-12-07 16:03:46.259907000,5.854906982421875,0.3386483192443847,0.2295389175415039,-1.1388888359069824
2024-12-07 16:03:46.269934300,5.864934326171875,0.364139974117279,0.0536327362060546,-0.9616260528564452
2024-12-07 16:03:46.279961900,5.8749619140625,0.368833839893341,-0.0360879898071289,-0.8127959370613098
2024-12-07 16:03:46.289989000,5.884989013671875,0.4013320207595825,-0.0875320434570312,-0.6110472679138184
2024-12-07 16:03:46.300016600,5.8950166015625,0.4184030294418335,-0.0864162445068359,-0.3334280848503113
2024-12-07 16:03:46.310044000,5.9050439453125,0.2723599076271057,-0.0231971740722656,-0.1006258130073547
2024-12-07 16:03:46.320071400,5.915071533203125,0.2402540445327758,-0.1129293441772461,-0.0567215681076049
2024-12-07 16:03:46.330098700,5.9250986328125,0.0878573656082153,-0.2023563385009765,-0.0581551790237426
2024-12-07 16:03:46.340126200,5.935126220703125,-0.0688391327857971,-0.2722187042236328,-0.1056275963783264
2024-12-07 16:03:46.350153500,5.945153564453125,-0.0338896512985229,-0.3798837661743164,-0.2419185638427734
2024-12-07 16:03:46.360181000,5.955180908203125,0.1388081312179565,-0.5014448165893555,-0.3618797659873962
2024-12-07 16:03:46.370208300,5.965208251953125,0.2623841762542724,-0.5271520614624023,-0.5213282704353333
2024-12-07 16:03:46.380235800,5.97523583984375,0.2952775359153747,-0.4859905242919922,-0.6411603093147278
2024-12-07 16:03:46.390263000,5.985262939453125,0.3292465209960937,-0.4259710311889648,-0.7099674940109253
2024-12-07 16:03:46.400290600,5.99529052734375,0.3628630638122558,-0.3139982223510742,-0.6776434183120728
2024-12-07 16:03:46.410317800,6.00531787109375,0.3384472131729126,-0.2649011611938476,-0.4387876987457275
2024-12-07 16:03:46.420345300,6.015345458984375,0.2086193561553955,-0.2927122116088867,0.0043973326683044
2024-12-07 16:03:46.430372600,6.02537255859375,0.2472161650657653,-0.3777103424072265,0.4655142724514007
2024-12-07 16:03:46.440400100,6.035400146484375,0.3345946669578552,-0.5003280639648438,0.8019775748252869
2024-12-07 16:03:46.450427400,6.045427490234375,0.5025536417961121,-0.6413946151733398,0.6022382378578186
2024-12-07 16:03:46.460455000,6.055454833984375,0.4905405640602112,-0.6911830902099609,0.3643019795417785
2024-12-07 16:03:46.470482200,6.065482177734375,0.5215368866920471,-0.6404752731323242,-0.0078077316284179
2024-12-07 16:03:46.480509700,6.075509765625,0.584402859210968,-0.4802570343017578,-0.2822298407554626
2024-12-07 16:03:46.490537000,6.085536865234375,0.6175674200057983,-0.1726713180541992,-0.3956284523010254
2024-12-07 16:03:46.500564500,6.095564453125,0.6231366395950317,0.1960830688476562,-0.4155769348144531
2024-12-07 16:03:46.510591700,6.105591796875,0.5170544981956482,0.4588127136230469,-0.3856136798858642
2024-12-07 16:03:46.520619300,6.115619384765625,0.3201046586036682,0.4868831634521484,-0.3389891386032104
2024-12-07 16:03:46.530646500,6.125646484375,0.1582815051078796,0.3621425628662109,-0.3800782561302185
2024-12-07 16:03:46.540674000,6.135674072265625,0.0562876462936401,0.1709232330322265,-0.5595480799674988
2024-12-07 16:03:46.550701300,6.145701416015625,-0.2572211027145386,0.0375337600708007,-0.8267948031425476
2024-12-07 16:03:46.560728800,6.155728759765625,-0.6456995606422424,0.0479183197021484,-1.0172109603881836
2024-12-07 16:03:46.570756400,6.16575634765625,-0.7062674760818481,0.2257280349731445,-1.0636872053146362
2024-12-07 16:03:46.580783600,6.17578369140625,-0.5261811017990112,0.4559593200683594,-0.9538543224334716
2024-12-07 16:03:46.590811100,6.18581103515625,-0.1655968427658081,0.6811037063598633,-0.843443751335144
2024-12-07 16:03:46.600838400,6.19583837890625,0.2960408926010132,0.7673196792602539,-0.8635170459747314
2024-12-07 16:03:46.610866000,6.205865966796875,0.7682664394378662,0.681182861328125,-1.0231084823608398
2024-12-07 16:03:46.620893200,6.21589306640625,0.8144024610519409,0.566218376159668,-1.0149071216583252
2024-12-07 16:03:46.630920700,6.225920654296875,0.6941668391227722,0.4607295989990234,-0.9720759391784668
2024-12-07 16:03:46.640948000,6.235947998046875,0.7101776599884033,0.3552179336547851,-0.9131485223770142
2024-12-07 16:03:46.650975500,6.2459755859375,0.7810727953910828,0.35955810546875,-0.7330524921417236
2024-12-07 16:03:46.661002800,6.256002685546875,1.0162187814712524,0.1725854873657226,-0.6099423170089722
2024-12-07 16:03:46.671030300,6.2660302734375,1.420250654220581,-0.191263198852539,-0.7769653797149658
2024-12-07 16:03:46.681057500,6.2760576171875,1.362013816833496,-0.5644073486328125,-0.784571647644043
2024-12-07 16:03:46.691085000,6.2860849609375,1.0690922737121582,-0.8798599243164062,-0.9049187302589417
2024-12-07 16:03:46.701112300,6.2961123046875,0.4593897461891174,-0.8844432830810547,-0.7923226356506348
2024-12-07 16:03:46.711139800,6.306139892578125,0.3563066720962524,-0.66961669921875,-0.705169677734375
2024-12-07 16:03:46.721167000,6.3161669921875,0.5644275546073914,-0.2839221954345703,-0.4393428266048431
2024-12-07 16:03:46.731194600,6.326194580078125,0.6887525320053101,0.1048498153686523,-0.097739428281784
2024-12-07 16:03:46.741222000,6.336221923828125,0.6376002430915833,0.5252294540405273,0.1650732457637787
2024-12-07 16:03:46.751249400,6.34624951171875,0.4978882074356079,0.924586296081543,0.3721562623977661
2024-12-07 16:03:46.761276700,6.356276611328125,0.3575025796890259,1.2123041152954102,0.418080985546112
2024-12-07 16:03:46.771304200,6.36630419921875,0.2233296632766723,1.3171625137329102,0.2744050025939941
2024-12-07 16:03:46.781331500,6.37633154296875,0.1639384031295776,1.2349519729614258,0.0043200552463531
2024-12-07 16:03:46.791359000,6.38635888671875,-0.0397524833679199,1.076003074645996,-0.2472698986530304
2024-12-07 16:03:46.801386200,6.39638623046875,-0.2564922571182251,0.8740921020507812,-0.3780747354030609
2024-12-07 16:03:46.811413800,6.406413818359375,-0.0947760343551635,0.5146636962890625,-0.3353355526924133
2024-12-07 16:03:46.821441000,6.41644091796875,0.1507201194763183,0.12200927734375,-0.1542321741580963
2024-12-07 16:03:46.831468500,6.426468505859375,-0.1124167442321777,-0.2464685440063476,-0.1462868750095367
2024-12-07 16:03:46.841495800,6.436495849609375,-0.5761713981628418,-0.5087881088256836,-0.5290007591247559
2024-12-07 16:03:46.851523300,6.4465234375,-0.6101789474487305,-0.6455564498901367,-1.080659031867981
2024-12-07 16:03:46.861550600,6.456550537109375,-0.525649905204773,-0.8195171356201172,-1.3322632312774658
2024-12-07 16:03:46.871578000,6.466578125,-0.4599659442901611,-0.9308090209960938,-0.9787419438362122
2024-12-07 16:03:46.881605600,6.476605712890625,-0.5092822313308716,-1.0232219696044922,-0.0053517222404479
2024-12-07 16:03:46.891633200,6.486633056640625,-1.0144033432006836,-1.0817852020263672,0.593717634677887
2024-12-07 16:03:46.901660400,6.496660400390625,-1.3945677280426023,-1.167461395263672,1.08750581741333
2024-12-07 16:03:46.911688000,6.50668798828125,-1.31874418258667,-1.2272605895996094,1.6630094051361084
2024-12-07 16:03:46.921715500,6.516715576171875,-1.1145609617233276,-1.2805290222167969,2.313631772994995
2024-12-07 16:03:46.931742700,6.52674267578125,-0.8698456287384033,-1.203268051147461,2.6221842765808105
2024-12-07 16:03:46.941770200,6.536770263671875,-0.5154073238372803,-1.0201349258422852,2.436901330947876
2024-12-07 16:03:46.951797800,6.5467978515625,-0.32192063331604,-0.6984758377075195,2.279179573059082
2024-12-07 16:03:46.961825300,6.5568251953125,-0.1302161216735839,-0.2726459503173828,2.0233242511749268
2024-12-07 16:03:46.971852500,6.5668525390625,-0.2189218997955322,0.1516933441162109,1.689191818237305
2024-12-07 16:03:46.981880000,6.576880126953125,-0.3715212345123291,0.4982461929321289,1.373326301574707
2024-12-07 16:03:46.991907600,6.586907470703125,-0.4141933917999267,0.705470085144043,0.9893235564231871
2024-12-07 16:03:47.001935000,6.59693505859375,-0.1519558429718017,0.7593622207641602,0.5984947085380554
2024-12-07 16:03:47.011962400,6.60696240234375,0.0502305030822753,0.7699699401855469,0.1385440826416015
2024-12-07 16:03:47.021990000,6.616989990234375,0.3113682270050049,0.6608705520629883,-0.2039362788200378
2024-12-07 16:03:47.032017400,6.627017333984375,0.4109174013137817,0.4607782363891601,-0.3513726592063904
2024-12-07 16:03:47.042044700,6.637044677734375,0.5779783725738525,0.14581298828125,-0.4462645053863525
2024-12-07 16:03:47.052072200,6.647072265625,0.6439307928085327,-0.2220830917358398,-0.2956207990646362
2024-12-07 16:03:47.062099700,6.657099609375,0.585820198059082,-0.4183273315429687,-0.2328558564186096
2024-12-07 16:03:47.072127200,6.667127197265625,0.5910462141036987,-0.4671955108642578,-0.0371520519256591
2024-12-07 16:03:47.082154500,6.677154541015625,0.5271215438842773,-0.3067255020141601,0.1668768525123596
2024-12-07 16:03:47.092182000,6.68718212890625,0.5531275272369385,0.0244827270507812,0.3371188640594482
2024-12-07 16:03:47.102209500,6.69720947265625,0.6401360034942627,0.2919960021972656,0.568126916885376
2024-12-07 16:03:47.112236800,6.70723681640625,0.5398674011230469,0.5202293395996094,0.7939967513084412
2024-12-07 16:03:47.122264300,6.717264404296875,0.1448748111724853,0.6477346420288086,0.569232165813446
2024-12-07 16:03:47.132291800,6.727291748046875,-0.2517491579055786,0.5986127853393555,0.3436807990074157
2024-12-07 16:03:47.142319400,6.7373193359375,-0.5301982164382935,0.4214153289794922,0.0388559103012084
2024-12-07 16:03:47.152346600,6.7473466796875,-0.6228519678115845,0.1069440841674804,-0.9064122438430786
2024-12-07 16:03:47.162374100,6.7573740234375,-0.2048971652984619,-0.2400140762329101,-1.7004104852676392
2024-12-07 16:03:47.172401700,6.767401611328125,0.3720576763153076,-0.4531583786010742,-2.066808700561523
2024-12-07 16:03:47.182429000,6.777428955078125,0.8235945701599121,-0.4904422760009765,-2.049960136413574
2024-12-07 16:03:47.192456400,6.78745654296875,0.981025457382202,-0.3668556213378906,-0.9228565692901612
2024-12-07 16:03:47.202484000,6.79748388671875,0.8566038608551025,0.0621614456176757,0.3659652471542358
2024-12-07 16:03:47.212511500,6.807511474609375,0.6339583396911621,0.6538457870483398,1.0886874198913574
2024-12-07 16:03:47.222538800,6.817538818359375,0.5389368534088135,1.010671615600586,1.494662165641785
2024-12-07 16:03:47.232566300,6.827566162109375,0.4021201133728027,1.2233648300170898,1.4955458641052246
2024-12-07 16:03:47.242593500,6.837593505859375,0.3840541839599609,1.2598552703857422,1.353229522705078
2024-12-07 16:03:47.252621000,6.84762109375,0.724388837814331,1.149555206298828,0.953522562980652
2024-12-07 16:03:47.262648300,6.8576484375,0.8766827583312988,0.9256811141967772,0.4187978506088257
2024-12-07 16:03:47.272675800,6.86767578125,0.7310953140258789,0.7215948104858398,0.0108829736709594
2024-12-07 16:03:47.282703000,6.877703125,0.6853668689727783,0.6473054885864258,-0.4907141923904419
2024-12-07 16:03:47.292730600,6.887730712890625,0.729475736618042,0.7405433654785156,-0.7699261903762817
2024-12-07 16:03:47.302758000,6.8977578125,0.7861394882202148,0.8860263824462891,-0.7362548112869263
2024-12-07 16:03:47.312785400,6.907785400390625,0.6307055950164795,1.121978759765625,-0.7453023195266724
2024-12-07 16:03:47.322812700,6.917812744140625,-0.0008487701416015,1.3674020767211914,-1.0240081548690796
2024-12-07 16:03:47.332840200,6.927840087890625,-0.6058423519134521,1.5180072784423828,-1.014285445213318
2024-12-07 16:03:47.342867500,6.937867431640625,-0.6227118968963623,1.5414037704467771,-0.7932111024856567
2024-12-07 16:03:47.352895000,6.94789501953125,-0.2777559757232666,1.4571380615234375,-0.4914697408676147
2024-12-07 16:03:47.362922500,6.957922607421875,0.1157913208007812,1.2985954284667969,-0.1821974515914917
2024-12-07 16:03:47.372949800,6.96794970703125,0.3472247123718261,1.0182266235351562,0.0618293285369873
2024-12-07 16:03:47.382977300,6.977977294921875,0.5894877910614014,0.5875978469848633,0.1181248426437377
2024-12-07 16:03:47.393004500,6.988004638671875,1.2184772491455078,0.0112066268920898,0.0461804866790771
2024-12-07 16:03:47.403032000,6.998031982421875,2.179622173309326,-0.5260934829711914,-0.2285904884338379
2024-12-07 16:03:47.413059300,7.008059326171875,3.0484633445739746,-1.045659065246582,-0.4954591989517212
2024-12-07 16:03:47.423086800,7.0180869140625,3.4270951747894287,-1.5444555282592771,-0.8022891283035278
2024-12-07 16:03:47.433114000,7.028114013671875,3.2674362659454346,-1.8847293853759768,-0.8222881555557251
2024-12-07 16:03:47.443141600,7.0381416015625,2.5908641815185547,-1.6805181503295898,-1.1960078477859497
2024-12-07 16:03:47.453169000,7.0481689453125,0.8050804138183594,-1.2900714874267578,-1.123921275138855
2024-12-07 16:03:47.463196400,7.058196533203125,-1.6917405128479004,-0.6864023208618164,-0.4394268989562988
2024-12-07 16:03:47.473223700,7.0682236328125,-3.5579137802124023,-0.2527523040771484,1.1994433403015137
2024-12-07 16:03:47.483251200,7.078251220703125,-3.7865824699401855,-0.617426872253418,3.110862970352173
2024-12-07 16:03:47.493278500,7.088278564453125,-3.630087614059448,-1.3820514678955078,4.489518165588379
2024-12-07 16:03:47.503306000,7.098305908203125,-3.669063091278076,-1.4374465942382812,4.760280609130859
2024-12-07 16:03:47.513333200,7.108333251953125,-3.893983602523804,-0.5841960906982422,4.822909355163574
2024-12-07 16:03:47.523360800,7.11836083984375,-3.2789463996887207,0.2495450973510742,4.753865718841553
2024-12-07 16:03:47.533388000,7.128387939453125,-1.929199457168579,0.708134651184082,3.787851810455322
2024-12-07 16:03:47.543415600,7.13841552734375,-0.6848974227905273,0.6445446014404297,1.0669405460357666
2024-12-07 16:03:47.553442800,7.14844287109375,-0.0405709743499755,-0.0966548919677734,-1.7750730514526367
2024-12-07 16:03:47.563470300,7.15847021484375,0.0067181587219238,-1.0789318084716797,-3.158590793609619
2024-12-07 16:03:47.573497600,7.16849755859375,-0.1962244510650634,-1.4632768630981443,-2.721341133117676
2024-12-07 16:03:47.583525000,7.178525146484375,-0.5153748989105225,-0.8388500213623047,-1.106804370880127
2024-12-07 16:03:47.593552400,7.188552490234375,-0.7667686939239502,-0.2387466430664062,0.7505457997322083
2024-12-07 16:03:47.603580000,7.198579833984375,-0.5437096357345581,0.1556997299194336,1.882270574569702
2024-12-07 16:03:47.613607200,7.208607177734375,-0.4218404293060303,0.5541820526123047,2.335062026977539
2024-12-07 16:03:47.623634700,7.218634765625,-0.3001340627670288,0.6644725799560547,2.105201005935669
2024-12-07 16:03:47.633662000,7.228661865234375,-0.4522720575332641,0.6489267349243164,1.2647298574447632
2024-12-07 16:03:47.643689500,7.238689453125,-0.9309622049331664,0.3406648635864258,0.1468077898025512
2024-12-07 16:03:47.653716700,7.248716796875,-1.6850143671035769,-0.1630983352661132,-0.9082199335098268
2024-12-07 16:03:47.663744300,7.258744140625,-2.338388681411743,-0.4930524826049804,-1.8429827690124512
2024-12-07 16:03:47.673771500,7.268771484375,-2.324771881103516,-0.6686124801635742,-2.309771776199341
2024-12-07 16:03:47.683799000,7.278799072265625,-1.7676498889923096,-0.7241449356079102,-2.023303508758545
2024-12-07 16:03:47.693826600,7.28882666015625,-0.9842864274978638,-0.6797304153442383,-1.3335740566253662
2024-12-07 16:03:47.703853800,7.298853759765625,-0.4059289693832397,-0.5651121139526367,-0.7070785760879517
2024-12-07 16:03:47.713881300,7.30888134765625,-0.3350754976272583,-0.5432338714599609,0.0427691936492919
2024-12-07 16:03:47.723908600,7.31890869140625,-0.3963706493377685,-0.5416879653930664,1.0332766771316528
2024-12-07 16:03:47.733936000,7.32893603515625,-0.2105734348297119,-0.4164133071899414,1.8400025367736816
2024-12-07 16:03:47.743963400,7.33896337890625,0.0545833110809326,-0.2103586196899414,2.221958637237549
2024-12-07 16:03:47.753991000,7.348990966796875,0.2840300798416137,-0.1428747177124023,2.7533516883850098
2024-12-07 16:03:47.764018200,7.35901806640625,0.3233858346939087,-0.0556917190551757,2.7271411418914795
2024-12-07 16:03:47.774045700,7.369045654296875,0.0624496936798095,-0.0873403549194336,2.324761390686035
2024-12-07 16:03:47.784073000,7.379072998046875,-0.31587815284729,-0.2853422164916992,1.5527615547180176
2024-12-07 16:03:47.794100500,7.3891005859375,-0.6899592280387878,-0.5395870208740234,0.553942084312439
2024-12-07 16:03:47.804127700,7.399127685546875,-0.8573187589645386,-0.7976179122924805,-0.285030722618103
2024-12-07 16:03:47.814155300,7.4091552734375,-0.7711107134819031,-0.9165782928466796,-1.1188945770263672
2024-12-07 16:03:47.824182500,7.4191826171875,-0.8194342851638794,-0.8447494506835938,-1.824251651763916
2024-12-07 16:03:47.834210000,7.4292099609375,-0.8965716361999512,-0.6401233673095703,-2.145141124725342
2024-12-07 16:03:47.844237300,7.4392373046875,-0.9446407556533812,-0.2505578994750976,-2.089760065078736
2024-12-07 16:03:47.854264800,7.449264892578125,-0.939486563205719,0.127695083618164,-1.7489895820617676
2024-12-07 16:03:47.864292000,7.4592919921875,-0.9429816007614136,0.3419914245605469,-1.3919062614440918
2024-12-07 16:03:47.874319600,7.469319580078125,-1.0407708883285522,0.3547983169555664,-0.6532309651374817
2024-12-07 16:03:47.884347000,7.479346923828125,-1.0032124519348145,0.195622444152832,-0.1396610736846923
2024-12-07 16:03:47.894374400,7.48937451171875,-0.9643664956092834,-0.0155010223388671,0.2185842990875244
2024-12-07 16:03:47.904401700,7.499401611328125,-0.885199785232544,-0.2447528839111328,0.4484519064426422
2024-12-07 16:03:47.914429200,7.50942919921875,-0.7560444474220276,-0.3630790710449219,0.3203435242176056
2024-12-07 16:03:47.924456400,7.51945654296875,-0.8252289295196533,-0.2944908142089844,-0.0533142685890197
2024-12-07 16:03:47.934484000,7.52948388671875,-0.9145320057868958,-0.0872411727905273,-0.3935903310775757
2024-12-07 16:03:47.944511200,7.53951123046875,-0.8760754466056824,0.2390813827514648,-0.5086489915847778
2024-12-07 16:03:47.954538800,7.549538818359375,-0.5785207748413086,0.507176399230957,-0.6472389101982117
2024-12-07 16:03:47.964566000,7.55956591796875,-0.4066416621208191,0.7265138626098633,-0.465226948261261
2024-12-07 16:03:47.974593500,7.569593505859375,-0.3119682669639587,0.8304452896118164,-0.2077087759971618
2024-12-07 16:03:47.984620800,7.579620849609375,-0.1742544770240783,0.795506477355957,-0.0383798480033874
2024-12-07 16:03:47.994648300,7.5896484375,-0.046481966972351,0.717564582824707,-0.0148687958717346
2024-12-07 16:03:48.004675600,7.599675537109375,-0.0239274501800537,0.5728359222412109,-0.0840210914611816
2024-12-07 16:03:48.014703000,7.609703125,0.0418449640274047,0.3997049331665039,-0.1216833591461181
2024-12-07 16:03:48.024730600,7.619730712890625,0.194007933139801,0.1887292861938476,-0.1907428503036499
2024-12-07 16:03:48.034758000,7.6297578125,0.4699036478996277,0.0211296081542968,-0.358121246099472
2024-12-07 16:03:48.044785400,7.639785400390625,0.733993411064148,-0.093846321105957,-0.5980895757675171
2024-12-07 16:03:48.054812700,7.649812744140625,0.9845975041389464,-0.1469078063964843,-0.7281436920166016
2024-12-07 16:03:48.064840200,7.659840087890625,1.0588315725326538,-0.1048088073730468,-0.7190192937850952
2024-12-07 16:03:48.074867500,7.669867431640625,1.124128341674805,-0.025069236755371,-0.6570172309875488
2024-12-07 16:03:48.084895000,7.67989501953125,1.1946523189544678,0.0683765411376953,-0.4281870126724243
2024-12-07 16:03:48.094922200,7.689922119140625,1.4977564811706543,0.0799016952514648,-0.3532366156578064
2024-12-07 16:03:48.104949800,7.69994970703125,1.7588542699813845,0.019179344177246,-0.3640080690383911
2024-12-07 16:03:48.114977000,7.70997705078125,1.7786887884140017,-0.1517267227172851,-0.278948038816452
2024-12-07 16:03:48.125004500,7.720004638671875,1.6241543292999268,-0.2937850952148437,-0.4668733477592468
2024-12-07 16:03:48.135031800,7.73003173828125,1.4763596057891846,-0.2683639526367187,-0.8736010193824768
2024-12-07 16:03:48.145059300,7.740059326171875,1.2420693635940552,0.1391916275024414,-1.2795019149780271
2024-12-07 16:03:48.155086600,7.750086669921875,1.2323975563049316,0.7557315826416016,-2.274723052978516
2024-12-07 16:03:48.165114000,7.760114013671875,0.8436809778213501,1.131455421447754,-2.8951876163482666
2024-12-07 16:03:48.175141400,7.770141357421875,0.2014566659927368,1.2479095458984375,-3.4032444953918457
2024-12-07 16:03:48.185169000,7.7801689453125,-0.4690236449241638,1.020045280456543,-3.400739908218384
2024-12-07 16:03:48.195196200,7.790196044921875,-0.5983132123947144,0.3105363845825195,-2.975228071212769
2024-12-07 16:03:48.205223700,7.8002236328125,0.0981389880180358,-0.4686670303344726,-2.5921883583068848
2024-12-07 16:03:48.215251000,7.8102509765625,1.007585525512695,-0.9832592010498048,-2.308903455734253
2024-12-07 16:03:48.225278500,7.820278564453125,1.7052662372589111,-1.215007781982422,-2.025920152664185
2024-12-07 16:03:48.235305700,7.8303056640625,1.9750919342041016,-1.1981573104858398,-1.5872379541397097
2024-12-07 16:03:48.245333200,7.840333251953125,2.190622568130493,-1.2868080139160156,-1.266978740692139
2024-12-07 16:03:48.255360500,7.850360595703125,2.437220335006714,-1.452129364013672,-1.126550555229187
2024-12-07 16:03:48.265388000,7.860387939453125,2.423062801361084,-1.7656707763671875,-0.711026132106781
2024-12-07 16:03:48.275415300,7.870415283203125,2.553653717041016,-2.246298789978028,-0.0992518663406372
2024-12-07 16:03:48.285442800,7.88044287109375,2.7917425632476807,-2.487894058227539,0.557308554649353
2024-12-07 16:03:48.295470000,7.890469970703125,2.7917537689208984,-2.2620067596435547,1.1556600332260132
2024-12-07 16:03:48.305497600,7.90049755859375,2.5690174102783203,-1.6272878646850586,1.3886195421218872
2024-12-07 16:03:48.315524900,7.91052490234375,2.359931945800781,-0.8475885391235352,1.1338704824447632
2024-12-07 16:03:48.325552400,7.920552490234375,2.011493682861328,-0.1003665924072265,0.801807165145874
2024-12-07 16:03:48.335580000,7.930579833984375,1.051496505737305,0.5090293884277344,0.3953106999397278
2024-12-07 16:03:48.345607200,7.940607177734375,-0.3547902703285217,0.9048891067504884,-0.1392370462417602
2024-12-07 16:03:48.355634700,7.950634765625,-1.7848196029663086,1.237065315246582,-0.7071281671524048
2024-12-07 16:03:48.365662200,7.960662109375,-2.7775254249572754,1.4638614654541016,-1.4572396278381348
2024-12-07 16:03:48.375689700,7.970689697265625,-3.093418836593628,1.3949050903320312,-2.018481969833374
2024-12-07 16:03:48.385717000,7.980717041015625,-2.830486297607422,1.0166053771972656,-2.100484609603882
2024-12-07 16:03:48.395744500,7.99074462890625,-1.915389060974121,0.5111274719238281,-1.8613137006759644
2024-12-07 16:03:48.405772000,8.00077197265625,-0.8899613618850708,-0.0072212219238281,-1.5220696926116943
2024-12-07 16:03:48.415799300,8.01079931640625,-0.6049035787582397,-0.4808740615844726,-1.3405455350875854
2024-12-07 16:03:48.425826800,8.020826904296875,-0.3592305183410644,-0.9525146484375,-1.5128967761993408
2024-12-07 16:03:48.435854300,8.030854248046875,0.1165128946304321,-1.4377546310424805,-1.4317805767059326
2024-12-07 16:03:48.445881900,8.0408818359375,-0.0859817266464233,-1.8189001083374023,-0.5054513216018677
2024-12-07 16:03:48.455909000,8.0509091796875,-0.2216395139694214,-2.425823211669922,1.050346851348877
2024-12-07 16:03:48.465936600,8.0609365234375,-0.2404003143310547,-2.655026435852051,2.348987579345703
2024-12-07 16:03:48.475964200,8.070964111328125,-0.6210746765136719,-2.324968338012696,3.0126523971557617
2024-12-07 16:03:48.485991400,8.080991455078125,-0.7391504049301147,-1.7282438278198242,3.18563461303711
2024-12-07 16:03:48.496019000,8.09101904296875,-0.5751115083694458,-1.0859432220458984,3.049505710601806
2024-12-07 16:03:48.506046500,8.10104638671875,-0.4683412313461303,-0.5801515579223633,3.19199275970459
2024-12-07 16:03:48.516074000,8.111073974609376,-0.3308079242706299,-0.2335214614868164,3.3453445434570312
2024-12-07 16:03:48.526101200,8.121101318359376,-0.1573336124420166,0.0648002624511718,3.104740619659424
2024-12-07 16:03:48.536128800,8.131128662109376,-0.3385852575302124,0.3966665267944336,2.62245512008667
2024-12-07 16:03:48.546156300,8.14115625,-0.6080328226089478,0.6435108184814453,1.9649162292480469
2024-12-07 16:03:48.556183600,8.15118359375,-0.697280764579773,0.8345823287963867,1.2371482849121094
2024-12-07 16:03:48.566211000,8.161211181640626,-0.703497052192688,1.0415802001953125,0.739804744720459
2024-12-07 16:03:48.576238600,8.171238525390624,-0.6330174207687378,1.3503170013427734,0.1468939781188964
2024-12-07 16:03:48.586266000,8.18126611328125,-0.4829899072647095,1.611790657043457,-0.2382431030273437
2024-12-07 16:03:48.596293400,8.19129345703125,-0.308619737625122,1.835331916809082,-0.154732346534729
2024-12-07 16:03:48.606321000,8.20132080078125,-0.231457233428955,2.092136859893799,-0.1668634414672851
2024-12-07 16:03:48.616348400,8.211348388671874,-0.3328065872192383,2.2534470558166504,0.5306466817855835
2024-12-07 16:03:48.626375700,8.221375732421874,-0.4732519388198852,2.4346818923950195,1.1358002424240112
2024-12-07 16:03:48.636403200,8.2314033203125,-0.6892597675323486,2.564620018005371,1.7391363382339478
2024-12-07 16:03:48.646430500,8.241430419921874,-0.8973186016082764,2.7251462936401367,2.278205156326294
2024-12-07 16:03:48.656458000,8.2514580078125,-0.9389476776123048,2.868567943572998,2.6338019371032715
2024-12-07 16:03:48.666485200,8.2614853515625,-0.8295167684555054,2.875097751617432,2.606846332550049
2024-12-07 16:03:48.676512800,8.2715126953125,-0.6948027610778809,2.949899196624756,2.3377490043640137
2024-12-07 16:03:48.686540000,8.2815400390625,-0.6253619194030762,3.006605625152588,2.038414001464844
2024-12-07 16:03:48.696567600,8.291567626953125,-0.5273314714431763,2.897676944732666,1.7386130094528198
2024-12-07 16:03:48.706594800,8.3015947265625,-0.2127463817596435,2.6188745498657227,1.3539457321166992
2024-12-07 16:03:48.716622300,8.311622314453125,0.0267226696014404,2.132132053375244,0.7241748571395874
2024-12-07 16:03:48.726649600,8.321649658203125,0.3674154281616211,1.408884048461914,0.1049461960792541
2024-12-07 16:03:48.736677000,8.331677001953125,0.9456832408905028,0.4924201965332031,-0.4200027585029602
2024-12-07 16:03:48.746704400,8.341704345703125,1.7318434715270996,-0.6123123168945312,-1.3272697925567627
2024-12-07 16:03:48.756732000,8.35173193359375,2.993115425109864,-1.8011655807495115,-2.464667320251465
2024-12-07 16:03:48.766759200,8.36175927734375,4.146557807922363,-2.656266212463379,-3.8037285804748535
2024-12-07 16:03:48.776786700,8.37178662109375,4.576287746429443,-3.0331125259399414,-5.024142742156982
2024-12-07 16:03:48.786814000,8.38181396484375,4.433932304382324,-2.83377456665039,-5.539849281311035
2024-12-07 16:03:48.796841500,8.391841552734375,3.472795963287353,-2.239871025085449,-4.462480068206787
2024-12-07 16:03:48.806868700,8.40186865234375,2.4364967346191406,-1.5407218933105469,-3.3709464073181152
2024-12-07 16:03:48.816896300,8.411896240234375,1.923470973968506,-1.045370101928711,-3.043766498565674
2024-12-07 16:03:48.826923500,8.421923583984375,1.221269607543945,-0.7533721923828125,-3.067899703979492
2024-12-07 16:03:48.836951000,8.431950927734375,0.2734341621398926,-0.5308589935302734,-2.5229952335357666
2024-12-07 16:03:48.846978300,8.441978271484375,-0.1565642356872558,-0.3431634902954101,-1.142154335975647
2024-12-07 16:03:48.857005800,8.452005859375,0.5886259078979492,-0.5045070648193359,0.6609674692153931
2024-12-07 16:03:48.867033000,8.462033203125,2.1415929794311523,-1.1766386032104492,2.071696758270264
2024-12-07 16:03:48.877060600,8.472060546875,2.699747562408448,-1.7010955810546875,2.1367006301879883
2024-12-07 16:03:48.887087900,8.482087890625,0.0735363960266113,-1.275954246520996,1.0813956260681152
2024-12-07 16:03:48.897115400,8.492115478515625,-3.254347801208496,0.0963859558105468,0.7261709570884705
2024-12-07 16:03:48.907143000,8.502142822265625,-4.99569034576416,1.5032024383544922,2.040135383605957
2024-12-07 16:03:48.917170200,8.512170166015625,-4.112317085266113,2.3950071334838867,4.025362491607666
2024-12-07 16:03:48.927197700,8.52219775390625,-4.029059410095215,2.3256139755249023,5.460472106933594
2024-12-07 16:03:48.937225000,8.532224853515626,-5.044987678527832,1.0969905853271484,6.46461296081543
2024-12-07 16:03:48.947252500,8.54225244140625,-4.846869945526123,-0.4752788543701172,6.765948295593262
2024-12-07 16:03:48.957279700,8.55227978515625,-3.927938938140869,-2.282282829284668,6.558494091033936
2024-12-07 16:03:48.967307300,8.562307373046876,-2.446390390396118,-4.283273696899414,6.050891876220703
2024-12-07 16:03:48.977334500,8.57233447265625,-1.2597686052322388,-5.345218658447266,3.206326484680176
2024-12-07 16:03:48.987362000,8.582362060546876,-1.1354361772537231,-4.809396743774414,-1.9472957849502563
2024-12-07 16:03:48.997389300,8.592389404296876,-0.9006935358047485,-3.716294288635254,-6.017817974090576
2024-12-07 16:03:49.007416800,8.602416748046876,-1.1102887392044067,-2.467443466186523,-6.913179397583008
2024-12-07 16:03:49.017444000,8.612444091796876,-1.5223002433776855,-1.00299072265625,-4.346920967102051
2024-12-07 16:03:49.027471600,8.6224716796875,-1.533103108406067,0.5837030410766602,-1.3427929878234863
2024-12-07 16:03:49.037499000,8.632498779296874,-1.137200951576233,1.6047325134277344,1.1975198984146118
2024-12-07 16:03:49.047526400,8.6425263671875,-0.7542893886566162,1.5967493057250977,3.033811569213867
2024-12-07 16:03:49.057553700,8.6525537109375,-1.201892614364624,1.326150894165039,3.747306346893311
2024-12-07 16:03:49.067581200,8.662581298828124,-1.9052281379699707,0.9901094436645508,3.8313217163085938
2024-12-07 16:03:49.077608400,8.6726083984375,-2.281800031661988,0.3787050247192383,3.436320304870605
2024-12-07 16:03:49.087636000,8.682635986328124,-2.3781449794769287,-0.5128154754638672,2.251781463623047
2024-12-07 16:03:49.097663200,8.692663330078124,-2.4796359539031982,-1.2927274703979492,0.5232728719711304
2024-12-07 16:03:49.107690800,8.702690673828124,-2.529794454574585,-1.731943130493164,-1.0273990631103516
2024-12-07 16:03:49.117718000,8.712718017578124,-2.443054676055908,-1.7163000106811523,-2.287183284759521
2024-12-07 16:03:49.127745500,8.72274560546875,-2.0011210441589355,-1.1940832138061523,-2.9583280086517334
2024-12-07 16:03:49.137772800,8.732772705078125,-1.0915024280548096,-0.5442104339599609,-2.4737138748168945
2024-12-07 16:03:49.147800300,8.74280029296875,-0.1623598337173462,-0.3840837478637695,-1.3656232357025146
2024-12-07 16:03:49.157827600,8.75282763671875,0.1297520399093628,-0.5172462463378906,-0.3659071326255798
2024-12-07 16:03:49.167855000,8.762855224609375,0.0177314281463623,-0.713658332824707,0.2909106016159057
2024-12-07 16:03:49.177882400,8.77288232421875,-0.3207443952560425,-0.7436027526855469,0.7563552260398865
2024-12-07 16:03:49.187910000,8.782909912109375,-0.6154673099517822,-0.6116962432861328,1.058272123336792
2024-12-07 16:03:49.197937200,8.792937255859375,-0.755291759967804,-0.3036975860595703,1.10602605342865
2024-12-07 16:03:49.207964700,8.802964599609375,-0.8456881642341614,0.0510625839233398,1.0335768461227417
2024-12-07 16:03:49.217992000,8.812991943359375,-1.13902485370636,0.43359375,0.9980746507644652
2024-12-07 16:03:49.228019500,8.82301953125,-1.2352502346038818,0.8013534545898438,0.865115761756897
2024-12-07 16:03:49.238047000,8.833046875,-0.9385659694671632,1.0205926895141602,0.6120070815086365
2024-12-07 16:03:49.248074200,8.84307421875,-0.6602259874343872,1.1632165908813477,0.2599808275699615
2024-12-07 16:03:49.258101800,8.853101806640625,-0.172165036201477,1.066645622253418,-0.1551203727722168
2024-12-07 16:03:49.268129000,8.86312890625,-0.0543352365493774,0.7597684860229492,-0.5019321441650391
2024-12-07 16:03:49.278156500,8.873156494140625,-0.1477711200714111,0.4389019012451172,-0.7979629635810852
2024-12-07 16:03:49.288183800,8.883183837890625,-0.2312164306640625,0.1709547042846679,-0.926279842853546
2024-12-07 16:03:49.298211300,8.89321142578125,-0.2424472570419311,0.0704479217529296,-0.671980082988739
2024-12-07 16:03:49.308238600,8.903238525390625,-0.1682599782943725,0.1370201110839843,-0.2057355642318725
2024-12-07 16:03:49.318266000,8.91326611328125,0.0462418794631958,0.3463029861450195,0.0533266067504882
2024-12-07 16:03:49.328293400,8.92329345703125,0.278903603553772,0.6834201812744141,0.1284180581569671
2024-12-07 16:03:49.338321000,8.93332080078125,0.3092238903045654,0.9999618530273438,0.0957379639148712
2024-12-07 16:03:49.348348200,8.94334814453125,0.2005468606948852,1.124128341674805,0.0320646166801452
2024-12-07 16:03:49.358375700,8.953375732421875,0.0891079902648925,0.9897747039794922,0.0903859138488769
2024-12-07 16:03:49.368403000,8.96340283203125,0.2434934377670288,0.6406621932983398,0.2702193856239319
2024-12-07 16:03:49.378430500,8.973430419921876,0.3489000797271728,0.230316162109375,0.4224597811698913
2024-12-07 16:03:49.388457700,8.983457763671876,0.3974784612655639,-0.1836233139038086,0.4464262425899505
2024-12-07 16:03:49.398485200,8.9934853515625,0.2327286005020141,-0.5055427551269531,0.347020149230957
2024-12-07 16:03:49.408512500,9.003512451171876,-0.0913299322128295,-0.7452268600463867,-0.1841730773448944
2024-12-07 16:03:49.418540000,9.0135400390625,-0.5592027902603149,-0.6927566528320312,-0.6750266551971436
2024-12-07 16:03:49.428567300,9.0235673828125,-0.9160174131393432,-0.5254764556884766,-1.072126865386963
2024-12-07 16:03:49.438594800,9.0335947265625,-1.052204966545105,-0.1243038177490234,-1.2931948900222778
2024-12-07 16:03:49.448622000,9.0436220703125,-0.792182981967926,0.2282943725585937,-1.391118407249451
2024-12-07 16:03:49.458649600,9.053649658203126,-0.4541609287261963,0.4653844833374023,-1.3241181373596191
2024-12-07 16:03:49.468676900,9.0636767578125,-0.1726973056793213,0.6445417404174805,-1.204090595245361
2024-12-07 16:03:49.478704400,9.073704345703124,0.1769309043884277,0.660883903503418,-1.128567099571228
2024-12-07 16:03:49.488731600,9.083731689453124,0.5220436453819275,0.4621791839599609,-1.303411602973938
2024-12-07 16:03:49.498759200,9.09375927734375,0.7790241837501526,0.1060256958007812,-1.2900583744049072
2024-12-07 16:03:49.508786400,9.103786376953124,0.9961103796958924,-0.2590551376342773,-1.262580394744873
2024-12-07 16:03:49.518814000,9.11381396484375,1.1913983821868896,-0.6474590301513672,-1.30950665473938
2024-12-07 16:03:49.528841200,9.12384130859375,1.2708988189697266,-0.8679180145263672,-1.1115992069244385
2024-12-07 16:03:49.538868700,9.13386865234375,1.4773612022399902,-0.8253955841064453,-1.1032291650772097
2024-12-07 16:03:49.548896000,9.14389599609375,1.6596522331237793,-0.5302648544311523,-1.1624746322631836
2024-12-07 16:03:49.558923500,9.153923583984374,1.6635887622833252,-0.0787343978881836,-0.9130761623382568
2024-12-07 16:03:49.568951000,9.163950927734374,1.534360408782959,0.2184820175170898,-0.8040094971656799
2024-12-07 16:03:49.578978300,9.173978271484376,1.4613287448883057,0.4285297393798828,-1.2275264263153076
2024-12-07 16:03:49.589005800,9.184005859375,0.9932343363761902,0.3655452728271484,-1.0839868783950806
2024-12-07 16:03:49.599033000,9.194033203125,0.7175864577293396,0.1212272644042968,-1.2067376375198364
2024-12-07 16:03:49.609060600,9.204060546875,0.5444214344024658,-0.4137210845947265,-1.1153371334075928
2024-12-07 16:03:49.619088000,9.214087890625,0.4196760654449463,-0.918309211730957,-1.0772440433502195
2024-12-07 16:03:49.629115400,9.224115478515625,0.4638442397117615,-1.2205810546875,-0.832245409488678
2024-12-07 16:03:49.639142700,9.234142578125,0.7807157039642334,-1.2208480834960938,-0.4168798327445984
2024-12-07 16:03:49.649170200,9.244170166015625,1.1104390621185305,-1.0349149703979492,-0.0289399996399879
2024-12-07 16:03:49.659197400,9.254197509765625,1.7659668922424316,-0.9646062850952148,0.0202902518212795
2024-12-07 16:03:49.669225000,9.264224853515625,2.0550403594970703,-0.9862279891967772,-0.4214663207530975
2024-12-07 16:03:49.679252200,9.274252197265625,1.779799461364746,-1.0281095504760742,-0.8882095217704773
2024-12-07 16:03:49.689279700,9.28427978515625,1.2491328716278076,-0.9087123870849608,-1.1637331247329712
2024-12-07 16:03:49.699307000,9.29430712890625,0.8404512405395508,-0.6904325485229492,-1.1760379076004028
2024-12-07 16:03:49.709334500,9.30433447265625,0.6442818641662598,-0.2825822830200195,-0.8349811434745789
2024-12-07 16:03:49.719361800,9.31436181640625,0.9032450318336488,0.0279922485351562,-0.3531254529953003
2024-12-07 16:03:49.729389300,9.324389404296875,1.5924540758132937,0.1125001907348632,0.005968902260065
2024-12-07 16:03:49.739416600,9.33441650390625,2.3584206104278564,0.0283460617065429,0.209110826253891
2024-12-07 16:03:49.749444000,9.344444091796875,2.656123638153076,0.0092277526855468,0.1572208106517791
2024-12-07 16:03:49.759471400,9.354471435546875,2.124092102050781,0.0880928039550781,-0.1868914812803268
2024-12-07 16:03:49.769499000,9.364498779296875,1.426021695137024,0.306985855102539,-0.4737548828125
2024-12-07 16:03:49.779526100,9.374526123046875,-0.0694586038589477,0.5836257934570312,-0.5720003843307495
2024-12-07 16:03:49.789553700,9.3845537109375,-1.6369210481643677,0.861872673034668,-0.8188623785972595
2024-12-07 16:03:49.799581000,9.394580810546875,-2.799691677093506,1.101853370666504,-1.1687891483306885
2024-12-07 16:03:49.809608400,9.4046083984375,-2.680398941040039,1.2725563049316406,-1.8044999837875368
2024-12-07 16:03:49.819635700,9.4146357421875,-1.7392001152038574,1.226149559020996,-2.274702548980713
2024-12-07 16:03:49.829663200,9.424663330078126,-0.8107818365097046,0.8226957321166992,-1.868577241897583
2024-12-07 16:03:49.839690500,9.4346904296875,-0.9752960205078124,0.2148008346557617,-1.0824015140533447
2024-12-07 16:03:49.849718000,9.444718017578126,-1.6215763092041016,-0.4522514343261719,-0.3568152785301208
2024-12-07 16:03:49.859745300,9.454745361328126,-2.023276090621948,-0.9909381866455078,0.5490521192550659
2024-12-07 16:03:49.869772800,9.464772705078126,-2.16955304145813,-1.3111810684204102,1.6088072061538696
2024-12-07 16:03:49.879800000,9.474800048828126,-2.268280029296875,-1.2847785949707031,2.582031011581421
2024-12-07 16:03:49.889827600,9.48482763671875,-2.10787296295166,-0.9360389709472656,2.911122560501098
2024-12-07 16:03:49.899855000,9.494855224609376,-1.688408136367798,-0.4232645034790039,2.744049310684204
2024-12-07 16:03:49.909882400,9.50488232421875,-1.1804234981536863,0.0184535980224609,2.265460968017578
2024-12-07 16:03:49.919910000,9.514909912109376,-0.6837661266326904,0.2975301742553711,1.7999911308288574
2024-12-07 16:03:49.929937200,9.524937255859374,-0.2971023321151733,0.5378484725952148,1.6243804693222046
2024-12-07 16:03:49.939964700,9.534964599609374,-0.1317410469055175,0.7439508438110352,1.5588178634643557
2024-12-07 16:03:49.949992000,9.544991943359374,-0.0668497085571289,0.7633152008056641,1.5154836177825928
2024-12-07 16:03:49.960019500,9.55501953125,0.0601603984832763,0.5868520736694336,1.3700621128082275
2024-12-07 16:03:49.970046700,9.565046630859374,0.1386113166809082,0.3629665374755859,1.271503448486328
2024-12-07 16:03:49.980074200,9.57507421875,0.0399010181427001,0.2303457260131836,1.2102261781692505
2024-12-07 16:03:49.990101500,9.5851015625,0.0943105220794677,0.1315040588378906,1.1862503290176392
2024-12-07 16:03:50.000129000,9.59512890625,0.347022533416748,0.0993824005126953,1.1549993753433228
2024-12-07 16:03:50.010156300,9.60515625,0.5784800052642822,0.0661153793334961,1.0633549690246582
2024-12-07 16:03:50.020183800,9.615183837890624,0.6895885467529297,0.0500240325927734,0.7788041830062866
2024-12-07 16:03:50.030211000,9.625211181640625,0.551171064376831,-0.0398969650268554,0.4759885668754577
2024-12-07 16:03:50.040238600,9.635238525390625,0.3004152774810791,-0.1504640579223632,-0.0048446059226989
2024-12-07 16:03:50.050265900,9.645265869140625,0.0271317958831787,-0.2714900970458984,-0.4352990686893463
2024-12-07 16:03:50.060293400,9.65529345703125,0.1020691394805908,-0.4119834899902344,-0.6466606855392456
2024-12-07 16:03:50.070320600,9.665320556640625,0.2848472595214844,-0.4718570709228515,-0.6385056376457214
2024-12-07 16:03:50.080348200,9.67534814453125,0.5605895519256592,-0.5279226303100586,-0.5447877645492554
2024-12-07 16:03:50.090375400,9.68537548828125,0.7805542945861816,-0.4752264022827148,-0.2153774499893188
2024-12-07 16:03:50.100403000,9.69540283203125,0.9493157863616944,-0.3283300399780273,0.1727741956710815
2024-12-07 16:03:50.110430200,9.70543017578125,0.9474871158599854,-0.158853530883789,0.2745087742805481
2024-12-07 16:03:50.120457700,9.715457763671877,0.8288891315460205,0.057478904724121,0.2637563943862915
2024-12-07 16:03:50.130485000,9.725485107421877,0.4796202182769775,0.3065605163574219,0.0713235139846801
2024-12-07 16:03:50.140512500,9.735512451171877,-0.2070794105529785,0.3882436752319336,-0.5291834473609924
2024-12-07 16:03:50.150539800,9.745539794921877,-0.5930719375610352,0.3748807907104492,-0.9162346124649048
2024-12-07 16:03:50.160567300,9.7555673828125,-0.907375693321228,0.2668342590332031,-1.350289821624756
2024-12-07 16:03:50.170594600,9.765594482421877,-1.0381559133529663,0.0740766525268554,-1.5101232528686523
2024-12-07 16:03:50.180622000,9.7756220703125,-0.8228479623794556,-0.0645456314086914,-1.4050824642181396
2024-12-07 16:03:50.190649300,9.7856494140625,-0.520653486251831,-0.0584115982055664,-0.9800401926040648
2024-12-07 16:03:50.200676900,9.7956767578125,-0.3474721908569336,-0.0559797286987304,-0.7347323894500732
2024-12-07 16:03:50.210704100,9.8057041015625,-0.1220088005065918,0.047760009765625,-0.2873794436454773
2024-12-07 16:03:50.220731600,9.815731689453123,-0.0026159286499023,0.2481794357299804,0.2076046466827392
2024-12-07 16:03:50.230759000,9.825759033203123,0.0058915615081787,0.5310602188110352,0.4501394033432007
2024-12-07 16:03:50.240786400,9.835786376953124,0.0082423686981201,0.8626995086669922,0.535990834236145
2024-12-07 16:03:50.250814000,9.84581396484375,-0.0858218669891357,1.1045732498168943,0.5521748065948486
2024-12-07 16:03:50.260841200,9.85584130859375,-0.1505987644195556,1.2380285263061523,0.5384860038757324
2024-12-07 16:03:50.270868700,9.86586865234375,-0.0662615299224853,1.163068771362305,0.562711238861084
2024-12-07 16:03:50.280896000,9.87589599609375,0.0895395278930664,0.9706830978393556,0.4720894694328308
2024-12-07 16:03:50.290923500,9.885923583984376,0.4534800052642822,0.7799606323242188,0.277671754360199
2024-12-07 16:03:50.300950800,9.89595068359375,0.8129878044128418,0.6619071960449219,0.0618490576744079
2024-12-07 16:03:50.310978300,9.905978271484376,1.1096031665802002,0.6779460906982422,-0.2405301332473755
2024-12-07 16:03:50.321005600,9.916005615234376,1.504832744598389,0.7460994720458984,-0.5129610300064087
2024-12-07 16:03:50.331033000,9.926033203125,1.8774359226226809,1.0664262771606443,-0.6502160429954529
2024-12-07 16:03:50.341060400,9.936060302734376,2.0738258361816406,1.490340232849121,-0.5601298809051514
2024-12-07 16:03:50.351087900,9.946087890625,2.128110647201538,1.836404800415039,-0.546865701675415
2024-12-07 16:03:50.361115100,9.956115234375,2.104623556137085,2.1005682945251465,-0.8018776774406433
2024-12-07 16:03:50.371142700,9.966142578125,1.9150958061218264,2.192668437957764,-1.227137565612793
2024-12-07 16:03:50.381170000,9.976169921875,1.541846513748169,2.0461983680725098,-1.541879415512085
2024-12-07 16:03:50.391197400,9.986197509765624,1.315908432006836,1.3211174011230469,-2.0314505100250244
2024-12-07 16:03:50.401224700,9.996224609375,0.7316594123840332,0.1178550720214843,-2.021784782409668
2024-12-07 16:03:50.411252200,10.006252197265624,0.3260359764099121,-1.5475215911865234,-1.2588622570037842
2024-12-07 16:03:50.421279500,10.016279541015624,-0.4579825401306152,-3.806711196899414,-0.1159523129463195
2024-12-07 16:03:50.431307000,10.02630712890625,-1.44952392578125,-6.394732475280762,1.0608912706375122
2024-12-07 16:03:50.441334300,10.036334228515624,-2.842712163925171,-8.326732635498047,2.2356348037719727
2024-12-07 16:03:50.451361800,10.04636181640625,-3.612560272216797,-8.32583236694336,3.102100610733032
2024-12-07 16:03:50.461389000,10.05638916015625,-3.372964143753052,-5.400541305541992,3.589241981506348
2024-12-07 16:03:50.471416600,10.06641650390625,-3.250573873519897,-1.4228878021240234,3.742809295654297
2024-12-07 16:03:50.481443800,10.07644384765625,-2.399658203125,1.3139123916625977,3.0655677318573
2024-12-07 16:03:50.491471400,10.086471435546876,-0.4014049768447876,2.8651256561279297,2.856823444366455
2024-12-07 16:03:50.501498600,10.09649853515625,0.5760774612426758,3.911808013916016,2.712994337081909
2024-12-07 16:03:50.511526100,10.106526123046876,0.3608765602111816,4.581223487854004,2.318953275680542
2024-12-07 16:03:50.521553400,10.116553466796876,-0.5726017951965332,4.588791847229004,1.578144669532776
2024-12-07 16:03:50.531581000,10.126580810546876,-1.893366456031799,4.0699782371521,0.9811723828315736
2024-12-07 16:03:50.541608200,10.136608154296876,-3.062500476837158,3.356809139251709,0.7269934415817261
2024-12-07 16:03:50.551635700,10.1466357421875,-3.10193419456482,2.061885356903076,0.5413939952850342
2024-12-07 16:03:50.561663000,10.1566630859375,-2.354877233505249,0.0595693588256835,0.6395975351333618
2024-12-07 16:03:50.571690500,10.1666904296875,-1.7139875888824463,-2.020885467529297,-0.1332287192344665
2024-12-07 16:03:50.581718000,10.176718017578125,-1.4776939153671265,-3.994318008422851,-1.756260871887207
2024-12-07 16:03:50.591745300,10.186745361328123,-0.8711144924163818,-5.183455467224121,-3.702407836914064
2024-12-07 16:03:50.601772800,10.196772705078123,-0.6349074840545654,-4.783499717712402,-5.0506768226623535
2024-12-07 16:03:50.611800000,10.206800048828123,-1.0609705448150637,-3.044230461120605,-4.0794172286987305
2024-12-07 16:03:50.621827600,10.21682763671875,-0.3481520414352417,-0.9877710342407228,-2.483189582824707
2024-12-07 16:03:50.631854800,10.226854736328123,0.3548362255096435,0.6307954788208008,-1.4522825479507446
2024-12-07 16:03:50.641882400,10.23688232421875,0.5555156469345093,1.0854120254516602,0.2580067217350006
2024-12-07 16:03:50.651909600,10.24690966796875,0.7753623723983765,1.2376365661621094,1.6242032051086426
2024-12-07 16:03:50.661937200,10.256937255859375,0.5869380235671997,1.1873388290405271,2.210589408874512
2024-12-07 16:03:50.671964400,10.26696435546875,-0.2031648159027099,0.777348518371582,2.7319653034210205
2024-12-07 16:03:50.681992000,10.276991943359375,-0.8257311582565308,0.3342294692993164,2.666765689849853
2024-12-07 16:03:50.692019200,10.287019287109375,-1.2429776191711426,-0.0552787780761718,2.0808496475219727
2024-12-07 16:03:50.702046700,10.297046630859375,-1.6179169416427612,-0.3957166671752929,1.3293622732162476
2024-12-07 16:03:50.712074000,10.307073974609375,-1.936844825744629,-0.6630630493164062,0.6620134711265564
2024-12-07 16:03:50.722101500,10.3171015625,-2.009982109069824,-0.7521600723266602,0.1406365633010864
2024-12-07 16:03:50.732128800,10.327128662109375,-1.5403518676757812,-0.6156082153320312,-0.2092369794845581
2024-12-07 16:03:50.742156300,10.33715625,-0.7263908982276917,-0.273263931274414,-0.4223113656044006
2024-12-07 16:03:50.752183600,10.34718359375,0.0586977005004882,0.0634012222290039,-0.6033093333244324
2024-12-07 16:03:50.762211000,10.357211181640626,0.4375364780426025,0.2407684326171875,-0.7943963408470154
2024-12-07 16:03:50.772238300,10.36723828125,0.1896429061889648,0.273345947265625,-1.0241327285766602
2024-12-07 16:03:50.782265900,10.377265869140626,-0.365810751914978,0.2048921585083007,-1.1063470840454102
2024-12-07 16:03:50.792293000,10.387293212890626,-0.8613218665122986,0.1795063018798828,-1.0842349529266355
2024-12-07 16:03:50.802320600,10.397320556640626,-1.055980920791626,0.2212772369384765,-0.9151484966278076
2024-12-07 16:03:50.812348000,10.407347900390626,-1.0015777349472046,0.2920904159545898,-0.6298041343688965
2024-12-07 16:03:50.822375400,10.41737548828125,-0.7367791533470154,0.5017805099487305,-0.2968032956123352
2024-12-07 16:03:50.832402700,10.427402587890626,-0.3411510586738586,0.7541208267211914,-0.0700085163116455
2024-12-07 16:03:50.842430200,10.43743017578125,0.0661096572875976,0.9195442199707032,0.0354456901550293
2024-12-07 16:03:50.852457500,10.44745751953125,0.2295398712158203,0.9455280303955078,0.2051698267459869
2024-12-07 16:03:50.862485000,10.457485107421874,0.3128384351730346,0.7514066696166992,0.4570057392120361
2024-12-07 16:03:50.872512300,10.46751220703125,0.3564329147338867,0.3953542709350586,0.7181845307350159
2024-12-07 16:03:50.882539800,10.477539794921874,0.4815856218338012,-0.0742120742797851,0.7774920463562012
2024-12-07 16:03:50.892567000,10.487567138671874,0.5012930631637573,-0.4708499908447265,0.6169945597648621
2024-12-07 16:03:50.902594600,10.497594482421874,0.2528022527694702,-0.6707372665405273,0.2534195184707641
2024-12-07 16:03:50.912622000,10.5076220703125,-0.0865127444267273,-0.6744356155395508,-0.1777710020542144
2024-12-07 16:03:50.922649300,10.5176494140625,-0.3875535726547241,-0.4729585647583008,-0.5268727540969849
2024-12-07 16:03:50.932676900,10.5276767578125,-0.5452859401702881,-0.1146020889282226,-0.7026367783546448
2024-12-07 16:03:50.942704000,10.5377041015625,-0.5887210369110107,0.2808074951171875,-0.7809668779373169
2024-12-07 16:03:50.952731400,10.5477314453125,-0.6457852125167847,0.484048843383789,-0.7334913015365601
2024-12-07 16:03:50.962758700,10.557758544921874,-0.485135018825531,0.3906764984130859,-0.8080830574035645
2024-12-07 16:03:50.972786200,10.5677861328125,-0.1216984987258911,-0.027256965637207,-0.6265760660171509
2024-12-07 16:03:50.982813400,10.5778134765625,0.2439438700675964,-0.4870252609252929,-0.3735869526863098
2024-12-07 16:03:50.992840700,10.5878408203125,0.6177436709403992,-0.7543401718139648,-0.1283404231071472
2024-12-07 16:03:51.002868200,10.5978681640625,1.1504069566726685,-0.7725772857666016,-0.3448384404182434
2024-12-07 16:03:51.012895500,10.6078955078125,1.494518756866455,-0.6237831115722656,-0.5597200393676758
2024-12-07 16:03:51.022922800,10.6179228515625,1.5467846393585205,-0.4232606887817383,-0.777054488658905
2024-12-07 16:03:51.032950300,10.6279501953125,1.477674961090088,-0.10919189453125,-1.2244549989700315
2024-12-07 16:03:51.042977500,10.6379775390625,1.2806832790374756,0.1699514389038086,-1.3542667627334597
2024-12-07 16:03:51.053004800,10.6480048828125,0.7303425073623657,0.4193201065063476,-1.2304383516311646
2024-12-07 16:03:51.063032300,10.6580322265625,0.2229759693145752,0.5341205596923828,-1.2858179807662964
2024-12-07 16:03:51.073059600,10.6680595703125,0.0246970057487487,0.314305305480957,-1.0091279745101929
2024-12-07 16:03:51.083086800,10.6780869140625,0.2754477858543396,0.0378799438476562,-0.828353762626648
2024-12-07 16:03:51.093114400,10.6881142578125,0.9301708340644836,-0.2138805389404297,-0.6731506586074829
2024-12-07 16:03:51.103141600,10.6981416015625,1.5954188108444214,-0.3455696105957031,-0.7277255654335022
2024-12-07 16:03:51.113169000,10.7081689453125,1.9281373023986816,-0.2621889114379883,-0.9996367692947388
2024-12-07 16:03:51.123196200,10.718196044921877,2.011150360107422,-0.0502271652221679,-1.393245816230774
2024-12-07 16:03:51.133223700,10.7282236328125,1.912880301475525,0.1276197433471679,-1.8167850971221924
2024-12-07 16:03:51.143251000,10.7382509765625,1.843680739402771,0.2379722595214843,-2.432263135910034
2024-12-07 16:03:51.153278200,10.7482783203125,1.6086227893829346,0.2187891006469726,-3.063717842102051
2024-12-07 16:03:51.163305700,10.7583056640625,1.5659388303756714,0.0416593551635742,-4.006893634796143
2024-12-07 16:03:51.173333000,10.7683330078125,1.0594701766967771,0.0318822860717773,-4.444455146789551
2024-12-07 16:03:51.183360300,10.7783603515625,0.4023558497428894,-0.0017385482788085,-4.387649059295654
2024-12-07 16:03:51.193387800,10.7883876953125,0.3013237714767456,-0.2643728256225586,-4.200859069824219
2024-12-07 16:03:51.203415000,10.7984150390625,0.6364085078239441,-0.6169719696044922,-3.467207431793213
2024-12-07 16:03:51.213442300,10.8084423828125,1.127983331680298,-1.0259981155395508,-2.726008415222168
2024-12-07 16:03:51.223469800,10.8184697265625,2.189786195755005,-1.529794692993164,-1.9350889921188352
2024-12-07 16:03:51.233497000,10.8284970703125,2.794172525405884,-1.913595199584961,-0.9578838348388672
2024-12-07 16:03:51.243524600,10.838524658203124,2.657064437866211,-1.9821557998657229,0.1123225390911102
2024-12-07 16:03:51.253551900,10.8485517578125,2.363858699798584,-1.765117645263672,1.2140774726867676
2024-12-07 16:03:51.263579400,10.858579345703124,2.1921916007995605,-1.4067773818969729,1.9435317516326904
2024-12-07 16:03:51.273606700,10.868606689453124,2.0786383152008057,-1.122903823852539,2.1971185207366943
2024-12-07 16:03:51.283634200,10.87863427734375,1.563514232635498,-0.9043970108032228,2.4034926891326904
2024-12-07 16:03:51.293661400,10.888661376953126,0.5809836387634277,-0.6557941436767578,2.5739660263061523
2024-12-07 16:03:51.303689000,10.89868896484375,-0.2812569737434387,-0.2000589370727539,2.606900691986084
2024-12-07 16:03:51.313716200,10.90871630859375,-0.7187689542770386,0.3717718124389648,2.43364691734314
2024-12-07 16:03:51.323743700,10.91874365234375,-0.9300273060798644,0.6967411041259766,2.0920259952545166
2024-12-07 16:03:51.333771000,10.92877099609375,-0.652794361114502,0.6758966445922852,1.7188267707824707
2024-12-07 16:03:51.343798500,10.938798583984376,0.0688222646713256,0.1765422821044922,1.4521092176437378
2024-12-07 16:03:51.353825800,10.94882568359375,0.2228600978851318,-0.5759210586547852,0.9766684770584106
2024-12-07 16:03:51.363853300,10.958853271484376,-1.025633692741394,-1.1929931640625,-0.1923691481351852
2024-12-07 16:03:51.373880800,10.968880859375,-2.833168268203736,-1.6347427368164062,-1.1301898956298828
2024-12-07 16:03:51.383908000,10.978908203125,-3.8140430450439458,-1.5945777893066406,-1.8725770711898804
2024-12-07 16:03:51.393935600,10.988935546875,-3.82860803604126,-1.2445135116577148,-2.406119108200073
2024-12-07 16:03:51.403963000,10.998962890625,-2.55678653717041,-0.6322641372680664,-2.699068784713745
2024-12-07 16:03:51.413990400,11.008990478515624,-0.8927028179168701,-0.1230182647705078,-2.0564827919006348
2024-12-07 16:03:51.424017700,11.019017578125,-0.4137117862701416,0.1703920364379882,-0.4396216869354248
2024-12-07 16:03:51.434045200,11.029045166015624,-1.072250247001648,0.4569597244262695,1.208346247673035
2024-12-07 16:03:51.444072400,11.039072509765624,-2.0393755435943604,0.7224483489990234,2.3353476524353027
2024-12-07 16:03:51.454100000,11.049099853515624,-2.9378111362457275,0.9450578689575196,2.8545477390289307
2024-12-07 16:03:51.464127200,11.059127197265624,-2.736358642578125,1.0839881896972656,2.9883086681365967
2024-12-07 16:03:51.474154800,11.06915478515625,-1.3361425399780271,1.134934425354004,3.049147367477417
2024-12-07 16:03:51.484182000,11.07918212890625,0.1027586460113525,1.115839958190918,3.066551923751831
2024-12-07 16:03:51.494209500,11.08920947265625,0.8550300598144531,0.9964027404785156,2.9666013717651367
2024-12-07 16:03:51.504236800,11.09923681640625,0.916102647781372,1.0002555847167969,2.4687280654907227
2024-12-07 16:03:51.514264300,11.109264404296876,0.6810681819915771,1.0930709838867188,1.7890903949737549
2024-12-07 16:03:51.524291600,11.11929150390625,0.2436051368713379,1.1699457168579102,1.2646644115447998
2024-12-07 16:03:51.534319000,11.129319091796877,-0.1107559204101562,1.2745428085327148,1.04445481300354
2024-12-07 16:03:51.544346400,11.139346435546877,-0.4009177684783935,1.268214225769043,0.829437255859375
2024-12-07 16:03:51.554374000,11.149373779296877,-0.3645470142364502,1.1940784454345703,0.6449307203292847
2024-12-07 16:03:51.564401200,11.159401123046877,-0.2425099611282348,1.0234651565551758,0.7708910703659058
2024-12-07 16:03:51.574428700,11.1694287109375,-0.1697690486907959,0.7038660049438477,0.838205873966217
2024-12-07 16:03:51.584456000,11.1794560546875,-0.2363803386688232,0.3886451721191406,0.9990030527114868
2024-12-07 16:03:51.594483500,11.1894833984375,-0.1876287460327148,0.125864028930664,1.0562522411346436
2024-12-07 16:03:51.604510700,11.1995107421875,-0.1005082130432128,-0.0130281448364257,1.1005184650421145
2024-12-07 16:03:51.614538200,11.209538330078123,-0.056391954421997,-0.0952577590942382,1.2175967693328855
2024-12-07 16:03:51.624565500,11.2195654296875,-0.0638411045074462,-0.1351509094238281,1.374060869216919
2024-12-07 16:03:51.634593000,11.229593017578123,0.1221282482147216,-0.1611585617065429,1.5500075817108154
2024-12-07 16:03:51.644620300,11.239620361328123,0.4913387298583984,-0.1972322463989257,1.472527265548706
2024-12-07 16:03:51.654647800,11.249647705078123,0.6277260780334473,-0.2911357879638672,1.1941659450531006
2024-12-07 16:03:51.664675000,11.259675048828123,0.3254826068878174,-0.236668586730957,0.6380789279937744
2024-12-07 16:03:51.674702600,11.26970263671875,0.1948988437652588,-0.12451171875,-0.0238322615623474
2024-12-07 16:03:51.684729900,11.279729736328123,-0.1316373348236084,0.0323066711425781,-0.4649631977081299
2024-12-07 16:03:51.694757400,11.28975732421875,-0.2354705333709716,0.1534252166748047,-0.8400720953941345
2024-12-07 16:03:51.704785000,11.299784912109375,-0.2560346126556396,0.1338672637939453,-1.1494369506835938
2024-12-07 16:03:51.714812200,11.309812255859375,-0.2384090423583984,0.1266183853149414,-1.2870420217514038
2024-12-07 16:03:51.724839700,11.319839599609375,-0.2925755977630615,0.1844377517700195,-1.7342244386672974
2024-12-07 16:03:51.734867000,11.329866943359375,0.0378317832946777,0.2778577804565429,-2.0319302082061768
2024-12-07 16:03:51.744894500,11.33989453125,0.2938375473022461,0.4341058731079101,-2.226458072662353
2024-12-07 16:03:51.754921700,11.349921630859376,0.4321870803833008,0.5570774078369141,-2.2185380458831787
2024-12-07 16:03:51.764949200,11.35994921875,0.6935391426086426,0.5944833755493164,-1.9956278800964355
2024-12-07 16:03:51.774976500,11.3699765625,0.9339654445648192,0.6466341018676758,-1.7671177387237549
2024-12-07 16:03:51.785004000,11.380004150390626,1.193321704864502,0.5214557647705078,-1.4697602987289429
2024-12-07 16:03:51.795031300,11.39003125,1.6121959686279297,0.2524051666259765,-0.9456530213356018
2024-12-07 16:03:51.805058800,11.400058837890626,2.2731311321258545,0.1355295181274414,-0.902121365070343
2024-12-07 16:03:51.815086000,11.410086181640626,2.7205028533935547,0.0076351165771484,-1.2123527526855469
2024-12-07 16:03:51.825113600,11.420113525390626,2.8316009044647217,-0.1266698837280273,-1.501927137374878
2024-12-07 16:03:51.835140900,11.430140869140626,2.9655516147613525,-0.2103309631347656,-1.2997839450836182
2024-12-07 16:03:51.845168400,11.44016845703125,3.1197738647460938,-0.148381233215332,-0.9214839935302734
2024-12-07 16:03:51.855195600,11.450195556640624,3.320452213287353,-0.1278238296508789,-0.8016459345817566
2024-12-07 16:03:51.865223200,11.46022314453125,3.05405068397522,-0.0731382369995117,-1.080241560935974
2024-12-07 16:03:51.875250400,11.47025048828125,1.9130375385284424,-0.1467781066894531,-0.7305912971496582
2024-12-07 16:03:51.885278000,11.48027783203125,0.4417312145233154,-0.3954296112060547,0.280888557434082
2024-12-07 16:03:51.895305200,11.49030517578125,-1.8555734157562256,-0.4536876678466797,1.3781936168670654
2024-12-07 16:03:51.905332700,11.500332763671874,-4.19429349899292,-0.2855129241943359,2.719825983047486
2024-12-07 16:03:51.915360000,11.510360107421874,-6.058911323547363,-0.1844615936279297,4.026796340942383
2024-12-07 16:03:51.925387500,11.520387451171874,-6.608048439025879,-0.4153079986572265,5.225369453430176
2024-12-07 16:03:51.935414800,11.530414794921874,-6.211033821105957,-0.3840999603271484,5.53532600402832
2024-12-07 16:03:51.945442300,11.5404423828125,-5.624494552612305,-0.0389881134033203,5.5465168952941895
2024-12-07 16:03:51.955469600,11.550469482421876,-4.233539581298828,0.5571460723876953,5.784445762634277
2024-12-07 16:03:51.965497000,11.5604970703125,-2.373016119003296,1.0380926132202148,4.564198970794678
2024-12-07 16:03:51.975524400,11.5705244140625,-1.1846522092819214,0.7266216278076172,2.0151891708374023
2024-12-07 16:03:51.985552000,11.5805517578125,-0.4898595809936523,-0.2636289596557617,-0.7250814437866211
2024-12-07 16:03:51.995579100,11.5905791015625,0.7787888050079346,-1.5283317565917969,-3.240219593048096
2024-12-07 16:03:52.005606700,11.600606689453125,1.3094213008880615,-2.7434892654418945,-3.694478034973145
