time,seconds_elapsed,z,y,x
2024-12-07 16:12:55.220463600,0.134463623046875,-1.1949585676193235,1.1849145889282229,-0.4563100337982178
2024-12-07 16:12:55.230407700,0.14440771484375,-1.372726559638977,1.084747314453125,-0.5916236639022827
2024-12-07 16:12:55.240390100,0.15439013671875,-1.405756592750549,0.5328273773193359,0.2034586668014526
2024-12-07 16:12:55.250411300,0.164411376953125,-1.0299054384231567,0.7744503021240234,0.3578115701675415
2024-12-07 16:12:55.260469800,0.1744697265625,-0.9430099725723268,0.3628530502319336,0.0426083803176879
2024-12-07 16:12:55.270563000,0.18456298828125,-1.171775221824646,0.1317567825317382,-0.3160793781280517
2024-12-07 16:12:55.280687400,0.194687255859375,-1.3682944774627686,0.6164102554321289,0.0986523628234863
2024-12-07 16:12:55.290837000,0.2048369140625,-1.604546070098877,0.345773696899414,-0.2326745986938476
2024-12-07 16:12:55.301006300,0.21500634765625,-1.4055192470550537,0.1413908004760742,-0.2741880416870117
2024-12-07 16:12:55.311189000,0.22518896484375,-1.5827404260635376,0.4295120239257812,0.1193957328796386
2024-12-07 16:12:55.321378600,0.235378662109375,-1.4844008684158323,0.4009828567504883,0.4012022018432617
2024-12-07 16:12:55.331565300,0.2455654296875,-1.2788394689559937,0.4080305099487304,0.3665695190429687
2024-12-07 16:12:55.341593300,0.25559326171875,-1.321533441543579,0.3115100860595703,0.0541293621063232
2024-12-07 16:12:55.351621000,0.26562109375,-1.1408941745758057,0.4499425888061523,-0.0750986337661743
2024-12-07 16:12:55.361649200,0.275649169921875,-0.5234964489936829,0.299346923828125,-0.1934356689453125
2024-12-07 16:12:55.371677200,0.28567724609375,-0.4081993103027344,0.2879667282104492,-0.5010881423950195
2024-12-07 16:12:55.381705200,0.295705322265625,-0.3786964416503906,1.3075437545776367,-1.0827449560165403
2024-12-07 16:12:55.391733000,0.30573291015625,-0.2735854387283325,0.9658708572387696,-0.5850093364715576
2024-12-07 16:12:55.401761000,0.315760986328125,-0.583980143070221,0.3731613159179687,-0.5957237482070923
2024-12-07 16:12:55.411789000,0.3257890625,-0.4132006168365478,0.2943325042724609,-0.5539262294769287
2024-12-07 16:12:55.421817000,0.335817138671875,-0.5133799314498901,-0.7638921737670898,-0.1279077529907226
2024-12-07 16:12:55.431844900,0.345844970703125,-0.6708123087882996,-1.283647537231445,-0.4252049922943115
2024-12-07 16:12:55.441873000,0.355872802734375,-0.5053170323371887,-0.898101806640625,-1.1360735893249512
2024-12-07 16:12:55.451901000,0.36590087890625,-0.3129202127456665,-0.4652729034423828,-1.3364121913909912
2024-12-07 16:12:55.461929000,0.375928955078125,-0.0053815841674804,-0.4456787109375,-1.34463632106781
2024-12-07 16:12:55.471956700,0.385956787109375,0.319685697555542,-0.362706184387207,-1.2538282871246338
2024-12-07 16:12:55.481984800,0.39598486328125,0.469469666481018,-0.3156290054321289,-0.9478724002838136
2024-12-07 16:12:55.492012800,0.4060126953125,0.5319275856018066,0.0324993133544921,-0.7428591251373291
2024-12-07 16:12:55.502040800,0.416040771484375,0.7211509943008423,0.3057975769042969,-0.64141845703125
2024-12-07 16:12:55.512068600,0.426068603515625,0.7646399736404419,-0.0770549774169921,-0.4400860071182251
2024-12-07 16:12:55.522096600,0.4360966796875,0.3506913185119629,-0.6190633773803711,-0.2903084754943847
2024-12-07 16:12:55.532124700,0.446124755859375,0.189427375793457,-0.8353996276855469,-0.2842488288879394
2024-12-07 16:12:55.542152700,0.456152587890625,0.2791457176208496,-0.8788547515869141,-0.3677308559417724
2024-12-07 16:12:55.552180500,0.466180419921875,0.3792457580566406,-1.3335800170898438,-0.5011724233627319
2024-12-07 16:12:55.562208500,0.47620849609375,0.1053652763366699,-0.7404966354370117,-1.0792319774627686
2024-12-07 16:12:55.572236500,0.486236572265625,-0.3714607357978821,-0.264322280883789,-0.3738845586776733
2024-12-07 16:12:55.582264600,0.4962646484375,-0.3655468225479126,-0.3130760192871094,0.1218641996383667
2024-12-07 16:12:55.592292400,0.506292236328125,-0.114432692527771,0.0103282928466796,0.0545166730880737
2024-12-07 16:12:55.602320400,0.5163203125,-0.0723267793655395,0.867487907409668,0.4992791414260864
2024-12-07 16:12:55.612348400,0.526348388671875,0.3444929122924804,1.2903318405151367,0.3992190361022949
2024-12-07 16:12:55.622376400,0.53637646484375,0.2947229146957397,-0.5845966339111328,0.9557006359100342
2024-12-07 16:12:55.632404200,0.546404296875,0.1329458951950073,-1.342365264892578,0.71504807472229
2024-12-07 16:12:55.642432300,0.556432373046875,-0.207792043685913,-1.1741399765014648,0.0971794128417968
2024-12-07 16:12:55.652460300,0.566460205078125,-0.3469350337982178,-1.1598138809204102,-0.7266092300415039
2024-12-07 16:12:55.662488300,0.57648828125,-0.5608064532279968,-0.2546844482421875,-1.406894326210022
2024-12-07 16:12:55.672516000,0.58651611328125,-0.8734187483787537,-0.0058174133300781,-0.4134275913238525
2024-12-07 16:12:55.682544000,0.596544189453125,-0.7687609195709229,-0.0241823196411132,-0.3091620206832886
2024-12-07 16:12:55.692572200,0.606572265625,-0.5468215942382812,-0.0278844833374023,-0.1741008758544922
2024-12-07 16:12:55.702600200,0.61660009765625,-0.6144377589225769,-0.0833082199096679,-0.0640822649002075
2024-12-07 16:12:55.712628200,0.626628173828125,-0.5701063871383667,0.2147769927978515,-0.3382961750030517
2024-12-07 16:12:55.722656300,0.63665625,-0.5122971534729004,-0.6646280288696289,0.405095100402832
2024-12-07 16:12:55.732684300,0.646684326171875,-0.3691990971565246,-0.385782241821289,0.0021213293075561
2024-12-07 16:12:55.742712000,0.656712158203125,-0.4948569536209106,-0.2722921371459961,-0.0206319093704223
2024-12-07 16:12:55.752740000,0.666739990234375,-0.6049351692199707,0.2023601531982422,0.7852375507354736
2024-12-07 16:12:55.762768100,0.67676806640625,-0.3391891121864319,0.298227310180664,0.8443331718444824
2024-12-07 16:12:55.772796200,0.686796142578125,0.1374137997627258,0.1755399703979492,1.0163254737854004
2024-12-07 16:12:55.782824200,0.69682421875,0.3024234771728515,-0.2283859252929687,1.0677026510238647
2024-12-07 16:12:55.792852200,0.706852294921875,0.1949732899665832,-0.3151197433471679,1.094862461090088
2024-12-07 16:12:55.802880300,0.71688037109375,0.1046375036239624,-0.3629140853881836,1.2688671350479126
2024-12-07 16:12:55.812908300,0.726908203125,0.1878251433372497,-0.2108898162841797,1.861361742019653
2024-12-07 16:12:55.822936300,0.736936279296875,0.2702065110206604,0.0491514205932617,2.2010815143585205
2024-12-07 16:12:55.832964400,0.74696435546875,0.3836897611618042,1.1578750610351562,2.05910325050354
2024-12-07 16:12:55.842992400,0.756992431640625,0.0835849046707153,0.5720005035400391,1.871291995048523
2024-12-07 16:12:55.853020400,0.7670205078125,0.1090421676635742,-0.2601747512817383,1.1715986728668213
2024-12-07 16:12:55.863048400,0.77704833984375,0.3026525974273681,-0.4437675476074219,0.3344998359680176
2024-12-07 16:12:55.873076500,0.787076416015625,0.1549811363220214,-0.2381925582885742,-0.4627178907394409
2024-12-07 16:12:55.883104500,0.7971044921875,-0.134004533290863,0.3090505599975586,-1.0544205904006958
2024-12-07 16:12:55.893132500,0.807132568359375,-0.5166541337966919,0.7216863632202148,-1.2745105028152466
2024-12-07 16:12:55.903160600,0.81716064453125,-0.7551738023757935,0.5483198165893555,-1.482166409492493
2024-12-07 16:12:55.913188600,0.827188720703125,-0.4594561457633972,0.4816017150878906,-1.7046552896499634
2024-12-07 16:12:55.923216600,0.837216552734375,-0.075107455253601,0.382298469543457,-1.7172874212265017
2024-12-07 16:12:55.933244700,0.84724462890625,0.1905363798141479,0.2882032394409179,-1.7629917860031128
2024-12-07 16:12:55.943272700,0.857272705078125,0.3663806915283203,0.2794275283813476,-1.6512521505355835
2024-12-07 16:12:55.953300700,0.86730078125,0.4393388628959656,0.4639263153076172,-1.5269887447357178
2024-12-07 16:12:55.963328800,0.877328857421875,0.5490268468856812,0.5652999877929688,-1.268302321434021
2024-12-07 16:12:55.973356500,0.8873564453125,0.6799261569976807,0.4099912643432617,-0.6490570306777954
2024-12-07 16:12:55.983384600,0.897384521484375,0.7839205265045166,1.0425662994384766,-0.9451020956039428
2024-12-07 16:12:55.993412600,0.90741259765625,0.5920688509941101,1.2941226959228516,-0.6617372035980225
2024-12-07 16:12:56.003440600,0.917440673828125,0.4547158479690552,0.6156120300292969,-0.4372049570083618
2024-12-07 16:12:56.013468700,0.92746875,0.371265172958374,-0.0169744491577148,-0.6108747720718384
2024-12-07 16:12:56.023496700,0.93749658203125,0.3174270391464233,-0.3346776962280273,-0.8639528751373291
2024-12-07 16:12:56.033524700,0.947524658203125,0.2496882677078247,-0.5261774063110352,-1.135905385017395
2024-12-07 16:12:56.043552800,0.957552734375,0.0309177637100219,-0.7161140441894531,-1.122673511505127
2024-12-07 16:12:56.053580800,0.967580810546875,-0.2358771562576294,-0.5394515991210938,-1.0557194948196411
2024-12-07 16:12:56.063608800,0.97760888671875,-0.2549647092819214,-0.1039791107177734,-0.8465869426727295
2024-12-07 16:12:56.073636900,0.987636962890625,-0.0049346685409545,0.4931859970092773,-0.6170178651809692
2024-12-07 16:12:56.083665000,0.997664794921875,0.4147680401802063,1.0844058990478516,-0.4712034463882446
2024-12-07 16:12:56.093693000,1.00769287109375,0.7440584301948547,1.4612045288085938,-0.2905867099761963
2024-12-07 16:12:56.103721000,1.017720947265625,0.7892680764198303,1.5359420776367188,-0.2571126222610473
2024-12-07 16:12:56.113749000,1.0277490234375,0.7243604063987732,1.4112825393676758,-0.3221632242202759
2024-12-07 16:12:56.123777000,1.037777099609375,0.6265182495117188,1.3451251983642578,-0.5033220052719116
2024-12-07 16:12:56.133805000,1.04780517578125,0.4249181747436523,1.0050716400146484,-0.7623125314712524
2024-12-07 16:12:56.143833000,1.0578330078125,0.1021627187728881,0.8439149856567383,-1.22861647605896
2024-12-07 16:12:56.153861000,1.067861083984375,-0.3008027076721191,0.7552900314331055,-1.6258758306503296
2024-12-07 16:12:56.163889200,1.07788916015625,-0.5804229974746704,0.5253171920776367,-1.7781219482421875
2024-12-07 16:12:56.173917200,1.087917236328125,-0.5284408926963806,-0.0200138092041015,-1.944833278656006
2024-12-07 16:12:56.183945200,1.0979453125,-0.3384774923324585,-0.7599010467529297,-2.1531481742858887
2024-12-07 16:12:56.193973200,1.10797314453125,-0.3480135202407837,-1.2371339797973633,-2.227853298187256
2024-12-07 16:12:56.204001000,1.1180009765625,-0.4231226444244385,-1.2116022109985352,-2.3253211975097656
2024-12-07 16:12:56.214029000,1.128029052734375,0.0882520079612732,-1.586334228515625,-2.3314595222473145
2024-12-07 16:12:56.224057000,1.13805712890625,-0.1301082968711853,-1.4569091796875,-1.803681492805481
2024-12-07 16:12:56.234085000,1.148085205078125,-0.0782897472381591,-0.8366222381591797,-1.5175652503967283
2024-12-07 16:12:56.244113200,1.158113037109375,0.3887812495231628,-0.8556814193725586,-0.9228394031524658
2024-12-07 16:12:56.254141200,1.16814111328125,1.1163020133972168,-0.8289337158203125,0.1602838039398193
2024-12-07 16:12:56.264169200,1.178169189453125,1.7204649448394775,-1.178502082824707,0.8471113443374634
2024-12-07 16:12:56.274197200,1.188197265625,1.780611872673035,-1.5357084274291992,1.3837246894836426
2024-12-07 16:12:56.284225300,1.198225341796875,1.3855228424072266,-1.8813085556030271,2.0324182510375977
2024-12-07 16:12:56.294253300,1.20825341796875,1.1819801330566406,-1.6312170028686523,2.2167840003967285
2024-12-07 16:12:56.304281300,1.21828125,1.4131414890289309,-1.7869529724121094,2.4056687355041504
2024-12-07 16:12:56.314309400,1.228309326171875,1.6346616744995115,-1.9410924911499023,2.4559006690979004
2024-12-07 16:12:56.324337400,1.23833740234375,1.3803410530090332,-1.969766616821289,2.341022491455078
2024-12-07 16:12:56.334365400,1.248365478515625,0.7244285345077515,-2.0068559646606445,2.0542118549346924
2024-12-07 16:12:56.344393500,1.2583935546875,0.6839544773101807,-1.1840934753417969,0.6641848087310791
2024-12-07 16:12:56.354421500,1.26842138671875,0.8178238868713379,-1.262324333190918,0.090808629989624
2024-12-07 16:12:56.364449500,1.278449462890625,0.8736313581466675,-0.7706289291381836,0.4455236196517944
2024-12-07 16:12:56.374477600,1.2884775390625,0.8868327140808105,-0.2167224884033203,0.5130565166473389
2024-12-07 16:12:56.384505600,1.298505615234375,0.6682405471801758,0.1896200180053711,0.8774127960205078
2024-12-07 16:12:56.394533600,1.30853369140625,0.2723581790924072,0.478271484375,1.302398681640625
2024-12-07 16:12:56.404561700,1.318561767578125,0.2284626960754394,0.7168807983398438,1.3731441497802734
2024-12-07 16:12:56.414589400,1.32858935546875,0.4415065050125122,0.8674812316894531,1.1255289316177368
2024-12-07 16:12:56.424617500,1.338617431640625,0.1538008451461792,0.7212419509887695,0.8632776737213135
2024-12-07 16:12:56.434645500,1.3486455078125,-0.3992542028427124,0.4420537948608398,0.6084970235824585
2024-12-07 16:12:56.444673500,1.358673583984375,-0.8765468597412109,0.1165018081665039,0.3819496035575866
2024-12-07 16:12:56.454701300,1.368701416015625,-1.3104145526885986,-0.5112848281860352,0.4392695426940918
2024-12-07 16:12:56.464729300,1.378729248046875,-1.611700415611267,-1.0811586380004885,0.9445236921310424
2024-12-07 16:12:56.474757400,1.38875732421875,-1.5973745584487915,-1.2745122909545898,1.3465760946273804
2024-12-07 16:12:56.484785400,1.398785400390625,-1.677254319190979,-1.4125795364379885,1.7260141372680664
2024-12-07 16:12:56.494813200,1.408813232421875,-1.8432352542877195,-1.4387731552124023,1.9640263319015503
2024-12-07 16:12:56.504841200,1.41884130859375,-1.9143548011779783,-1.2097806930541992,1.9579966068267824
2024-12-07 16:12:56.514869200,1.428869140625,-1.5775701999664309,0.0484685897827148,1.465479850769043
2024-12-07 16:12:56.524897300,1.438897216796875,-0.7910038232803345,1.42095947265625,0.5976036787033081
2024-12-07 16:12:56.534925000,1.448925048828125,0.360708475112915,1.3161191940307615,0.3893512189388275
2024-12-07 16:12:56.544953000,1.458953125,0.6776149272918701,0.7672576904296875,0.069764494895935
2024-12-07 16:12:56.554981000,1.468981201171875,-0.2157566547393798,0.180328369140625,-0.3713693022727966
2024-12-07 16:12:56.565009200,1.479009033203125,-1.5166075229644775,0.162302017211914,0.2970386147499084
2024-12-07 16:12:56.575037000,1.489036865234375,-1.838706135749817,0.4650526046752929,1.079842209815979
2024-12-07 16:12:56.585065000,1.49906494140625,-1.4175865650177002,0.8010673522949219,1.4322905540466309
2024-12-07 16:12:56.595093000,1.509093017578125,-1.0643967390060425,1.1930418014526367,1.6953870058059692
2024-12-07 16:12:56.605121000,1.51912109375,-0.8507729768753052,1.1552619934082031,2.0186469554901123
2024-12-07 16:12:56.615148800,1.529148681640625,-0.6307964324951172,1.0898160934448242,1.8126420974731443
2024-12-07 16:12:56.625176800,1.5391767578125,-0.1737985610961914,0.9775552749633788,0.3867610096931457
2024-12-07 16:12:56.635204900,1.549204833984375,-0.042715311050415,0.7234420776367188,-0.3876919150352478
2024-12-07 16:12:56.645233000,1.55923291015625,-0.2478586435317993,0.6093072891235352,-0.5550452470779419
2024-12-07 16:12:56.655260700,1.5692607421875,-0.2295483350753784,0.4773588180541992,-0.4649111330509186
2024-12-07 16:12:56.665288700,1.579288818359375,-0.2025872468948364,0.3516559600830078,-0.4477503299713135
2024-12-07 16:12:56.675316700,1.589316650390625,-0.1139341592788696,0.1752252578735351,-0.2469636797904968
2024-12-07 16:12:56.685344800,1.5993447265625,0.206429123878479,0.0290861129760742,0.0590997338294982
2024-12-07 16:12:56.695372500,1.60937255859375,0.5227771997451782,-0.0014724731445312,0.3245020806789398
2024-12-07 16:12:56.705400600,1.619400634765625,0.8194879293441772,0.0921001434326171,0.4908164739608764
2024-12-07 16:12:56.715428600,1.6294287109375,1.0990893840789795,0.1753997802734375,0.6282984614372253
2024-12-07 16:12:56.725456600,1.63945654296875,1.1158168315887451,0.2430667877197265,0.5436347126960754
2024-12-07 16:12:56.735484400,1.649484375,0.8073755502700806,0.270909309387207,0.2943336963653564
2024-12-07 16:12:56.745512400,1.659512451171875,0.423255443572998,0.2400760650634765,0.027424931526184
2024-12-07 16:12:56.755540500,1.66954052734375,0.0285620689392089,0.1466474533081054,-0.269018292427063
2024-12-07 16:12:56.765568500,1.679568603515625,-0.1872198581695556,0.0154314041137695,-0.5119113922119141
2024-12-07 16:12:56.775596300,1.68959619140625,-0.0936177968978881,-0.1433334350585937,-0.6772910952568054
2024-12-07 16:12:56.785624300,1.699624267578125,0.4846371412277221,-0.4674873352050781,-0.9306378364562988
2024-12-07 16:12:56.795652400,1.70965234375,1.3722771406173706,-0.8944673538208008,-0.8677689433097839
2024-12-07 16:12:56.805680400,1.719680419921875,1.8288456201553345,-1.0296354293823242,-0.7256131172180176
2024-12-07 16:12:56.815708200,1.729708251953125,1.4642828702926636,-0.8711824417114258,-0.615782618522644
2024-12-07 16:12:56.825736200,1.739736083984375,0.7414591312408447,-0.6157369613647461,-0.3594830632209778
2024-12-07 16:12:56.835764200,1.74976416015625,0.5499076843261719,-0.3442821502685547,0.2919353544712066
2024-12-07 16:12:56.845792300,1.759792236328125,0.7265640497207642,-0.0047454833984375,1.2802081108093262
2024-12-07 16:12:56.855820300,1.7698203125,0.765630841255188,0.4317359924316406,2.0932297706604004
2024-12-07 16:12:56.865848300,1.779848388671875,0.6348274946212769,0.9421558380126952,2.546872138977051
2024-12-07 16:12:56.875876400,1.78987646484375,0.5078310966491699,1.4894723892211914,2.5974838733673096
2024-12-07 16:12:56.885904400,1.799904296875,0.4825007915496826,1.974137306213379,2.256218910217285
2024-12-07 16:12:56.895932400,1.809932373046875,0.3965319395065307,2.2061314582824707,1.525146245956421
2024-12-07 16:12:56.905960400,1.81996044921875,0.0036948919296264,2.114265918731689,0.2218013405799865
2024-12-07 16:12:56.915988500,1.829988525390625,-0.8355178236961365,1.9429597854614256,-0.8921523094177246
2024-12-07 16:12:56.926016500,1.8400166015625,-1.570972561836243,1.7407770156860352,-1.7799558639526367
2024-12-07 16:12:56.936044500,1.85004443359375,-1.7348936796188354,1.5078744888305664,-2.244047403335572
2024-12-07 16:12:56.946072600,1.860072509765625,-1.3011817932128906,1.248154640197754,-1.9884462356567385
2024-12-07 16:12:56.956100600,1.8701005859375,-0.5716389417648315,0.9281406402587892,-1.3215785026550293
2024-12-07 16:12:56.966128600,1.880128662109375,0.0973497629165649,0.5241003036499023,-0.7005969882011414
2024-12-07 16:12:56.976156700,1.89015673828125,0.5424627065658569,0.1647882461547851,-0.1016303896903991
2024-12-07 16:12:56.986184700,1.900184814453125,0.8348268270492554,-0.1597423553466797,0.5888994932174683
2024-12-07 16:12:56.996212700,1.910212646484375,0.8635561466217041,-0.6689367294311523,1.3825993537902832
2024-12-07 16:12:57.006240800,1.92024072265625,0.90619695186615,-1.4568634033203125,2.070895195007324
2024-12-07 16:12:57.016268800,1.930268798828125,0.977393627166748,-2.531440734863281,2.5619611740112305
2024-12-07 16:12:57.026296800,1.940296875,0.9588665962219238,-3.1528396606445312,2.566259384155273
2024-12-07 16:12:57.036324900,1.950324951171875,0.5481411218643188,-2.90896987915039,1.9168248176574707
2024-12-07 16:12:57.046352600,1.9603525390625,-0.0551948547363281,-1.9709548950195312,0.7586913704872131
2024-12-07 16:12:57.056380700,1.970380615234375,-0.678233802318573,-0.7998847961425781,-0.7041738629341125
2024-12-07 16:12:57.066408700,1.98040869140625,-1.022418737411499,0.0738658905029296,-1.8686678409576416
2024-12-07 16:12:57.076436700,1.990436767578125,-1.1256752014160156,0.5466470718383789,-2.345045804977417
2024-12-07 16:12:57.086464800,2.00046484375,-1.7418417930603027,0.5541057586669922,-2.022393226623535
2024-12-07 16:12:57.096492800,2.010492919921875,-2.1862552165985107,0.4140472412109375,-1.8663301467895508
2024-12-07 16:12:57.106520800,2.020520751953125,-1.6664972305297852,0.2513294219970703,-1.7454525232315063
2024-12-07 16:12:57.116548900,2.030548828125,-0.964755654335022,0.3518180847167969,-1.098064422607422
2024-12-07 16:12:57.126577000,2.040576904296875,-0.4825223684310913,0.5379838943481445,-0.5584961175918579
2024-12-07 16:12:57.136605000,2.05060498046875,-0.0097094774246215,0.64739990234375,-0.209010511636734
2024-12-07 16:12:57.146633000,2.060633056640625,0.3980932235717773,0.5656614303588867,0.0177898108959198
2024-12-07 16:12:57.156661000,2.070660888671875,0.4479076862335205,0.2790555953979492,0.0368463993072509
2024-12-07 16:12:57.166689000,2.08068896484375,0.1086575984954834,0.0697469711303711,-0.0737762749195098
2024-12-07 16:12:57.176717000,2.090717041015625,-0.17649507522583,-0.0909013748168945,-0.4030482172966003
2024-12-07 16:12:57.186745000,2.1007451171875,-0.1336846351623535,-0.2656497955322265,-0.6867837905883789
2024-12-07 16:12:57.196773000,2.110773193359375,-0.5953931212425232,-0.2633962631225586,-0.5590465664863586
2024-12-07 16:12:57.206801200,2.12080126953125,-0.7449610233306885,-0.2750797271728515,-0.3651134669780731
2024-12-07 16:12:57.216829200,2.1308291015625,-0.4321487545967102,-0.3913450241088867,-0.0570957660675048
2024-12-07 16:12:57.226857200,2.140857177734375,-0.1039471626281738,-0.5022411346435547,0.2674071788787842
2024-12-07 16:12:57.236885200,2.15088525390625,0.1940803527832031,-0.4412164688110351,0.5440248847007751
2024-12-07 16:12:57.246913300,2.160913330078125,0.3697880506515503,-0.3139848709106445,0.7465091347694397
2024-12-07 16:12:57.256941300,2.17094140625,0.3523346185684204,-0.1493206024169922,0.6639264822006226
2024-12-07 16:12:57.266969300,2.18096923828125,0.26197350025177,0.0240774154663085,0.4782854914665222
2024-12-07 16:12:57.276997000,2.1909970703125,-0.0212446451187133,0.1726760864257812,0.1952821314334869
2024-12-07 16:12:57.287025200,2.201025146484375,-0.5238889455795288,0.2966499328613281,-0.0306573510169982
2024-12-07 16:12:57.297053200,2.21105322265625,-0.7506524324417114,0.3105878829956054,-0.1215864419937133
2024-12-07 16:12:57.307081200,2.221081298828125,-0.669613242149353,0.2387714385986328,-0.1444544196128845
2024-12-07 16:12:57.317109200,2.231109130859375,-0.5748714208602905,0.1099786758422851,-0.133132517337799
2024-12-07 16:12:57.327137300,2.24113720703125,-0.7237152457237244,-0.0324478149414062,0.162235140800476
2024-12-07 16:12:57.337165300,2.251165283203125,-0.539708137512207,-0.274449348449707,-0.0262792110443115
2024-12-07 16:12:57.347193300,2.261193359375,-0.711098849773407,-0.3964290618896484,-0.1469457745552063
2024-12-07 16:12:57.357221400,2.271221435546875,-1.024675726890564,-0.4178686141967773,-0.3277825713157654
2024-12-07 16:12:57.367249400,2.28124951171875,-1.278316617012024,-0.3868722915649414,-0.314371109008789
2024-12-07 16:12:57.377277400,2.29127734375,-1.4664456844329834,-0.2177610397338867,-0.0839792490005493
2024-12-07 16:12:57.387305200,2.30130517578125,-1.4782474040985107,-0.0205888748168945,0.3803774416446686
2024-12-07 16:12:57.397333200,2.311333251953125,-1.2106971740722656,0.1711673736572265,0.8278841376304626
2024-12-07 16:12:57.407361300,2.321361328125,-0.8571830987930298,0.2955999374389648,1.3324503898620603
2024-12-07 16:12:57.417389300,2.331389404296875,-0.4667266607284546,0.2244787216186523,1.8378103971481323
2024-12-07 16:12:57.427417000,2.3414169921875,0.1069926023483276,-0.0747909545898437,1.6807575225830078
2024-12-07 16:12:57.437445000,2.351445068359375,0.4219446182250976,-0.2868871688842773,1.4377727508544922
2024-12-07 16:12:57.447473200,2.36147314453125,0.3134915232658386,-0.4026908874511719,0.9727007150650024
2024-12-07 16:12:57.457501200,2.371501220703125,0.0285287499427795,-0.2414493560791015,0.484207808971405
2024-12-07 16:12:57.467529000,2.381529052734375,-0.3733976483345032,0.0241279602050781,0.1345160603523254
2024-12-07 16:12:57.477557000,2.391556884765625,-0.5050449371337891,0.1360769271850586,-0.342688500881195
2024-12-07 16:12:57.487585000,2.4015849609375,-0.4748021960258484,0.1233606338500976,-0.4777143001556396
2024-12-07 16:12:57.497613000,2.411613037109375,-0.3600853085517883,0.0343303680419921,-0.3031812310218811
2024-12-07 16:12:57.507640800,2.421640869140625,-0.1415526270866394,-0.0493803024291992,-0.1718252897262573
2024-12-07 16:12:57.517668900,2.4316689453125,0.2645117044448852,-0.2234010696411132,-0.386871874332428
2024-12-07 16:12:57.527697000,2.44169677734375,0.4748295545578003,-0.3253746032714844,-0.5403068661689758
2024-12-07 16:12:57.537725000,2.451724853515625,0.557964563369751,-0.3174667358398437,-0.6214416027069092
2024-12-07 16:12:57.547752700,2.461752685546875,0.5677927732467651,-0.2335119247436523,-0.6198042631149292
2024-12-07 16:12:57.557780700,2.47178076171875,0.5284563899040222,-0.1405973434448242,-0.6211220622062683
2024-12-07 16:12:57.567808800,2.481808837890625,0.2682661414146423,0.0232086181640625,-0.5390055179595947
2024-12-07 16:12:57.577836800,2.4918369140625,-0.2200668156147003,0.0860815048217773,-0.3555625677108764
2024-12-07 16:12:57.587864600,2.501864501953125,-0.6292421817779541,0.0103712081909179,-0.1810780167579651
2024-12-07 16:12:57.597892600,2.511892578125,-0.925500988960266,-0.0697278976440429,0.0547447800636291
2024-12-07 16:12:57.607920600,2.521920654296875,-1.089266061782837,-0.0539169311523437,0.1782639324665069
2024-12-07 16:12:57.617948700,2.53194873046875,-0.9217085838317872,-0.0476856231689453,-0.1175760924816131
2024-12-07 16:12:57.627976400,2.5419765625,-0.9386687874794006,0.0443830490112304,0.1903567463159561
2024-12-07 16:12:57.638004500,2.55200439453125,-0.8927516937255859,0.2508497238159179,0.7729648351669312
2024-12-07 16:12:57.648032500,2.562032470703125,-0.1355760097503662,0.0752191543579101,0.7799210548400879
2024-12-07 16:12:57.658060500,2.572060546875,0.5680484771728516,-0.071115493774414,0.9735673666000366
2024-12-07 16:12:57.668088300,2.58208837890625,0.9742429852485656,-0.2073335647583007,1.2512321472167969
2024-12-07 16:12:57.678116400,2.592116455078125,1.4073387384414673,-0.3525629043579101,1.496464729309082
2024-12-07 16:12:57.688144400,2.602144287109375,1.6817115545272827,-0.5116815567016602,1.3499276638031006
2024-12-07 16:12:57.698172400,2.61217236328125,1.371470332145691,-0.6513376235961914,0.8750801086425781
2024-12-07 16:12:57.708200200,2.6222001953125,0.7768657803535461,-0.7428960800170898,0.2584727108478546
2024-12-07 16:12:57.718228200,2.632228271484375,0.321591854095459,-0.8867111206054688,-0.6388394832611084
2024-12-07 16:12:57.728256300,2.64225634765625,-0.0405866801738739,-0.915593147277832,-1.198744773864746
2024-12-07 16:12:57.738284300,2.6522841796875,-0.1380479484796524,-0.9349250793457032,-1.502581000328064
2024-12-07 16:12:57.748312000,2.66231201171875,-0.1432469487190246,-1.0067024230957031,-1.6065938472747805
2024-12-07 16:12:57.758340000,2.672340087890625,0.0907925367355346,-1.111699104309082,-1.934584140777588
2024-12-07 16:12:57.768368000,2.6823681640625,0.4230360984802246,-1.2164840698242188,-2.076679229736328
2024-12-07 16:12:57.778396200,2.692396240234375,0.7373727560043335,-1.2590703964233398,-2.04538893699646
2024-12-07 16:12:57.788424200,2.702424072265625,0.7193278670310974,-0.9820404052734376,-1.440707445144653
2024-12-07 16:12:57.798452000,2.712451904296875,0.7575370073318481,-0.6965980529785156,-0.901253581047058
2024-12-07 16:12:57.808480000,2.72247998046875,0.8597373962402344,-0.5077533721923828,-0.3368217945098877
2024-12-07 16:12:57.818508000,2.732508056640625,0.8952876329421997,-0.2863702774047851,0.2499917447566986
2024-12-07 16:12:57.828536000,2.7425361328125,0.9537948369979858,-0.0230655670166015,0.6611673831939697
2024-12-07 16:12:57.838563800,2.752563720703125,1.1384334564208984,0.2246856689453125,0.8921924829483032
2024-12-07 16:12:57.848592000,2.762591796875,1.4809809923171997,0.4997978210449219,1.0203750133514404
2024-12-07 16:12:57.858620000,2.772619873046875,1.7440563440322876,0.968963623046875,1.2223939895629885
2024-12-07 16:12:57.868648000,2.78264794921875,1.6061276197433472,1.1398239135742188,1.2964162826538086
2024-12-07 16:12:57.878675700,2.79267578125,1.581942796707153,1.2042303085327148,0.9952406287193298
2024-12-07 16:12:57.888703700,2.802703857421875,1.7064166069030762,1.243608474731445,0.6187049746513367
2024-12-07 16:12:57.898731800,2.812731689453125,1.4921681880950928,1.0336370468139648,0.3122161626815796
2024-12-07 16:12:57.908759800,2.822759765625,0.3942242860794067,0.7322988510131836,0.1765286475419998
2024-12-07 16:12:57.918787800,2.832787841796875,-1.8235924243927,0.378143310546875,0.2905563116073608
2024-12-07 16:12:57.928815900,2.84281591796875,-4.188071250915527,0.2537412643432617,0.0344862788915634
2024-12-07 16:12:57.938844000,2.852843994140625,-5.895647048950195,0.2981595993041992,-1.0378113985061646
2024-12-07 16:12:57.948872000,2.862871826171875,-6.148796081542969,0.1935291290283203,-2.351407051086426
2024-12-07 16:12:57.958900000,2.87289990234375,-4.098865985870361,-0.292764663696289,-3.25864839553833
2024-12-07 16:12:57.968928000,2.882927978515625,-0.5328381061553955,-0.908381462097168,-4.48909330368042
2024-12-07 16:12:57.978956000,2.8929560546875,1.899275779724121,-1.3977251052856443,-4.967149257659912
2024-12-07 16:12:57.988984000,2.902984130859375,3.06278133392334,-1.9010553359985352,-4.398372650146484
2024-12-07 16:12:57.999012000,2.91301220703125,3.951607227325439,-2.1424665451049805,-2.584773540496826
2024-12-07 16:12:58.009040100,2.9230400390625,4.074855804443359,-1.7984542846679688,0.9730387926101683
2024-12-07 16:12:58.019068200,2.933068115234375,3.813183307647705,-1.0852718353271484,3.658368349075317
2024-12-07 16:12:58.029096200,2.94309619140625,3.124297380447388,-0.3091459274291992,5.124215602874756
2024-12-07 16:12:58.039124200,2.953124267578125,2.304037094116211,0.2673273086547851,4.996413230895996
2024-12-07 16:12:58.049152300,2.96315234375,1.1639631986618042,0.702113151550293,4.201140403747559
2024-12-07 16:12:58.059180000,2.973179931640625,0.0632386207580566,0.8866987228393555,3.5095818042755127
2024-12-07 16:12:58.069208000,2.9832080078125,-0.4791538715362549,1.0224828720092771,2.301229238510132
2024-12-07 16:12:58.079236000,2.993236083984375,-0.955954372882843,0.951951026916504,1.370403528213501
2024-12-07 16:12:58.089264000,3.00326416015625,-1.2736866474151611,0.7477960586547852,0.7136572599411011
2024-12-07 16:12:58.099292200,3.013292236328125,-1.3545403480529783,0.5541133880615234,0.2960239946842193
2024-12-07 16:12:58.109320200,3.0233203125,-1.155521273612976,0.3903369903564453,-0.0196538623422384
2024-12-07 16:12:58.119348200,3.03334814453125,-0.669186532497406,0.2373161315917968,-0.3331948220729828
2024-12-07 16:12:58.129376300,3.043376220703125,-0.0762156248092651,0.1375904083251953,-0.62132728099823
2024-12-07 16:12:58.139404300,3.053404296875,0.3097264766693115,0.1048183441162109,-0.7238729000091553
2024-12-07 16:12:58.149432300,3.063432373046875,0.4108041524887085,0.0858850479125976,-1.042993664741516
2024-12-07 16:12:58.159460400,3.07346044921875,0.3245543241500854,0.0904560089111328,-1.1874719858169556
2024-12-07 16:12:58.169488400,3.08348828125,0.0578879117965698,-0.0006093978881835,-1.1205618381500244
2024-12-07 16:12:58.179516400,3.093516357421875,-0.4442709684371948,-0.0387430191040039,-0.9479581117630004
2024-12-07 16:12:58.189544400,3.10354443359375,-0.7118105888366699,0.1337146759033203,-0.7325297594070435
2024-12-07 16:12:58.199572500,3.113572509765625,-0.7975238561630249,0.4159860610961914,-0.4669446647167206
2024-12-07 16:12:58.209600500,3.1236005859375,-0.9959146976470948,0.7174892425537109,-0.4622667729854584
2024-12-07 16:12:58.219628500,3.133628662109375,-1.0613858699798584,0.9001760482788086,-0.3877533078193664
2024-12-07 16:12:58.229656600,3.143656494140625,-0.9759548902511596,1.0263738632202148,-0.2247969806194305
2024-12-07 16:12:58.239684600,3.1536845703125,-0.8174047470092773,1.1056528091430664,-0.1182876378297805
2024-12-07 16:12:58.249712600,3.163712646484375,-0.5622336864471436,1.1620521545410156,-0.2891928553581238
2024-12-07 16:12:58.259740700,3.17374072265625,-0.1641569137573242,1.0999774932861328,-0.3939620554447174
2024-12-07 16:12:58.269768700,3.183768798828125,0.1347177028656005,0.9144325256347656,-0.4385214149951935
2024-12-07 16:12:58.279796700,3.193796630859375,0.3426113128662109,0.7487239837646484,-0.5103908181190491
2024-12-07 16:12:58.289824500,3.203824462890625,0.5935714244842529,0.5360603332519531,-0.500687837600708
2024-12-07 16:12:58.299852500,3.2138525390625,1.0252666473388672,0.2908267974853515,-0.3909826576709747
2024-12-07 16:12:58.309880600,3.223880615234375,1.3728055953979492,0.2037267684936523,-0.2488378882408142
2024-12-07 16:12:58.319908600,3.23390869140625,1.3159823417663574,0.2789058685302734,-0.3317304849624634
2024-12-07 16:12:58.329936600,3.2439365234375,0.7602572441101074,0.4917583465576172,-0.4968080222606659
2024-12-07 16:12:58.339964700,3.253964599609375,0.0544807910919189,0.7852516174316406,-0.4696035981178283
2024-12-07 16:12:58.349992400,3.263992431640625,-0.2209342718124389,1.0021276473999023,-0.2268766462802887
2024-12-07 16:12:58.360020500,3.2740205078125,-0.0814375877380371,1.0806655883789062,0.0913081169128418
2024-12-07 16:12:58.370048500,3.284048583984375,-0.039884328842163,1.0020227432250977,0.3606254160404205
2024-12-07 16:12:58.380076500,3.29407666015625,0.0532314777374267,0.7526655197143555,0.6232792139053345
2024-12-07 16:12:58.390104300,3.304104248046875,0.5451564788818359,0.33294677734375,0.8016161918640137
2024-12-07 16:12:58.400132400,3.31413232421875,1.063720464706421,-0.1378898620605468,0.8271510601043701
2024-12-07 16:12:58.410160400,3.324160400390625,1.3056845664978027,-0.5504074096679688,0.6766129732131958
2024-12-07 16:12:58.420188400,3.3341884765625,1.4660849571228027,-0.8288488388061523,0.4482550323009491
2024-12-07 16:12:58.430216200,3.34421630859375,1.3823211193084717,-1.0025138854980469,0.3071418702602386
2024-12-07 16:12:58.440244200,3.354244140625,1.0994863510131836,-1.0476799011230469,0.2456605732440948
2024-12-07 16:12:58.450272300,3.364272216796875,0.7827732563018799,-1.083632469177246,0.3786210715770721
2024-12-07 16:12:58.460300300,3.37430029296875,0.4297103881835937,-1.2196874618530271,0.623283863067627
2024-12-07 16:12:58.470328000,3.384328125,0.2268586158752441,-1.4362859725952148,0.9487563371658324
2024-12-07 16:12:58.480356000,3.394356201171875,0.095942735671997,-1.547224044799805,1.257887363433838
2024-12-07 16:12:58.490384100,3.404384033203125,-0.1266319751739502,-1.338129997253418,1.4109728336334229
2024-12-07 16:12:58.500412200,3.414412109375,-0.5553076267242432,-0.8243179321289062,1.3658883571624756
2024-12-07 16:12:58.510440000,3.42443994140625,-1.0962982177734375,-0.1828079223632812,1.3572421073913574
2024-12-07 16:12:58.520468000,3.434468017578125,-1.465447187423706,0.4290180206298828,1.3930203914642334
2024-12-07 16:12:58.530496000,3.44449609375,-1.557255506515503,0.8921566009521484,1.371784210205078
2024-12-07 16:12:58.540524000,3.45452392578125,-1.5345611572265625,1.073442459106445,1.3217480182647705
2024-12-07 16:12:58.550551800,3.4645517578125,-1.4735562801361084,0.8639822006225586,1.1566953659057615
2024-12-07 16:12:58.560579800,3.474579833984375,-1.2086501121520996,0.5032577514648438,0.8727046251296997
2024-12-07 16:12:58.570607900,3.48460791015625,-0.9057670831680298,0.1007881164550781,0.404609352350235
2024-12-07 16:12:58.580636000,3.494635986328125,-0.7058467864990234,-0.2245779037475586,0.0757855772972107
2024-12-07 16:12:58.590663700,3.50466357421875,-0.7579843997955322,-0.4304361343383789,0.0212960541248321
2024-12-07 16:12:58.600691700,3.514691650390625,-0.8935552835464478,-0.4119405746459961,0.0835790932178497
2024-12-07 16:12:58.610719700,3.5247197265625,-0.839957594871521,-0.3558588027954101,0.3428409099578857
2024-12-07 16:12:58.620747800,3.534747802734375,-0.6363595724105835,-0.2670974731445312,0.7207120656967163
2024-12-07 16:12:58.630775600,3.544775634765625,-0.6640100479125977,-0.1264028549194336,0.8152709007263184
2024-12-07 16:12:58.640803600,3.554803466796875,-0.786597728729248,-0.1006946563720703,0.752870500087738
2024-12-07 16:12:58.650831600,3.56483154296875,-0.6175061464309692,-0.1181297302246093,0.4731923937797546
2024-12-07 16:12:58.660859600,3.574859619140625,-0.4402763843536377,-0.1549053192138672,0.240119457244873
2024-12-07 16:12:58.670887700,3.5848876953125,-0.4550821781158447,-0.0199060440063476,0.0023402124643325
2024-12-07 16:12:58.680915500,3.59491552734375,-0.787545919418335,0.1388959884643554,-0.2391512542963028
2024-12-07 16:12:58.690943500,3.604943603515625,-1.0609626770019531,0.2074766159057617,-0.3930005133152008
2024-12-07 16:12:58.700971500,3.614971435546875,-0.9602506160736084,0.1383380889892578,-0.3925512433052063
2024-12-07 16:12:58.710999600,3.62499951171875,-0.7129466533660889,-0.1019458770751953,-0.1829898357391357
2024-12-07 16:12:58.721027300,3.63502734375,-0.3272264003753662,-0.2889938354492187,-0.035140722990036
2024-12-07 16:12:58.731055400,3.645055419921875,-0.0158222913742065,-0.4328632354736328,0.0629978477954864
2024-12-07 16:12:58.741083400,3.65508349609375,0.2302421331405639,-0.5242214202880859,0.1054892092943191
2024-12-07 16:12:58.751111400,3.665111328125,0.2586365938186645,-0.5201635360717773,0.1066013127565383
2024-12-07 16:12:58.761139200,3.67513916015625,0.1760478019714355,-0.4063968658447265,0.093655064702034
2024-12-07 16:12:58.771167200,3.685167236328125,0.0086321830749511,-0.1828765869140625,0.0333378911018371
2024-12-07 16:12:58.781195300,3.6951953125,-0.1368008852005005,0.0166358947753906,-0.0738691091537475
2024-12-07 16:12:58.791223300,3.705223388671875,-0.2496063709259033,0.1493740081787109,-0.1261466145515442
2024-12-07 16:12:58.801251000,3.7152509765625,-0.2444950342178344,0.1819477081298828,-0.1324844062328338
2024-12-07 16:12:58.811279000,3.725279052734375,-0.40492844581604,0.1907482147216797,-0.2014316916465759
2024-12-07 16:12:58.821307100,3.73530712890625,-0.7426217794418335,0.1474618911743164,-0.1232370287179946
2024-12-07 16:12:58.831335200,3.745335205078125,-0.7394488453865051,-0.0048036575317382,0.1020919904112815
2024-12-07 16:12:58.841363000,3.755363037109375,-0.3663679361343384,-0.1373796463012695,0.1518092602491378
2024-12-07 16:12:58.851391000,3.765390869140625,0.0875283479690551,-0.2560253143310547,0.0511123687028884
2024-12-07 16:12:58.861419000,3.7754189453125,0.2591686248779297,-0.2324686050415039,-0.1498606503009796
2024-12-07 16:12:58.871447000,3.785447021484375,-0.1343218088150024,-0.2529077529907226,-0.2599446773529053
2024-12-07 16:12:58.881474800,3.795474853515625,-0.3331276178359985,-0.230015754699707,-0.5861983299255371
2024-12-07 16:12:58.891502800,3.8055029296875,0.0181611776351928,-0.2351961135864257,-1.0172030925750732
2024-12-07 16:12:58.901531000,3.81553076171875,0.388534665107727,-0.2451086044311523,-1.276716947555542
2024-12-07 16:12:58.911559000,3.825558837890625,0.4341796636581421,-0.1839618682861328,-1.4291690587997437
2024-12-07 16:12:58.921586700,3.835586669921875,0.1403868198394775,-0.0234222412109375,-1.4470725059509275
2024-12-07 16:12:58.931614700,3.84561474609375,-0.2894918918609619,0.2078742980957031,-1.3689310550689695
2024-12-07 16:12:58.941642800,3.855642822265625,-0.7616607546806335,0.4337024688720703,-1.156522512435913
2024-12-07 16:12:58.951670800,3.8656708984375,-0.9923815727233888,0.5874691009521484,-0.9828884601593018
2024-12-07 16:12:58.961698800,3.87569873046875,-1.072516918182373,0.5882339477539062,-0.7435609102249146
2024-12-07 16:12:58.971726800,3.885726806640625,-0.9267796874046326,0.3646631240844726,-0.2965174913406372
2024-12-07 16:12:58.981754600,3.895754638671875,-0.5149769186973572,0.0651187896728515,-0.1070359572768211
2024-12-07 16:12:58.991782700,3.90578271484375,-0.3171555995941162,-0.224456787109375,-0.0881478860974311
2024-12-07 16:12:59.001810700,3.915810791015625,-0.3890842795372009,-0.4371147155761719,-0.199380025267601
2024-12-07 16:12:59.011838700,3.925838623046875,-0.3662124276161194,-0.5968389511108398,-0.3853082656860351
2024-12-07 16:12:59.021866800,3.93586669921875,-0.572920560836792,-0.5269737243652344,-0.3140707015991211
2024-12-07 16:12:59.031894800,3.945894775390625,-0.7150854468345642,-0.2660560607910156,-0.2720452845096588
2024-12-07 16:12:59.041922800,3.9559228515625,-0.8062577843666077,0.0279169082641601,0.2516216337680816
2024-12-07 16:12:59.051950800,3.965950927734375,-0.5493023991584778,0.3311071395874023,0.8563292622566223
2024-12-07 16:12:59.061979000,3.975978759765625,-0.0328813791275024,0.5095548629760742,1.351716160774231
2024-12-07 16:12:59.072007000,3.9860068359375,0.3712072372436523,0.4055948257446289,1.6487622261047363
2024-12-07 16:12:59.082035000,3.996034912109375,0.2858144044876098,0.2444124221801757,1.4086495637893677
2024-12-07 16:12:59.092063000,4.00606298828125,0.1140283346176147,0.0070915222167968,0.901637315750122
2024-12-07 16:12:59.102091000,4.016091064453125,0.0283234119415283,-0.220189094543457,0.4885338544845581
2024-12-07 16:12:59.112119000,4.026119140625,0.0677197575569152,-0.3561687469482422,0.2702443599700928
2024-12-07 16:12:59.122147000,4.03614697265625,0.2031277418136596,-0.4058704376220703,0.0570627003908157
2024-12-07 16:12:59.132175000,4.046175048828125,0.2913197875022888,-0.2882728576660156,0.0459117442369461
2024-12-07 16:12:59.142203100,4.056203125,0.4756911993026733,-0.104104995727539,0.1450162231922149
2024-12-07 16:12:59.152231200,4.066231201171875,0.6397905945777893,0.1319770812988281,0.2097853273153305
2024-12-07 16:12:59.162259200,4.07625927734375,0.6008625030517578,0.285984992980957,0.0967679023742675
2024-12-07 16:12:59.172287200,4.086287353515625,0.4932486414909363,0.2674198150634765,-0.0723610445857048
2024-12-07 16:12:59.182315300,4.096315185546875,0.2466805577278137,0.1484937667846679,0.0281363576650619
2024-12-07 16:12:59.192343300,4.10634326171875,0.1451199650764465,-0.041727066040039,0.0580647438764572
2024-12-07 16:12:59.202371000,4.11637109375,0.2117794156074524,-0.2553310394287109,-0.0399839133024215
2024-12-07 16:12:59.212399000,4.126399169921875,0.1687166094779968,-0.4063520431518554,-0.1808760464191436
2024-12-07 16:12:59.222427100,4.13642724609375,0.1208689212799072,-0.528407096862793,-0.5886507034301758
2024-12-07 16:12:59.232455200,4.146455078125,0.0004453063011169,-0.535618782043457,-0.8838837146759033
2024-12-07 16:12:59.242483200,4.156483154296875,-0.1545130014419555,-0.4235048294067383,-1.052311658859253
2024-12-07 16:12:59.252511200,4.16651123046875,-0.2289504408836364,-0.2687482833862304,-1.0607621669769287
2024-12-07 16:12:59.262539300,4.176539306640625,-0.3887291550636291,-0.085698127746582,-0.7100895643234253
2024-12-07 16:12:59.272567300,4.1865673828125,-0.3410510718822479,-0.0463285446166992,-0.3749070167541504
2024-12-07 16:12:59.282595300,4.19659521484375,-0.1431607007980346,-0.0117883682250976,-0.0089941620826721
2024-12-07 16:12:59.292623400,4.206623291015625,0.0658425092697143,-0.0203256607055664,0.1626328229904174
2024-12-07 16:12:59.302651400,4.2166513671875,0.2708821296691894,-0.291666030883789,0.5116589069366455
2024-12-07 16:12:59.312679400,4.226679443359375,0.4879340529441833,-0.6200351715087891,0.5587312579154968
2024-12-07 16:12:59.322707500,4.23670751953125,0.5029394030570984,-0.7858123779296875,0.1424915194511413
2024-12-07 16:12:59.332735500,4.246735595703125,0.1631754040718078,-0.8275585174560547,-0.4377289712429046
2024-12-07 16:12:59.342763500,4.256763427734375,-0.3354772329330444,-0.750086784362793,-0.8604782819747925
2024-12-07 16:12:59.352791600,4.26679150390625,-0.5624749064445496,-0.6298713684082031,-1.1266640424728394
2024-12-07 16:12:59.362819600,4.276819580078125,-0.4155333042144775,-0.4812345504760742,-1.3608996868133545
2024-12-07 16:12:59.372847400,4.286847412109375,-0.1371222138404846,-0.2993221282958984,-1.7193034887313845
2024-12-07 16:12:59.382875400,4.29687548828125,0.3581995069980621,0.0497369766235351,-2.034498453140259
2024-12-07 16:12:59.392903400,4.3069033203125,0.4826861619949341,0.4604339599609375,-2.102543354034424
2024-12-07 16:12:59.402931500,4.316931396484375,0.2913241982460022,0.7799787521362305,-1.9459707736968992
2024-12-07 16:12:59.412959200,4.326959228515625,0.9581958055496216,0.8271970748901367,-1.6245383024215698
2024-12-07 16:12:59.422987300,4.3369873046875,2.050550699234009,0.717005729675293,-0.7163470387458801
2024-12-07 16:12:59.433015300,4.347015380859375,0.836906373500824,0.9116706848144532,1.2041559219360352
2024-12-07 16:12:59.443043300,4.357043212890625,-0.9215499758720398,0.8657121658325195,1.929220199584961
2024-12-07 16:12:59.453071000,4.367071044921875,-0.1446595340967178,0.2323055267333984,1.2297216653823853
2024-12-07 16:12:59.463099100,4.37709912109375,2.991090774536133,-0.3896522521972656,-0.4122834801673889
2024-12-07 16:12:59.473127200,4.387127197265625,4.7246928215026855,-0.9056577682495116,-0.7609610557556152
2024-12-07 16:12:59.483155200,4.3971552734375,4.230262756347656,-1.0971860885620115,-1.1522527933120728
2024-12-07 16:12:59.493183000,4.407182861328125,2.5238237380981445,-1.1510906219482422,-1.7700395584106443
2024-12-07 16:12:59.503211000,4.4172109375,0.844482958316803,-1.1339349746704102,-1.936967849731445
2024-12-07 16:12:59.513239000,4.427239013671875,-0.2738988697528839,-1.0309209823608398,-2.029305458068848
2024-12-07 16:12:59.523267000,4.43726708984375,-0.7156368494033813,-0.9751749038696288,-2.306780815124512
2024-12-07 16:12:59.533294800,4.447294921875,-0.6221391558647156,-1.008976936340332,-2.5369791984558105
2024-12-07 16:12:59.543323000,4.457322998046875,-0.4815663695335388,-1.089006423950195,-2.308922529220581
2024-12-07 16:12:59.553351000,4.467350830078125,-0.3555449843406677,-1.072056770324707,-1.6912120580673218
2024-12-07 16:12:59.563379000,4.47737890625,-0.2386042475700378,-0.8922014236450195,-0.5307832956314087
2024-12-07 16:12:59.573406700,4.48740673828125,-0.2879714965820312,-0.4649171829223633,1.0723439455032349
2024-12-07 16:12:59.583434800,4.497434814453125,-0.73714679479599,0.0033082962036132,2.5324699878692627
2024-12-07 16:12:59.593462800,4.507462890625,-0.9288049340248108,0.4505691528320312,3.365650177001953
2024-12-07 16:12:59.603490800,4.51749072265625,-1.0054609775543213,0.6574821472167969,3.920147180557251
2024-12-07 16:12:59.613518600,4.5275185546875,-0.7660067081451416,0.9306097030639648,3.5926899909973145
2024-12-07 16:12:59.623546600,4.537546630859375,-0.3964657187461853,0.9215211868286132,2.9748826026916504
2024-12-07 16:12:59.633574700,4.54757470703125,0.2028299570083618,0.6072101593017578,2.676563024520874
2024-12-07 16:12:59.643602700,4.557602783203125,0.8045521974563599,0.3701133728027344,2.805190086364746
2024-12-07 16:12:59.653630500,4.56763037109375,1.326406717300415,0.323801040649414,2.411498546600342
2024-12-07 16:12:59.663658500,4.577658447265625,1.9213736057281496,0.1805830001831054,1.8073323965072632
2024-12-07 16:12:59.673686500,4.5876865234375,2.3794023990631104,0.0690040588378906,0.8947650194168091
2024-12-07 16:12:59.683714600,4.597714599609375,2.43252944946289,-0.0017862319946289,-0.2016936540603637
2024-12-07 16:12:59.693742300,4.607742431640625,2.143089771270752,-0.0317144393920898,-1.2497502565383911
2024-12-07 16:12:59.703770400,4.617770263671875,1.8843927383422847,-0.015812873840332,-1.751978874206543
2024-12-07 16:12:59.713798400,4.62779833984375,1.1022164821624756,0.2086133956909179,-2.005769968032837
2024-12-07 16:12:59.723826400,4.637826416015625,0.5838406085968018,0.4271526336669922,-1.6690771579742432
2024-12-07 16:12:59.733854200,4.647854248046875,0.4263125658035278,0.5924959182739258,-1.0177416801452637
2024-12-07 16:12:59.743882200,4.65788232421875,0.3885539770126343,0.6999797821044922,-0.7031577825546265
2024-12-07 16:12:59.753910300,4.66791015625,0.3060629367828369,0.7162189483642578,-0.6035489439964294
2024-12-07 16:12:59.763938300,4.677938232421875,0.1597038507461547,0.737152099609375,-0.614572286605835
2024-12-07 16:12:59.773966000,4.687966064453125,0.1032512187957763,0.8060846328735352,-0.540115237236023
2024-12-07 16:12:59.783994000,4.697994140625,-0.0586326122283935,0.8371877670288086,-0.6890938878059387
2024-12-07 16:12:59.794022100,4.708022216796875,-0.1610941886901855,0.8788928985595703,-0.5332722067832947
2024-12-07 16:12:59.804050200,4.71805029296875,-0.1229150295257568,0.998178482055664,-0.4202041625976562
2024-12-07 16:12:59.814078000,4.728077880859375,-0.0932786464691162,1.0562477111816406,-0.0671172589063644
2024-12-07 16:12:59.824106000,4.73810595703125,-0.0347402095794677,1.177347183227539,0.2432519793510437
2024-12-07 16:12:59.834134000,4.748134033203125,-0.1852736473083496,1.3615999221801758,0.1867221891880035
2024-12-07 16:12:59.844162000,4.758162109375,-0.2552759647369385,1.4757452011108398,0.1008120626211166
2024-12-07 16:12:59.854189800,4.76818994140625,0.03239107131958,1.5869569778442385,-0.2519225478172302
2024-12-07 16:12:59.864217900,4.7782177734375,0.3888094425201416,1.5946130752563477,-0.5596061944961548
2024-12-07 16:12:59.874246000,4.788245849609375,0.4873867034912109,1.5081586837768557,-0.8229398727416992
2024-12-07 16:12:59.884274000,4.79827392578125,0.4108045101165771,1.428361892700195,-1.0995588302612305
2024-12-07 16:12:59.894301700,4.8083017578125,0.2810995578765869,1.350961685180664,-1.2160468101501465
2024-12-07 16:12:59.904329700,4.818329833984375,0.2660615444183349,1.2855863571166992,-1.186309576034546
2024-12-07 16:12:59.914357800,4.828357666015625,0.3929333686828613,1.2031879425048828,-1.000182867050171
2024-12-07 16:12:59.924385800,4.8383857421875,0.5532054901123047,1.1221017837524414,-0.6873354911804199
2024-12-07 16:12:59.934413800,4.848413818359375,0.8053903579711914,1.0366687774658203,-0.3399630188941955
2024-12-07 16:12:59.944441900,4.85844189453125,1.158717155456543,0.9935102462768556,0.0978495702147483
2024-12-07 16:12:59.954470000,4.868469970703125,1.2858693599700928,0.863133430480957,0.71811842918396
2024-12-07 16:12:59.964498000,4.878497802734375,1.3534560203552246,0.2061662673950195,1.636876344680786
2024-12-07 16:12:59.974526000,4.88852587890625,1.1172153949737549,-1.501577377319336,2.979431867599488
2024-12-07 16:12:59.984554000,4.898553955078125,0.9997482299804688,-4.062405586242676,4.098856925964356
2024-12-07 16:12:59.994582000,4.90858203125,1.484689235687256,-7.140646934509277,4.6870317459106445
2024-12-07 16:13:00.004610000,4.918610107421875,1.992685079574585,-8.787599563598633,3.722558736801147
2024-12-07 16:13:00.014638000,4.92863818359375,1.0886423587799072,-7.436311721801758,1.4963287115097046
2024-12-07 16:13:00.024666000,4.938666015625,-1.471729040145874,-4.164289474487305,0.9526942372322084
2024-12-07 16:13:00.034694000,4.94869384765625,-3.246497631072998,-0.6474781036376953,1.0478417873382568
2024-12-07 16:13:00.044722000,4.958721923828125,-3.7427730560302734,2.039680957794189,0.7535995841026306
2024-12-07 16:13:00.054750000,4.96875,-4.060489177703857,3.736238479614258,0.9702370762825012
2024-12-07 16:13:00.064778000,4.978778076171875,-3.883777141571045,4.706676483154297,1.127696514129639
2024-12-07 16:13:00.074806000,4.988805908203125,-3.815619945526123,4.841880798339844,0.4468898773193359
2024-12-07 16:13:00.084834000,4.998833984375,-4.095786094665527,3.871151924133301,-0.6000152230262756
2024-12-07 16:13:00.094862000,5.008862060546875,-4.101745128631592,2.231773853302002,-1.4092135429382324
2024-12-07 16:13:00.104890000,5.01889013671875,-3.6217200756073,0.5216054916381836,-1.7438945770263672
2024-12-07 16:13:00.114918100,5.028918212890625,-2.719606399536133,-0.8163843154907227,-1.549633502960205
2024-12-07 16:13:00.124946200,5.0389462890625,-1.3121075630187988,-1.7033538818359375,-1.1411138772964478
2024-12-07 16:13:00.134974200,5.04897412109375,0.1171363592147827,-2.05533218383789,-0.6698589324951172
2024-12-07 16:13:00.145002200,5.059002197265625,1.078155517578125,-1.9504404067993164,-0.1257923394441604
2024-12-07 16:13:00.155030300,5.0690302734375,1.3569382429122925,-1.719257354736328,0.446649968624115
2024-12-07 16:13:00.165058300,5.079058349609375,0.9658068418502808,-1.404759407043457,0.8025394082069397
2024-12-07 16:13:00.175086300,5.08908642578125,0.282983660697937,-1.0588712692260742,0.9280325770378112
2024-12-07 16:13:00.185114400,5.0991142578125,-0.3277662992477417,-0.6711807250976562,0.7998718619346619
2024-12-07 16:13:00.195142400,5.109142333984375,-0.7735285758972168,-0.3034305572509765,0.5405591130256653
2024-12-07 16:13:00.205170400,5.11917041015625,-1.115926742553711,-0.0365829467773437,0.4633823931217193
2024-12-07 16:13:00.215198500,5.129198486328125,-1.2696044445037842,0.2680778503417969,0.3298539221286773
2024-12-07 16:13:00.225226500,5.1392265625,-1.2647260427474976,0.5004205703735352,0.1495987921953201
2024-12-07 16:13:00.235254500,5.149254638671875,-1.2354265451431274,0.4504604339599609,0.3142533898353576
2024-12-07 16:13:00.245282600,5.159282470703125,-0.9859391450881958,0.2382850646972656,0.5909525156021118
2024-12-07 16:13:00.255310600,5.169310546875,-0.7180273532867432,0.0313529968261718,0.3945408463478088
2024-12-07 16:13:00.265338400,5.17933837890625,-0.8083089590072632,-0.127232551574707,-0.0301820375025272
2024-12-07 16:13:00.275366400,5.189366455078125,-0.9577274918556212,-0.2754764556884765,-0.3009992241859436
2024-12-07 16:13:00.285394400,5.19939453125,-0.8457634449005127,-0.4038276672363281,-0.4153680801391601
2024-12-07 16:13:00.295422500,5.20942236328125,-0.6418970227241516,-0.4457645416259765,-0.5612916350364685
2024-12-07 16:13:00.305450500,5.219450439453125,-0.5534179210662842,-0.3874454498291015,-0.781726598739624
2024-12-07 16:13:00.315478500,5.229478515625,-0.5954193472862244,-0.2388286590576172,-0.9132766127586364
2024-12-07 16:13:00.325506600,5.239506591796875,-0.7527437210083008,0.0047245025634765,-0.9940640330314636
2024-12-07 16:13:00.335534600,5.24953466796875,-0.9581507444381714,0.2426919937133789,-1.0901238918304443
2024-12-07 16:13:00.345562600,5.259562744140625,-1.191491723060608,0.4083719253540039,-1.3234144449234009
2024-12-07 16:13:00.355590700,5.269590576171875,-1.2072046995162964,0.3016023635864258,-0.9956666231155396
2024-12-07 16:13:00.365618700,5.27961865234375,-0.9487100839614868,0.2239284515380859,-0.8065422773361206
2024-12-07 16:13:00.375646700,5.289646728515625,-0.6463631987571716,0.1417703628540039,-0.6887990832328796
2024-12-07 16:13:00.385674800,5.2996748046875,-0.5779517292976379,0.1219205856323242,-0.4982900619506836
2024-12-07 16:13:00.395702800,5.309702880859375,-0.5426304936408997,0.1068563461303711,-0.3634726703166961
2024-12-07 16:13:00.405730800,5.319730712890625,-0.6982764005661011,0.3210153579711914,-0.4316304624080658
2024-12-07 16:13:00.415758800,5.3297587890625,-0.8713062405586243,0.3531761169433594,0.1609440743923187
2024-12-07 16:13:00.425787000,5.339786865234375,-0.7563906908035278,0.3661174774169922,0.3890089094638824
2024-12-07 16:13:00.435815000,5.34981494140625,-0.7278381586074829,0.4552860260009765,0.8204824328422546
2024-12-07 16:13:00.445843000,5.359843017578125,-0.6816123723983765,0.4054059982299804,1.1375888586044312
2024-12-07 16:13:00.455871000,5.36987109375,-0.5810111165046692,0.1641368865966797,1.301265001296997
2024-12-07 16:13:00.465899000,5.37989892578125,-0.4223127365112304,-0.2776737213134765,1.4306436777114868
2024-12-07 16:13:00.475927000,5.389927001953125,-0.1012829542160034,-0.695098876953125,1.477253794670105
2024-12-07 16:13:00.485955000,5.399955078125,0.2555090188980102,-0.840001106262207,1.1555687189102173
2024-12-07 16:13:00.495982800,5.40998291015625,0.3129453659057617,-0.8754825592041016,0.6172910928726196
2024-12-07 16:13:00.506011000,5.420010986328125,0.1830021739006042,-0.7968416213989258,0.0191771686077117
2024-12-07 16:13:00.516039000,5.430038818359375,-0.0547650456428527,-0.4989700317382812,-0.3309723734855652
2024-12-07 16:13:00.526067000,5.44006689453125,-0.2252299189567566,-0.1875076293945312,-0.486505776643753
2024-12-07 16:13:00.536095000,5.450094970703125,-0.2365176081657409,0.0898647308349609,-0.5154088139533997
2024-12-07 16:13:00.546123000,5.460123046875,-0.2369301319122314,0.2663593292236328,-0.4668703079223633
2024-12-07 16:13:00.556151000,5.470151123046875,-0.3263540267944336,0.4186792373657226,-0.4420244395732879
2024-12-07 16:13:00.566179000,5.480178955078125,-0.4033182263374328,0.4991903305053711,-0.4461276531219482
2024-12-07 16:13:00.576207000,5.49020703125,-0.4915613830089569,0.3838834762573242,-0.4555465579032898
2024-12-07 16:13:00.586235100,5.500235107421875,-0.5765562653541565,0.1783246994018554,-0.5039254426956177
2024-12-07 16:13:00.596263200,5.51026318359375,-0.5628551244735718,0.0116739273071289,-0.4909912943840027
2024-12-07 16:13:00.606291500,5.52029150390625,-0.4939838349819183,-0.1257772445678711,-0.3886391222476959
2024-12-07 16:13:00.616319500,5.530319580078125,-0.4851377308368683,-0.2676000595092773,-0.3213938772678375
2024-12-07 16:13:00.626347500,5.540347412109375,-0.4272311329841614,-0.3899860382080078,-0.3031378090381622
2024-12-07 16:13:00.636375600,5.55037548828125,-0.2975265681743622,-0.3832006454467773,-0.2806303799152374
2024-12-07 16:13:00.646403600,5.560403564453125,-0.1155710816383361,-0.2236614227294922,-0.2767118215560913
2024-12-07 16:13:00.656431600,5.570431640625,0.1134015321731567,-0.102787971496582,-0.2712929844856262
2024-12-07 16:13:00.666460000,5.5804599609375,0.3214353322982788,-0.0253286361694335,-0.154855728149414
2024-12-07 16:13:00.676488000,5.590488037109375,0.6033781170845032,-0.139251708984375,-0.2422818094491958
2024-12-07 16:13:00.686516000,5.600515869140625,0.7870445847511292,-0.2195558547973632,-0.1315977871417999
2024-12-07 16:13:00.696544000,5.6105439453125,0.9404535889625548,-0.2805929183959961,-0.0863683521747589
2024-12-07 16:13:00.706572000,5.620572021484375,1.0828218460083008,-0.3367223739624023,-0.0825023055076599
2024-12-07 16:13:00.716600000,5.63060009765625,1.180049180984497,-0.3927936553955078,-0.0296480059623718
2024-12-07 16:13:00.726628400,5.64062841796875,1.241088628768921,-0.5014572143554688,-0.0201119780540466
2024-12-07 16:13:00.736656400,5.650656494140625,1.1842769384384155,-0.5144863128662109,-0.0671566426753997
2024-12-07 16:13:00.746684400,5.660684326171875,0.9584159255027772,-0.5037755966186523,-0.1243490576744079
2024-12-07 16:13:00.756712400,5.67071240234375,0.7697941064834595,-0.6079301834106445,-0.3503216505050659
2024-12-07 16:13:00.766740500,5.680740478515625,0.5924346446990967,-0.8983211517333984,-0.6853386759757996
2024-12-07 16:13:00.776768500,5.6907685546875,0.1564354300498962,-1.250322341918945,-0.8930432796478271
2024-12-07 16:13:00.786796500,5.700796630859375,-0.4804623126983642,-1.4344329833984375,-1.010283589363098
2024-12-07 16:13:00.796824800,5.710824951171875,-1.0621123313903809,-1.2980098724365234,-0.9835845232009888
2024-12-07 16:13:00.806852900,5.720852783203125,-1.4271306991577148,-0.7890958786010742,-0.8519014120101929
2024-12-07 16:13:00.816881000,5.730880859375,-1.382913589477539,-0.1807899475097656,-0.6305956244468689
2024-12-07 16:13:00.826909000,5.740908935546875,-1.008840799331665,0.2829046249389648,-0.4062552452087402
2024-12-07 16:13:00.836937000,5.75093701171875,-0.8305218815803528,0.7456121444702148,-0.1704531013965606
2024-12-07 16:13:00.846965000,5.760965087890625,-0.6109490990638733,1.0068025588989258,0.1850231885910034
2024-12-07 16:13:00.856993300,5.7709931640625,-0.1548086404800415,1.0381441116333008,0.6424651145935059
2024-12-07 16:13:00.867021300,5.781021240234375,0.4522151947021484,0.9114465713500975,1.0503804683685305
2024-12-07 16:13:00.877049300,5.79104931640625,0.9504810571670532,0.7030143737792969,1.354475975036621
2024-12-07 16:13:00.887077400,5.801077392578125,1.1074070930480957,0.5130720138549805,1.4977946281433103
2024-12-07 16:13:00.897105400,5.81110546875,0.9659802317619324,0.2651147842407226,1.5071215629577637
2024-12-07 16:13:00.907133400,5.821133544921875,0.7856530547142029,0.0406131744384765,1.4104583263397217
2024-12-07 16:13:00.917161700,5.83116162109375,0.764019250869751,-0.0695762634277343,1.3878631591796875
2024-12-07 16:13:00.927189800,5.841189697265625,0.7531433701515198,0.0011196136474609,1.454927921295166
2024-12-07 16:13:00.937217800,5.8512177734375,0.6458209156990051,0.0847015380859375,1.5444939136505127
2024-12-07 16:13:00.947245800,5.861245849609375,0.2974873781204223,0.1526098251342773,1.4797933101654053
2024-12-07 16:13:00.957273900,5.87127392578125,0.1284455060958862,0.3015041351318359,1.1932690143585205
2024-12-07 16:13:00.967302000,5.881302001953125,-0.2436909675598144,0.5448665618896484,1.538749933242798
2024-12-07 16:13:00.977330200,5.891330078125,-1.8680758476257324,0.6513128280639648,1.872094869613648
2024-12-07 16:13:00.987358200,5.901358154296875,-3.6342382431030273,0.3498125076293945,1.2980238199234009
2024-12-07 16:13:00.997386200,5.91138623046875,-4.33202600479126,-0.3207845687866211,0.0295169353485107
2024-12-07 16:13:01.007414300,5.921414306640625,-2.699794054031372,-1.3125734329223633,-1.506731033325195
2024-12-07 16:13:01.017442300,5.9314423828125,0.4301670789718628,-2.210782051086426,-2.475484609603882
2024-12-07 16:13:01.027470300,5.94147021484375,2.1330995559692383,-2.547366142272949,-2.30539870262146
2024-12-07 16:13:01.037498400,5.951498291015625,1.4827613830566406,-2.387858390808105,-1.3984405994415283
2024-12-07 16:13:01.047526700,5.961526611328125,0.3645000457763672,-1.7749977111816406,-0.7102339267730713
2024-12-07 16:13:01.057554700,5.9715546875,0.0532820224761962,-0.7285118103027344,0.6643854379653931
2024-12-07 16:13:01.067582700,5.981582763671875,-0.1081418991088867,0.4153099060058594,1.9933189153671265
2024-12-07 16:13:01.077610800,5.99161083984375,-0.1905715465545654,1.3930673599243164,2.433368444442749
2024-12-07 16:13:01.087638800,6.001638671875,-0.4555611610412597,2.00494384765625,1.8611990213394165
2024-12-07 16:13:01.097666800,6.011666748046875,-0.754967987537384,2.075944900512696,1.1637094020843506
2024-12-07 16:13:01.107695000,6.021695068359375,-0.4464956521987915,1.8943986892700195,0.4592319130897522
2024-12-07 16:13:01.117723100,6.03172314453125,0.1991279125213623,1.5848360061645508,-0.1317395865917205
2024-12-07 16:13:01.127751200,6.041751220703125,0.7324749231338501,1.1611804962158203,-0.5558478236198425
2024-12-07 16:13:01.137779200,6.051779296875,1.0652562379837036,0.7999982833862305,-0.7796438932418823
2024-12-07 16:13:01.147807200,6.06180712890625,1.2412844896316528,0.4772624969482422,-0.8616487979888916
2024-12-07 16:13:01.157835300,6.071835205078125,1.5374703407287598,0.0494642257690429,-0.7930072546005249
2024-12-07 16:13:01.167863600,6.081863525390625,2.094459056854248,-0.1969203948974609,-0.9255456924438475
2024-12-07 16:13:01.177891600,6.0918916015625,2.272718667984009,-0.5160942077636719,-0.963855504989624
2024-12-07 16:13:01.187919600,6.101919677734375,2.2541775703430176,-0.583165168762207,-1.2400282621383667
2024-12-07 16:13:01.197947600,6.11194775390625,2.02077579498291,-0.4657154083251953,-1.6160736083984375
2024-12-07 16:13:01.207975700,6.1219755859375,1.2484251260757446,-0.2447271347045898,-1.616663694381714
2024-12-07 16:13:01.218003700,6.132003662109375,0.5031442642211914,0.0900402069091796,-1.2797064781188965
2024-12-07 16:13:01.228032000,6.142031982421875,-0.0314792394638061,0.3524188995361328,-0.806742250919342
2024-12-07 16:13:01.238060000,6.15206005859375,-0.3457928895950317,0.6717615127563477,-0.4671108424663543
2024-12-07 16:13:01.248088000,6.162088134765625,-0.4058675765991211,0.8907251358032227,-0.0967491865158081
2024-12-07 16:13:01.258116000,6.1721162109375,-0.4179196357727051,0.9381942749023438,-0.0627591013908386
2024-12-07 16:13:01.268144400,6.182144287109375,-0.1811552047729492,0.7910327911376953,-0.1707257628440857
2024-12-07 16:13:01.278172400,6.19217236328125,0.1464473009109497,0.4642629623413086,-0.2967460751533508
2024-12-07 16:13:01.288200400,6.202200439453125,0.5655162334442139,0.1255655288696289,-0.6763865351676941
2024-12-07 16:13:01.298228700,6.212228759765625,0.902062177658081,0.003610610961914,-1.1086187362670898
2024-12-07 16:13:01.308256800,6.2222568359375,1.2991952896118164,0.0825843811035156,-1.1316735744476318
2024-12-07 16:13:01.318285000,6.23228515625,1.3796164989471436,0.4233274459838867,-0.9929866790771484
2024-12-07 16:13:01.328313000,6.24231298828125,1.1152293682098389,1.010880470275879,-0.7180491089820862
2024-12-07 16:13:01.338341000,6.252341064453125,0.686948299407959,1.7450361251831057,-0.5798749923706055
2024-12-07 16:13:01.348369400,6.262369384765625,0.2491638660430908,2.263573169708252,-0.4668877720832824
2024-12-07 16:13:01.358397400,6.2723974609375,-0.0318577289581298,2.328930377960205,-0.2005419135093689
2024-12-07 16:13:01.368425500,6.282425537109375,-0.1442964076995849,2.1051650047302246,0.1766029298305511
2024-12-07 16:13:01.378453800,6.292453857421875,0.0501143932342529,1.908294677734375,0.4677692055702209
2024-12-07 16:13:01.388481800,6.302481689453125,0.4045560359954834,1.670820236206055,0.6810729503631592
2024-12-07 16:13:01.398509800,6.312509765625,0.6782221794128418,1.335124969482422,0.8352082967758179
2024-12-07 16:13:01.408538000,6.3225380859375,0.9404886960983276,0.9915618896484376,0.8875488042831421
2024-12-07 16:13:01.418566100,6.332566162109375,1.0886386632919312,0.601323127746582,0.8194030523300171
2024-12-07 16:13:01.428594400,6.342594482421875,1.3789122104644775,0.0732250213623046,0.718353271484375
2024-12-07 16:13:01.438622500,6.35262255859375,2.098832130432129,-0.6218729019165039,0.6152477264404297
2024-12-07 16:13:01.448650500,6.362650390625,3.041446685791016,-1.4464130401611328,0.5732218027114868
2024-12-07 16:13:01.458678800,6.3726787109375,3.498561382293701,-2.448932647705078,0.3355304896831512
2024-12-07 16:13:01.468706800,6.382706787109375,2.888168811798096,-3.476323127746582,-0.3033763766288757
2024-12-07 16:13:01.478734800,6.39273486328125,1.3965868949890137,-4.121198654174805,-0.7782583236694336
2024-12-07 16:13:01.488763100,6.40276318359375,0.040547490119934,-4.020133018493652,-1.2017256021499634
2024-12-07 16:13:01.498791200,6.412791259765625,-1.3186500072479248,-3.0974836349487305,-0.933124840259552
2024-12-07 16:13:01.508819200,6.422819091796875,-2.736272096633911,-1.6021738052368164,-0.3983758687973022
2024-12-07 16:13:01.518847500,6.432847412109375,-3.973745822906494,0.1595458984375,-0.0010241419076919
2024-12-07 16:13:01.528875500,6.44287548828125,-4.37837028503418,1.7147712707519531,0.9277504682540894
2024-12-07 16:13:01.538903800,6.45290380859375,-3.621084690093994,2.886624336242676,2.1181445121765137
2024-12-07 16:13:01.548931800,6.462931884765625,-2.0660860538482666,3.263967990875244,3.4944064617156982
2024-12-07 16:13:01.558959900,6.4729599609375,-0.3425283432006836,2.737274169921875,4.794441223144531
2024-12-07 16:13:01.568988200,6.48298828125,0.9003598690032959,1.7133712768554688,4.6381001472473145
2024-12-07 16:13:01.579016200,6.49301611328125,0.931138515472412,0.6513948440551758,3.079150438308716
2024-12-07 16:13:01.589044200,6.503044189453125,-0.0159146785736084,-0.1420316696166992,1.3641831874847412
2024-12-07 16:13:01.599072500,6.513072509765625,-0.9872873425483704,-0.689824104309082,-0.0471317544579505
2024-12-07 16:13:01.609100500,6.5231005859375,-1.461391806602478,-1.2351598739624023,-0.8574721217155457
2024-12-07 16:13:01.619128600,6.533128662109375,-1.430419683456421,-1.5296964645385742,-1.4463199377059937
2024-12-07 16:13:01.629156900,6.543156982421875,-1.34833562374115,-1.5889806747436523,-1.7119964361190796
2024-12-07 16:13:01.639185000,6.553184814453125,-1.5099679231643677,-1.485764503479004,-1.5598347187042236
2024-12-07 16:13:01.649213200,6.563213134765625,-1.7966783046722412,-1.244532585144043,-1.2880549430847168
2024-12-07 16:13:01.659241200,6.5732412109375,-2.030037403106689,-0.8797035217285156,-0.908553957939148
2024-12-07 16:13:01.669269200,6.583269287109375,-1.646105408668518,-0.4440698623657226,-0.4726559817790985
2024-12-07 16:13:01.679297500,6.593297607421875,-1.0257666110992432,-0.0098199844360351,-0.041447527706623
2024-12-07 16:13:01.689325600,6.60332568359375,-0.8384883999824524,0.327493667602539,0.4543686807155609
2024-12-07 16:13:01.699353600,6.613353515625,-0.9750970602035522,0.5733861923217773,0.7498542070388794
2024-12-07 16:13:01.709382000,6.6233818359375,-0.8833017945289612,0.5421361923217773,0.9632063508033752
2024-12-07 16:13:01.719410000,6.633409912109375,-0.6121334433555603,0.4014616012573242,0.8408045768737793
2024-12-07 16:13:01.729438000,6.64343798828125,-0.3836134672164917,0.0844478607177734,0.6043457388877869
2024-12-07 16:13:01.739466200,6.65346630859375,-0.2716114521026611,-0.2225294113159179,0.0094236657023429
2024-12-07 16:13:01.749494300,6.663494384765625,-0.2817116975784302,-0.4813947677612304,-0.4904089570045471
2024-12-07 16:13:01.759522600,6.6735224609375,-0.3130297660827636,-0.6157522201538086,-0.7358782291412354
2024-12-07 16:13:01.769550600,6.683550537109375,-0.2162020206451416,-0.4728517532348633,-0.8557997345924377
2024-12-07 16:13:01.779578600,6.69357861328125,0.0370206832885742,-0.2349023818969726,-0.8031937479972839
2024-12-07 16:13:01.789607000,6.70360693359375,0.1146831512451171,-0.050506591796875,-0.6754035353660583
2024-12-07 16:13:01.799635000,6.713635009765625,-0.1168334484100341,0.118626594543457,-0.4981973767280578
2024-12-07 16:13:01.809663000,6.7236630859375,-0.2728139162063598,0.1199426651000976,-0.5401769876480103
2024-12-07 16:13:01.819691300,6.733691162109375,-0.4142387509346008,0.1116647720336914,-0.3564340770244598
2024-12-07 16:13:01.829719300,6.74371923828125,-0.4061772227287292,0.1082992553710937,-0.0209411792457103
2024-12-07 16:13:01.839747300,6.753747314453125,-0.2502568960189819,0.0571165084838867,0.087231621146202
2024-12-07 16:13:01.849775600,6.763775634765625,-0.1826660633087158,-0.0515499114990234,0.1647737622261047
2024-12-07 16:13:01.859803600,6.7738037109375,-0.2703539133071899,-0.1459426879882812,0.268324613571167
2024-12-07 16:13:01.869832000,6.78383203125,-0.4407644271850586,-0.159149169921875,0.2596785426139831
2024-12-07 16:13:01.879860000,6.79385986328125,-0.6594300270080566,-0.05303955078125,0.1835131347179412
2024-12-07 16:13:01.889888000,6.803887939453125,-0.9056726694107056,0.105412483215332,0.1791146695613861
2024-12-07 16:13:01.899916300,6.813916259765625,-1.005916714668274,0.2207469940185547,0.2696804404258728
2024-12-07 16:13:01.909944300,6.8239443359375,-0.7277378439903259,0.1925954818725586,0.091622844338417
2024-12-07 16:13:01.919972400,6.833972412109375,-0.5756916403770447,0.0497112274169921,0.0952225178480148
2024-12-07 16:13:01.930000600,6.844000732421875,-0.5442662835121155,-0.1932449340820312,0.1443545818328857
2024-12-07 16:13:01.940028700,6.854028564453125,-0.437431275844574,-0.3640804290771484,-0.2331797182559967
2024-12-07 16:13:01.950056700,6.864056640625,-0.3356230854988098,-0.4580669403076172,-0.6475251913070679
2024-12-07 16:13:01.960085000,6.8740849609375,-0.3048684000968933,-0.4752798080444336,-0.8819264769554138
2024-12-07 16:13:01.970113000,6.884113037109375,-0.3068986535072326,-0.4254770278930664,-0.88868647813797
2024-12-07 16:13:01.980141300,6.894141357421875,-0.394180953502655,-0.2849550247192383,-0.7172462940216064
2024-12-07 16:13:01.990169300,6.90416943359375,-0.3801168799400329,-0.1542396545410156,-0.6029067635536194
2024-12-07 16:13:02.000197400,6.914197265625,-0.3710786700248718,-0.009556770324707,-0.4789945483207702
2024-12-07 16:13:02.010225700,6.9242255859375,-0.4866670966148376,0.1394815444946289,-0.3123695850372314
2024-12-07 16:13:02.020253700,6.934253662109375,-0.5963514447212219,0.2834625244140625,-0.1705380976200103
2024-12-07 16:13:02.030281700,6.94428173828125,-0.5848856568336487,0.3460464477539062,-0.0248920302838087
2024-12-07 16:13:02.040310000,6.95431005859375,-0.5666829347610474,0.2797269821166992,0.2856740951538086
2024-12-07 16:13:02.050338000,6.964338134765625,-0.4081201553344726,0.1612224578857422,0.4871666133403778
2024-12-07 16:13:02.060366000,6.974365966796875,-0.2394413948059082,0.1624889373779297,0.69748854637146
2024-12-07 16:13:02.070394400,6.984394287109375,0.033609390258789,0.0346927642822265,0.4290585219860077
2024-12-07 16:13:02.080422400,6.99442236328125,0.0556623935699462,-0.0357437133789062,0.1256914436817169
2024-12-07 16:13:02.090450700,7.00445068359375,-0.0905195474624633,-0.0631780624389648,-0.0202953889966011
2024-12-07 16:13:02.100478700,7.014478759765625,-0.1602987647056579,-0.0619726181030273,-0.1326473504304886
2024-12-07 16:13:02.110506800,7.0245068359375,-0.2489827275276184,-0.0130338668823242,-0.1292754113674163
2024-12-07 16:13:02.120535000,7.03453515625,-0.3610133528709411,0.0023622512817382,-0.0910824164748191
2024-12-07 16:13:02.130563000,7.04456298828125,-0.4248322248458862,-0.0395946502685546,0.0009699761867523
2024-12-07 16:13:02.140591000,7.054591064453125,-0.4602077603340149,-0.0910568237304687,0.1557062119245529
2024-12-07 16:13:02.150619400,7.064619384765625,-0.4976623058319092,-0.1309518814086914,0.3201979398727417
2024-12-07 16:13:02.160647400,7.0746474609375,-0.4208303093910217,-0.1607208251953125,0.219369888305664
2024-12-07 16:13:02.170675500,7.084675537109375,-0.2273188233375549,-0.1429147720336914,0.4172931611537933
2024-12-07 16:13:02.180703700,7.094703857421875,-0.0707409381866455,-0.0219497680664062,0.4132408499717712
2024-12-07 16:13:02.190731800,7.104731689453125,-0.0498071908950805,0.106241226196289,0.3188246786594391
2024-12-07 16:13:02.200760000,7.114760009765625,-0.1329157352447509,0.114506721496582,0.1966431438922882
2024-12-07 16:13:02.210788000,7.1247880859375,-0.2234559655189514,0.1179027557373046,0.2491909861564636
2024-12-07 16:13:02.220816100,7.134816162109375,-0.0295900106430053,-0.029520034790039,-0.0499991774559021
2024-12-07 16:13:02.230844400,7.144844482421875,-0.061535894870758,-0.1228313446044921,-0.437836229801178
2024-12-07 16:13:02.240872400,7.15487255859375,-0.2291390895843505,-0.0779809951782226,-0.6810961961746216
2024-12-07 16:13:02.250900500,7.164900390625,-0.2602091431617737,0.0369243621826171,-0.8112186193466187
2024-12-07 16:13:02.260928800,7.1749287109375,-0.2125295400619506,0.1171798706054687,-0.868584156036377
2024-12-07 16:13:02.270956800,7.184956787109375,-0.133525013923645,0.2198638916015625,-0.743426501750946
2024-12-07 16:13:02.280984800,7.19498486328125,0.1262459754943847,0.1185207366943359,-0.979817271232605
2024-12-07 16:13:02.291013000,7.20501318359375,0.303432285785675,0.0048084259033203,-1.1140315532684326
2024-12-07 16:13:02.301041200,7.215041259765625,0.5013246536254883,-0.0740919113159179,-1.2461645603179932
2024-12-07 16:13:02.311069400,7.2250693359375,0.657309889793396,-0.1564407348632812,-1.3134175539016724
2024-12-07 16:13:02.321097500,7.235097412109375,0.7671543955802917,-0.289255142211914,-1.1422879695892334
2024-12-07 16:13:02.331125500,7.24512548828125,0.919604480266571,-0.5565500259399414,-0.9626375436782836
2024-12-07 16:13:02.341153800,7.25515380859375,1.0688254833221436,-0.7914152145385742,-0.7022401690483093
2024-12-07 16:13:02.351181800,7.265181884765625,0.9608122706413268,-0.6459884643554688,-0.0062091946601867
2024-12-07 16:13:02.361210000,7.275210205078125,0.9283711314201356,-0.3007154464721679,0.4921477735042572
2024-12-07 16:13:02.371238100,7.285238037109375,1.1184742450714111,0.0200128555297851,0.5719186067581177
2024-12-07 16:13:02.381266400,7.295266357421875,1.2190937995910645,0.1580238342285156,0.1983862221240997
2024-12-07 16:13:02.391294500,7.30529443359375,1.0425537824630735,0.08026123046875,-0.1050280630588531
2024-12-07 16:13:02.401322800,7.31532275390625,0.6669197082519531,-0.1267061233520507,-0.3480388820171356
2024-12-07 16:13:02.411351000,7.32535107421875,0.2336081266403198,-0.4098567962646484,-0.6216995716094971
2024-12-07 16:13:02.421379000,7.335379150390625,-0.0407477617263793,-0.6923618316650391,-0.9092673063278198
2024-12-07 16:13:02.431407400,7.345407470703125,-0.2464432120323181,-0.883357048034668,-1.099940538406372
2024-12-07 16:13:02.441435400,7.355435302734375,-0.3405192196369171,-0.9256296157836914,-1.320926070213318
2024-12-07 16:13:02.451463700,7.365463623046875,-0.3607364892959595,-0.7764205932617188,-1.35598623752594
2024-12-07 16:13:02.461491700,7.37549169921875,-0.2355632781982422,-0.6033706665039062,-1.1915335655212402
2024-12-07 16:13:02.471520000,7.38552001953125,0.0190841555595397,-0.3255157470703125,-1.0685124397277832
2024-12-07 16:13:02.481548300,7.39554833984375,0.3052190542221069,0.0661964416503906,-0.9976875185966492
2024-12-07 16:13:02.491576300,7.405576416015625,0.4691449403762817,0.4281034469604492,-0.8742528557777405
2024-12-07 16:13:02.501604600,7.4156044921875,0.7369881272315979,0.5933322906494141,-0.72020423412323
2024-12-07 16:13:02.511632600,7.425632568359375,1.2533254623413086,0.7197322845458984,-0.2968670725822449
2024-12-07 16:13:02.521661000,7.435660888671875,1.0376912355422974,0.7588977813720703,0.0370440483093261
2024-12-07 16:13:02.531689000,7.44568896484375,0.30768483877182,0.7259120941162109,-0.1175970435142517
2024-12-07 16:13:02.541717200,7.45571728515625,1.1392560005187988,0.4876775741577148,0.052979826927185
2024-12-07 16:13:02.551745500,7.46574560546875,0.7994275093078613,0.5292873382568359,1.1316170692443848
2024-12-07 16:13:02.561773600,7.475773681640625,-1.3700233697891235,0.6821584701538086,1.6746842861175537
2024-12-07 16:13:02.571801900,7.4858017578125,-2.7102866172790527,0.5574665069580078,1.3613359928131104
2024-12-07 16:13:02.581830000,7.495829833984375,-2.10616683959961,0.5091133117675781,0.6764227151870728
2024-12-07 16:13:02.591858200,7.505858154296875,1.0015696287155151,0.2540082931518554,0.6760580539703369
2024-12-07 16:13:02.601886200,7.51588623046875,3.0843186378479004,-0.2411632537841797,1.7971596717834473
2024-12-07 16:13:02.611914500,7.52591455078125,2.229410171508789,-0.5379104614257812,1.8377788066864016
2024-12-07 16:13:02.621942800,7.53594287109375,0.7212293148040771,-0.7637205123901367,1.2368323802947998
2024-12-07 16:13:02.631970800,7.545970703125,-0.551145076751709,-0.8123607635498047,0.5350254774093628
2024-12-07 16:13:02.641999000,7.5559990234375,-1.6728932857513428,-0.7069664001464844,0.0088662505149841
2024-12-07 16:13:02.652027100,7.566027099609375,-2.143599271774292,-0.6477193832397461,-0.2641209661960602
2024-12-07 16:13:02.662055400,7.576055419921875,-2.103357315063477,-0.7537336349487305,-0.1453316211700439
2024-12-07 16:13:02.672083500,7.58608349609375,-1.6653735637664795,-0.7956218719482422,0.110248327255249
2024-12-07 16:13:02.682111700,7.59611181640625,-1.1930807828903198,-0.8076133728027344,0.3152416944503784
2024-12-07 16:13:02.692139800,7.606139892578125,-0.7994995713233948,-0.7234163284301758,0.5452747941017151
2024-12-07 16:13:02.702168000,7.61616796875,-0.4235098958015442,-0.5052480697631836,0.5277599096298218
2024-12-07 16:13:02.712196400,7.6261962890625,0.0818234682083129,-0.2490491867065429,0.4413501024246216
2024-12-07 16:13:02.722224400,7.636224365234375,0.6464871168136597,-0.041259765625,0.3917092084884643
2024-12-07 16:13:02.732252700,7.646252685546875,1.276480793952942,0.1129541397094726,0.3542852997779846
2024-12-07 16:13:02.742280700,7.65628076171875,1.6253714561462402,0.256230354309082,0.3793809413909912
2024-12-07 16:13:02.752309000,7.66630908203125,1.6121282577514648,0.4220199584960937,0.3583097457885742
2024-12-07 16:13:02.762337000,7.6763369140625,1.4261661767959597,0.5484609603881836,0.5016462802886963
2024-12-07 16:13:02.772365300,7.686365234375,1.2562899589538574,0.6549110412597656,0.5780839920043945
2024-12-07 16:13:02.782393600,7.6963935546875,1.21695876121521,0.7030496597290039,0.6671149730682373
2024-12-07 16:13:02.792421600,7.706421630859375,1.091982364654541,0.7882423400878906,0.5464778542518616
2024-12-07 16:13:02.802450000,7.716449951171875,0.8113574981689453,0.8056106567382812,0.0608687996864318
2024-12-07 16:13:02.812478000,7.72647802734375,0.5312682390213013,0.7416353225708008,-0.5511860847473145
2024-12-07 16:13:02.822506200,7.73650634765625,0.4214882850646972,0.6305255889892578,-0.8852827548980713
2024-12-07 16:13:02.832534300,7.7465341796875,0.4207229614257812,0.5203990936279297,-1.0465450286865234
2024-12-07 16:13:02.842562600,7.7565625,0.3846633434295654,0.415924072265625,-1.29286789894104
2024-12-07 16:13:02.852590800,7.7665908203125,0.3037221431732178,0.2979068756103515,-1.3189563751220703
2024-12-07 16:13:02.862619000,7.776618896484375,0.4157239198684692,0.1804361343383789,-1.3941490650177002
2024-12-07 16:13:02.872647200,7.786647216796875,0.5996276140213013,0.0433950424194335,-1.2634172439575195
2024-12-07 16:13:02.882675200,7.79667529296875,0.5158934593200684,-0.0321836471557617,-1.0633811950683594
2024-12-07 16:13:02.892703500,7.806703369140625,0.3768141269683838,-0.0701980590820312,-0.8103765249252319
2024-12-07 16:13:02.902731500,7.8167314453125,0.1281352043151855,-0.0989465713500976,-0.4258122146129608
2024-12-07 16:13:02.912759800,7.826759765625,-0.1006933450698852,-0.1470317840576172,-0.0286585241556167
2024-12-07 16:13:02.922788000,7.8367880859375,-0.2661185264587402,-0.1235227584838867,0.4664580821990967
2024-12-07 16:13:02.932816100,7.846816162109375,-0.0942921638488769,0.0195064544677734,0.7307894825935364
2024-12-07 16:13:02.942844400,7.856844482421875,0.3361079692840576,0.195566177368164,0.743638813495636
2024-12-07 16:13:02.952872400,7.86687255859375,0.7108422517776489,0.3037071228027344,0.5685158967971802
2024-12-07 16:13:02.962900700,7.876900634765625,0.7182309627532959,0.4345951080322265,0.2458734065294265
2024-12-07 16:13:02.972928800,7.8869287109375,0.4934279918670654,0.5452737808227539,-0.0773428753018379
2024-12-07 16:13:02.982957000,7.89695703125,0.3260633945465088,0.7509307861328125,-0.2853450775146484
2024-12-07 16:13:02.992985000,7.906985107421875,-0.0883557796478271,0.7841320037841797,0.086398534476757
2024-12-07 16:13:03.003013400,7.917013427734375,-0.3591784238815307,1.0902204513549805,0.1442664414644241
2024-12-07 16:13:03.013041700,7.927041748046875,-0.5028932094573975,1.2966623306274414,0.4992627501487732
2024-12-07 16:13:03.023069700,7.937069580078125,-0.5576263666152954,1.332228660583496,0.928411304950714
2024-12-07 16:13:03.033098000,7.947097900390625,-0.5677257776260376,1.2497100830078125,1.1371560096740725
2024-12-07 16:13:03.043126000,7.9571259765625,-0.6059616804122925,1.0826635360717771,1.1486250162124634
2024-12-07 16:13:03.053154300,7.967154296875,-0.7013940811157227,0.8741979598999023,1.025864601135254
2024-12-07 16:13:03.063182300,7.977182373046875,-0.7476463317871094,0.7202091217041016,0.8699549436569214
2024-12-07 16:13:03.073210600,7.987210693359375,-0.4827075004577636,0.5821857452392578,0.6638219356536865
2024-12-07 16:13:03.083239000,7.997239013671875,-0.0148901939392089,0.4451799392700195,0.6133403778076172
2024-12-07 16:13:03.093267000,8.007266845703125,0.5008859634399414,0.3565959930419922,0.420978844165802
2024-12-07 16:13:03.103295200,8.017295166015625,0.8331027030944824,0.2967081069946289,0.2409896701574325
2024-12-07 16:13:03.113323300,8.0273232421875,0.8816347122192383,0.3083629608154297,-0.0260330885648727
2024-12-07 16:13:03.123351600,8.0373515625,0.7480297088623047,0.3437252044677734,-0.3396459221839905
2024-12-07 16:13:03.133379600,8.047379638671876,0.5914855003356934,0.3361063003540039,-0.5208967924118042
2024-12-07 16:13:03.143407900,8.057407958984374,0.5372440814971924,0.2285165786743164,-0.5119512677192688
2024-12-07 16:13:03.153436200,8.067436279296874,0.6475241184234619,-0.0790128707885742,-0.3472287058830261
2024-12-07 16:13:03.163464200,8.077464111328124,0.9063348770141602,-0.423858642578125,-0.3240174055099487
2024-12-07 16:13:03.173492500,8.087492431640625,1.2119498252868652,-0.8348121643066406,-0.3175101280212402
2024-12-07 16:13:03.183520500,8.0975205078125,1.556680679321289,-1.2454290390014648,-0.203973650932312
2024-12-07 16:13:03.193548800,8.107548828125,1.6041066646575928,-1.67999267578125,0.0624673664569854
2024-12-07 16:13:03.203576800,8.117576904296875,1.1552956104278564,-1.8373146057128904,0.0121165178716182
2024-12-07 16:13:03.213605000,8.127605224609376,0.350665807723999,-1.7513952255249023,-0.192662701010704
2024-12-07 16:13:03.223633400,8.13763330078125,-0.7524117231369019,-1.6512880325317385,-0.2977049350738525
2024-12-07 16:13:03.233661400,8.147661376953126,-1.6770910024642944,-1.350080490112305,-0.1257952600717544
2024-12-07 16:13:03.243689700,8.157689697265624,-1.983680725097656,-0.7287368774414062,0.4881796538829803
2024-12-07 16:13:03.253717800,8.1677177734375,-2.1918749809265137,0.1493635177612304,1.417088508605957
2024-12-07 16:13:03.263746000,8.17774609375,-2.5616629123687744,0.973780632019043,2.6106975078582764
2024-12-07 16:13:03.273774300,8.1877744140625,-2.527026653289795,1.611332893371582,3.3915045261383057
2024-12-07 16:13:03.283802600,8.197802734375,-1.803789496421814,1.9093093872070312,3.888832092285156
2024-12-07 16:13:03.293830700,8.20783056640625,-0.9410167336463928,1.7915334701538086,4.146162986755371
2024-12-07 16:13:03.303859000,8.21785888671875,-0.2390201091766357,1.391921043395996,3.5306012630462646
2024-12-07 16:13:03.313887200,8.22788720703125,-0.1397966146469116,0.8537254333496094,2.0785367488861084
2024-12-07 16:13:03.323915500,8.23791552734375,-0.4348684549331665,0.287393569946289,0.6886368989944458
2024-12-07 16:13:03.333943800,8.24794384765625,-0.8477407097816467,-0.1630496978759765,-0.2275711894035339
2024-12-07 16:13:03.343971800,8.257971923828125,-1.23564612865448,-0.4540958404541015,-1.0547900199890137
2024-12-07 16:13:03.354000100,8.268000244140625,-1.3535807132720947,-0.7099342346191406,-1.8078144788742063
2024-12-07 16:13:03.364028400,8.2780283203125,-1.1715508699417114,-0.9119033813476562,-2.2206127643585205
2024-12-07 16:13:03.374056700,8.288056640625,-0.8580548763275146,-0.9989099502563475,-2.1033830642700195
2024-12-07 16:13:03.384084700,8.298084716796875,-0.7665455937385559,-0.9290075302124025,-1.8378803730010984
2024-12-07 16:13:03.394113000,8.308113037109376,-0.929229497909546,-0.7550296783447266,-1.4843575954437256
2024-12-07 16:13:03.404141300,8.318141357421876,-0.9792607426643372,-0.6105213165283203,-0.9888760447502136
2024-12-07 16:13:03.414169600,8.328169677734374,-0.8671301603317261,-0.4951581954956054,-0.4743837714195251
2024-12-07 16:13:03.424198000,8.338197998046875,-0.5458564162254333,-0.3516578674316406,0.0275411754846572
2024-12-07 16:13:03.434226000,8.348225830078125,0.0297825336456298,-0.1804161071777343,0.4236337840557098
2024-12-07 16:13:03.444254200,8.358254150390625,0.3367209434509277,0.0564756393432617,0.6566493511199951
2024-12-07 16:13:03.454282500,8.368282470703125,0.2189291715621948,0.2730636596679687,0.6568198204040527
2024-12-07 16:13:03.464310800,8.378310791015625,-0.0432615280151367,0.2978172302246094,0.593741774559021
2024-12-07 16:13:03.474338800,8.3883388671875,-0.2235482931137085,0.1887626647949218,0.4829649925231933
2024-12-07 16:13:03.484367000,8.3983671875,-0.3744764328002929,0.0274944305419921,0.2835355997085571
2024-12-07 16:13:03.494395400,8.4083955078125,-0.4342668652534485,-0.2097978591918945,0.3479321002960205
2024-12-07 16:13:03.504423700,8.418423583984374,-0.3607537746429443,-0.4561882019042969,0.3951711654663086
2024-12-07 16:13:03.514451700,8.42845166015625,-0.255103588104248,-0.6018953323364258,0.4093576669692993
2024-12-07 16:13:03.524480000,8.43847998046875,-0.1895170211791992,-0.6138200759887695,0.3037602603435516
2024-12-07 16:13:03.534508300,8.44850830078125,-0.273844838142395,-0.5496320724487305,0.0979835838079452
2024-12-07 16:13:03.544536600,8.45853662109375,-0.4788281917572021,-0.466806411743164,-0.1878246515989303
2024-12-07 16:13:03.554564900,8.46856494140625,-0.7264493703842163,-0.3795356750488281,-0.4422486126422882
2024-12-07 16:13:03.564593000,8.478593017578126,-1.014594793319702,-0.2588739395141601,-0.6112978458404541
2024-12-07 16:13:03.574621200,8.48862109375,-1.2174323797225952,-0.133340835571289,-0.6942504644393921
2024-12-07 16:13:03.584649500,8.4986494140625,-1.348737716674805,-0.0076189041137695,-0.6858752369880676
2024-12-07 16:13:03.594677800,8.508677734375,-1.4136444330215454,0.1278190612792968,-0.6575612425804138
2024-12-07 16:13:03.604705800,8.518705810546875,-1.41277277469635,0.2203569412231445,-0.6037008762359619
2024-12-07 16:13:03.614734000,8.528734130859375,-1.3368886709213257,0.250986099243164,-0.480681300163269
2024-12-07 16:13:03.624762400,8.538762451171875,-1.128367900848389,0.2342348098754882,-0.2266238331794738
2024-12-07 16:13:03.634790700,8.548790771484375,-0.6825515031814575,0.1844749450683593,-0.0052798688411712
2024-12-07 16:13:03.644818700,8.558818603515626,-0.1119623184204101,0.1826715469360351,0.1869655549526214
2024-12-07 16:13:03.654847000,8.568846923828126,0.3028767108917236,0.2665252685546875,0.1345937550067901
2024-12-07 16:13:03.664875300,8.578875244140624,0.3501489162445068,0.378300666809082,-0.0376010537147522
2024-12-07 16:13:03.674903600,8.588903564453124,0.2027721405029297,0.4320049285888672,-0.2667697966098785
2024-12-07 16:13:03.684931800,8.598931884765625,0.13898766040802,0.3944721221923828,-0.385109543800354
2024-12-07 16:13:03.694959900,8.6089599609375,0.1632763743400573,0.3089265823364258,-0.4359503388404846
2024-12-07 16:13:03.704988200,8.61898828125,0.1329686045646667,0.2901954650878906,-0.4296280741691589
2024-12-07 16:13:03.715016400,8.629016357421875,0.0770090222358703,0.2664995193481445,-0.5237622857093811
2024-12-07 16:13:03.725044700,8.639044677734375,-0.0759692192077636,0.2187719345092773,-0.593920886516571
2024-12-07 16:13:03.735072800,8.64907275390625,-0.2016245722770691,0.1709537506103515,-0.7261094450950623
2024-12-07 16:13:03.745101000,8.65910107421875,-0.2903726100921631,0.0562238693237304,-0.8765909075737
2024-12-07 16:13:03.755129300,8.66912939453125,-0.4175270795822143,-0.1346435546875,-0.9538270235061646
2024-12-07 16:13:03.765157600,8.67915771484375,-0.5424405336380005,-0.4346933364868164,-0.7720514535903931
2024-12-07 16:13:03.775185700,8.689185546875,-0.5302286148071289,-0.6429977416992188,-0.4809209704399109
2024-12-07 16:13:03.785214000,8.6992138671875,-0.3342665433883667,-0.7599496841430664,-0.2492536902427673
2024-12-07 16:13:03.795242200,8.7092421875,-0.1619042158126831,-0.6330833435058594,-0.1582134068012237
2024-12-07 16:13:03.805270500,8.7192705078125,-0.1328650712966919,-0.3108053207397461,-0.0639663338661193
2024-12-07 16:13:03.815298800,8.729298828125,-0.1413770318031311,0.0965757369995117,-0.0665024518966674
2024-12-07 16:13:03.825326800,8.739326904296876,-0.0622851252555847,0.297459602355957,0.1769715547561645
2024-12-07 16:13:03.835355100,8.749355224609374,0.0417978763580322,0.4164247512817383,0.2300110459327697
2024-12-07 16:13:03.845383400,8.759383544921874,0.0377215147018432,0.3772096633911133,0.3406168818473816
2024-12-07 16:13:03.855411700,8.76941162109375,0.1700340509414672,0.0226011276245117,0.2223129868507385
2024-12-07 16:13:03.865439700,8.779439697265625,0.2854248285293579,-0.3695697784423828,0.0056920051574707
2024-12-07 16:13:03.875468000,8.789468017578125,0.4505221843719482,-0.6796741485595703,-0.3017447292804718
2024-12-07 16:13:03.885496300,8.799496337890625,0.6455954909324646,-1.0131235122680664,-0.1800207495689392
2024-12-07 16:13:03.895524600,8.809524658203125,0.8685633540153503,-1.0165910720825195,-0.5476940274238586
2024-12-07 16:13:03.905552600,8.819552734375,1.0360767841339111,-0.967792510986328,-1.0900580883026123
2024-12-07 16:13:03.915581000,8.829580810546876,1.0423622131347656,-0.928645133972168,-1.588387131690979
2024-12-07 16:13:03.925609200,8.839609130859374,0.9025017619132996,-0.9896183013916016,-1.9455243349075315
2024-12-07 16:13:03.935637500,8.849637451171875,0.8089596033096313,-1.135847091674805,-2.265166044235229
2024-12-07 16:13:03.945665800,8.859665771484375,0.8222883939743042,-1.2619218826293943,-2.397960662841797
2024-12-07 16:13:03.955693800,8.86969384765625,0.8581651449203491,-1.1097955703735352,-2.4944913387298584
2024-12-07 16:13:03.965722000,8.87972216796875,0.7454850673675537,-0.3983888626098633,-1.9681105613708496
2024-12-07 16:13:03.975750400,8.88975048828125,0.7500529289245605,0.531367301940918,-1.1790930032730105
2024-12-07 16:13:03.985778700,8.89977880859375,0.99293851852417,1.1866388320922852,-0.6815439462661743
2024-12-07 16:13:03.995806700,8.909806640625,1.769739866256714,1.3338890075683594,-0.1805651187896728
2024-12-07 16:13:04.005835000,8.9198349609375,2.807382345199585,0.9401779174804688,0.5390956997871399
2024-12-07 16:13:04.015863300,8.92986328125,3.339081287384033,0.3402290344238281,0.8316549062728882
2024-12-07 16:13:04.025891600,8.9398916015625,3.1407666206359863,0.0072250366210937,0.2828902006149292
2024-12-07 16:13:04.035919600,8.949919677734375,2.73488712310791,-0.1354885101318359,-0.3350670933723449
2024-12-07 16:13:04.045948000,8.959947998046875,2.293393850326538,-0.1596260070800781,-0.7634774446487427
2024-12-07 16:13:04.055976200,8.96997607421875,2.023887634277344,-0.1655702590942382,-0.9986661672592164
2024-12-07 16:13:04.066004500,8.98000439453125,1.6532059907913208,-0.0771398544311523,-1.0012251138687134
2024-12-07 16:13:04.076032800,8.99003271484375,0.7518066763877869,0.0859346389770507,-0.7052814364433289
2024-12-07 16:13:04.086060800,9.000060791015626,-0.5613688826560974,0.3041038513183594,-0.1380003690719604
2024-12-07 16:13:04.096089000,9.010089111328124,-1.6853389739990234,0.6055202484130859,0.469724178314209
2024-12-07 16:13:04.106117400,9.020117431640625,-2.0340235233306885,0.8133153915405273,0.4259818196296692
2024-12-07 16:13:04.116145700,9.030145751953125,-1.6445744037628174,0.5090961456298828,-0.1409183144569397
2024-12-07 16:13:04.126173700,9.040173583984377,-1.2250230312347412,0.0157938003540039,-0.1571623682975769
2024-12-07 16:13:04.136202000,9.050201904296877,-1.1837897300720217,-0.6946783065795898,0.0969345569610595
2024-12-07 16:13:04.146230300,9.060230224609375,-1.7081587314605713,-1.6125860214233398,0.9479610919952391
2024-12-07 16:13:04.156258600,9.070258544921876,-2.098929643630981,-2.3116588592529297,2.0865628719329834
2024-12-07 16:13:04.166286800,9.080286865234376,-2.47693395614624,-2.514899253845215,3.135703086853028
2024-12-07 16:13:04.176315000,9.09031494140625,-2.822066307067871,-2.275880813598633,3.907003164291382
2024-12-07 16:13:04.186343200,9.10034326171875,-2.5089073181152344,-1.6099605560302734,3.953035831451416
2024-12-07 16:13:04.196371500,9.110371337890625,-1.5133843421936035,-0.9292573928833008,3.278427124023437
2024-12-07 16:13:04.206399700,9.120399658203125,-0.5568575859069824,-0.3533506393432617,2.319142341613769
2024-12-07 16:13:04.216427800,9.130427734375,-0.0917071104049682,0.1798810958862304,1.6053829193115234
2024-12-07 16:13:04.226456000,9.1404560546875,0.1402872800827026,0.8180351257324219,0.9131163954734802
2024-12-07 16:13:04.236484400,9.150484375,-0.0839508771896362,0.9437580108642578,1.2007299661636353
2024-12-07 16:13:04.246512600,9.1605126953125,-0.1556267738342285,1.0307493209838867,0.9445233941078186
2024-12-07 16:13:04.256540700,9.170540771484376,-0.0745395421981811,1.0648431777954102,-0.184465155005455
2024-12-07 16:13:04.266569000,9.18056884765625,-0.1069905757904052,0.7838144302368164,-0.7160414457321167
2024-12-07 16:13:04.276597200,9.19059716796875,0.1805430650711059,0.5894107818603516,-1.0182174444198608
2024-12-07 16:13:04.286625500,9.20062548828125,0.6068658828735352,0.4854936599731445,-0.8273446559906006
2024-12-07 16:13:04.296653800,9.21065380859375,1.144690752029419,0.4759178161621094,-0.6198531985282898
2024-12-07 16:13:04.306681900,9.220681884765623,1.6805076599121094,0.5692052841186523,-0.0194484442472457
2024-12-07 16:13:04.316710100,9.230710205078124,2.0853934288024902,0.7927532196044922,0.627779483795166
2024-12-07 16:13:04.326738400,9.240738525390626,1.880412578582764,0.9738855361938475,0.998564839363098
2024-12-07 16:13:04.336766700,9.2507666015625,1.3766162395477295,1.1133136749267578,1.191810965538025
2024-12-07 16:13:04.346794800,9.260794677734374,0.7907085418701172,1.1262140274047852,1.1040936708450315
2024-12-07 16:13:04.356823000,9.270822998046874,0.4736442565917969,1.1623353958129885,0.961677312850952
2024-12-07 16:13:04.366851300,9.280851318359376,0.4039347171783447,1.0885734558105469,0.6105382442474365
2024-12-07 16:13:04.376879600,9.290879638671877,0.5758252143859863,1.0293960571289062,0.356710135936737
2024-12-07 16:13:04.386907600,9.30090771484375,0.8720154762268066,0.960418701171875,0.1719764322042465
2024-12-07 16:13:04.396936000,9.31093603515625,0.6418201923370361,0.8432760238647461,-0.1861386597156524
2024-12-07 16:13:04.406964200,9.320964111328124,0.1902306079864502,0.8078126907348633,-0.1842436492443084
2024-12-07 16:13:04.416992500,9.330992431640626,-0.1020324230194091,0.8593416213989258,-0.015618622303009
2024-12-07 16:13:04.427020800,9.341020751953126,-0.4238312244415283,0.8169107437133789,-0.0530732572078704
2024-12-07 16:13:04.437048800,9.351048828125,-0.514927864074707,0.71490478515625,-0.1237498819828033
2024-12-07 16:13:04.447077000,9.3610771484375,-0.4614307880401611,0.6492137908935547,-0.3902103304862976
2024-12-07 16:13:04.457105400,9.37110546875,-0.5128278732299805,0.56719970703125,-0.9878994822502136
2024-12-07 16:13:04.467133700,9.3811337890625,-0.463141918182373,0.5456552505493164,-1.3774577379226685
2024-12-07 16:13:04.477161700,9.39116162109375,-0.1887049674987793,0.5748701095581055,-1.487274408340454
2024-12-07 16:13:04.487190000,9.40118994140625,0.4124219417572021,0.5393543243408203,-1.3093602657318115
2024-12-07 16:13:04.497218300,9.41121826171875,1.142531394958496,0.552271842956543,-1.1706726551055908
2024-12-07 16:13:04.507246600,9.42124658203125,1.2968170642852783,0.5604333877563477,-1.217623233795166
2024-12-07 16:13:04.517274600,9.431274658203124,1.4271562099456787,0.6452493667602539,-1.1603597402572632
2024-12-07 16:13:04.527303000,9.441302978515624,1.4813597202301023,0.8065242767333984,-1.2059543132781982
2024-12-07 16:13:04.537331200,9.451331298828125,1.3746798038482666,0.8819284439086914,-1.1391557455062866
2024-12-07 16:13:04.547359500,9.461359375,1.28548264503479,0.7906913757324219,-0.9188815951347352
2024-12-07 16:13:04.557387800,9.4713876953125,1.351213455200195,0.5711641311645508,-0.7221660614013672
2024-12-07 16:13:04.567415800,9.481415771484375,1.589585542678833,0.3140926361083984,-0.5884647965431213
2024-12-07 16:13:04.577444000,9.491444091796875,1.8450214862823489,0.0381088256835937,-0.5175414085388184
2024-12-07 16:13:04.587472400,9.501472412109376,2.0281906127929688,-0.3290958404541015,-0.2925378084182739
2024-12-07 16:13:04.597500700,9.511500732421876,2.00955581665039,-0.9402790069580078,0.397095263004303
2024-12-07 16:13:04.607528700,9.52152880859375,2.2577121257781982,-2.177027702331543,1.6625217199325562
2024-12-07 16:13:04.617557000,9.531556884765624,2.725424289703369,-3.976739883422851,2.9339141845703125
2024-12-07 16:13:04.627585300,9.541585205078125,2.5564446449279785,-5.938243865966797,3.60688829421997
2024-12-07 16:13:04.637613600,9.551613525390623,1.3934643268585205,-6.972160339355469,3.0761020183563232
2024-12-07 16:13:04.647641600,9.5616416015625,0.0992093086242675,-5.532505989074707,1.15562105178833
2024-12-07 16:13:04.657670000,9.571669921875,-1.9511876106262207,-2.430971145629883,-0.4473075270652771
2024-12-07 16:13:04.667698200,9.5816982421875,-4.398094177246094,0.2167310714721679,-0.7088144421577454
2024-12-07 16:13:04.677726500,9.5917265625,-5.359056949615479,2.572508811950684,-0.1367713361978531
2024-12-07 16:13:04.687754800,9.601754638671874,-4.49192476272583,4.441136360168457,1.6108722686767578
2024-12-07 16:13:04.697782800,9.61178271484375,-2.978703022003174,5.792947769165039,3.318626880645752
2024-12-07 16:13:04.707811000,9.62181103515625,-2.5749261379241943,6.040303707122803,3.929579496383667
2024-12-07 16:13:04.717839400,9.63183935546875,-2.859781265258789,4.799695014953613,3.4139137268066406
2024-12-07 16:13:04.727867600,9.64186767578125,-2.379984140396118,3.2303194999694824,2.480290651321411
2024-12-07 16:13:04.737895700,9.651895751953123,-1.5409770011901855,1.459941864013672,1.4725542068481443
2024-12-07 16:13:04.747924000,9.661924072265624,-0.6541087627410889,-0.3936872482299804,0.4009482264518738
2024-12-07 16:13:04.757952300,9.6719521484375,-0.0835013389587402,-1.9634933471679688,-0.5741310119628906
2024-12-07 16:13:04.767980500,9.68198046875,-0.0015366077423095,-2.958475112915039,-1.4459617137908936
2024-12-07 16:13:04.778008600,9.692008544921874,-0.3003051280975342,-3.360036849975586,-1.7991702556610107
2024-12-07 16:13:04.788036900,9.702036865234374,-0.7656959295272827,-3.1686830520629883,-1.6667685508728027
2024-12-07 16:13:04.798065200,9.712065185546876,-1.035423994064331,-2.408985137939453,-1.166084051132202
2024-12-07 16:13:04.808093400,9.722093505859377,-0.8077675104141235,-1.2733879089355469,-0.5078498125076294
2024-12-07 16:13:04.818121700,9.732121826171875,-0.2141926288604736,-0.3079814910888672,0.2194810509681701
2024-12-07 16:13:04.828150000,9.74214990234375,0.1835527420043945,0.3245162963867187,0.8702596426010132
2024-12-07 16:13:04.838178300,9.75217822265625,-0.0619536638259887,0.8112478256225586,1.16366708278656
2024-12-07 16:13:04.848206600,9.76220654296875,-0.5966140031814575,1.2440319061279297,1.066861867904663
2024-12-07 16:13:04.858235000,9.77223486328125,-0.9883082509040833,1.4800167083740234,0.8160584568977356
2024-12-07 16:13:04.868263200,9.78226318359375,-1.2846269607543943,1.4386329650878906,0.3848689198493957
2024-12-07 16:13:04.878291500,9.79229150390625,-1.276260495185852,1.03936767578125,-0.0993646383285522
2024-12-07 16:13:04.888319700,9.80231982421875,-0.8337331414222717,0.2969284057617187,-0.5200049877166748
2024-12-07 16:13:04.898348000,9.81234814453125,-0.387431263923645,-0.4158525466918945,-0.9378868937492372
2024-12-07 16:13:04.908376300,9.822376220703124,-0.3301926851272583,-0.8554372787475586,-1.288830041885376
2024-12-07 16:13:04.918404600,9.832404541015626,-0.5157452821731567,-0.9741420745849608,-1.5507404804229736
2024-12-07 16:13:04.928433000,9.842432861328126,-0.5817214846611023,-0.8292579650878906,-1.6485958099365234
2024-12-07 16:13:04.938461200,9.852461181640624,-0.4079574346542358,-0.5598106384277344,-1.367795467376709
2024-12-07 16:13:04.948489500,9.862489501953124,-0.1491904258728027,-0.2812538146972656,-0.9856703281402588
2024-12-07 16:13:04.958517800,9.872517822265625,-0.1027214527130127,-0.1373491287231445,-0.5499794483184814
2024-12-07 16:13:04.968546000,9.882546142578123,-0.2099303007125854,-0.0706062316894531,-0.2138554155826568
2024-12-07 16:13:04.978574300,9.89257421875,-0.302695631980896,-0.0569744110107421,-0.0223689079284667
2024-12-07 16:13:04.988602600,9.9026025390625,-0.3277291059494018,-0.0437946319580078,0.026852548122406
2024-12-07 16:13:04.998630700,9.912630615234375,-0.3620451688766479,-0.0597572326660156,-0.1419924795627594
2024-12-07 16:13:05.008659000,9.922658935546876,-0.5484210848808289,-0.0903129577636718,-0.4552169144153595
2024-12-07 16:13:05.018687200,9.932687255859374,-0.8229067325592041,-0.1351022720336914,-0.7713855504989624
2024-12-07 16:13:05.028715500,9.942715576171874,-1.0260896682739258,-0.1125288009643554,-0.9678627252578736
2024-12-07 16:13:05.038743800,9.952743896484376,-1.0956403017044067,-0.013066291809082,-1.0332149267196655
2024-12-07 16:13:05.048772000,9.962772216796877,-1.0704089403152466,0.0771141052246093,-0.794539213180542
2024-12-07 16:13:05.058800400,9.97280029296875,-0.979746162891388,0.1626815795898437,-0.4299340546131134
2024-12-07 16:13:05.068828700,9.98282861328125,-0.7681280374526978,0.1812686920166015,-0.0553362369537353
2024-12-07 16:13:05.078857000,9.99285693359375,-0.461549162864685,0.1088590621948242,0.3374043107032776
2024-12-07 16:13:05.088885200,10.00288525390625,-0.1423963904380798,0.0410060882568359,0.6318594217300415
2024-12-07 16:13:05.098913500,10.01291357421875,0.1071234941482544,0.0062322616577148,0.722526490688324
2024-12-07 16:13:05.108941800,10.02294189453125,0.1913111209869384,-0.0815439224243164,0.7531058192253113
2024-12-07 16:13:05.118970000,10.03297021484375,0.191483199596405,-0.0884361267089843,0.60470050573349
2024-12-07 16:13:05.128998400,10.042998291015625,0.0940152406692504,-0.0431652069091796,0.3983411192893982
2024-12-07 16:13:05.139026700,10.053026611328123,0.0004999637603759,-0.0412359237670898,0.2064780592918396
2024-12-07 16:13:05.149055000,10.063054931640623,-0.0175230503082275,-0.0443067550659179,0.072404146194458
2024-12-07 16:13:05.159083000,10.0730830078125,-0.0370309352874755,-0.0667581558227539,-0.0046713948249816
2024-12-07 16:13:05.169111300,10.083111328125,0.0081503391265869,-0.0895252227783203,-0.1162648200988769
2024-12-07 16:13:05.179139600,10.0931396484375,0.0695072412490844,-0.131805419921875,-0.1771233081817627
2024-12-07 16:13:05.189167900,10.10316796875,0.0897169113159179,-0.1935396194458007,-0.4071321189403534
2024-12-07 16:13:05.199196200,10.113196044921876,0.0987327694892883,-0.28887939453125,-0.2990670502185821
2024-12-07 16:13:05.209224200,10.12322412109375,0.1690279841423034,-0.3509607315063476,-0.2568120956420898
2024-12-07 16:13:05.219252500,10.13325244140625,0.271360695362091,-0.3989953994750976,-0.3085263967514038
2024-12-07 16:13:05.229280800,10.14328076171875,0.2816106677055359,-0.4281768798828125,-0.414858341217041
2024-12-07 16:13:05.239309000,10.15330908203125,0.2198900580406189,-0.4145116806030273,-0.6364261507987976
2024-12-07 16:13:05.249337000,10.163337158203126,0.1634883284568786,-0.3340234756469726,-0.7371457815170288
2024-12-07 16:13:05.259365400,10.173365478515626,0.1842096447944641,-0.2727870941162109,-0.7645511627197266
2024-12-07 16:13:05.269393700,10.1833935546875,0.2191553711891174,-0.1352148056030273,-0.6802074909210205
2024-12-07 16:13:05.279422000,10.193421875,0.2823473811149597,-0.0218677520751953,-0.6331077814102173
2024-12-07 16:13:05.289450000,10.203449951171876,0.3208400011062622,0.0530452728271484,-0.6750211715698242
2024-12-07 16:13:05.299478300,10.213478271484377,0.3822330832481384,0.027435302734375,-0.558261513710022
2024-12-07 16:13:05.309506600,10.223506591796877,0.3755791783332824,0.0113515853881835,-0.7232363224029541
2024-12-07 16:13:05.319534800,10.233534912109375,0.1733721494674682,0.0334806442260742,-0.7013903856277466
2024-12-07 16:13:05.329563100,10.243563232421875,0.1311582922935485,-0.0256690979003906,-0.8185993432998657
2024-12-07 16:13:05.339591200,10.253591064453126,0.2343143224716186,-0.0749588012695312,-0.9200137257575988
2024-12-07 16:13:05.349619500,10.263619384765626,0.4345065355300903,-0.1143836975097656,-0.9479964375495912
2024-12-07 16:13:05.359647700,10.273647705078124,0.63478684425354,-0.2443218231201172,-0.9217679500579834
2024-12-07 16:13:05.369676000,10.283676025390625,0.7347887754440308,-0.531585693359375,-0.7043806314468384
2024-12-07 16:13:05.379704000,10.2937041015625,0.8736519813537598,-0.9055137634277344,-0.8056271076202393
2024-12-07 16:13:05.389732400,10.303732421875,0.940051019191742,-1.2770986557006836,-0.925357222557068
2024-12-07 16:13:05.399760600,10.3137607421875,0.8491652607917786,-1.6234855651855469,-1.13049054145813
2024-12-07 16:13:05.409789000,10.323788818359375,0.6735737323760986,-1.853715896606445,-1.0321624279022217
2024-12-07 16:13:05.419817000,10.33381689453125,0.4967489540576935,-1.719614028930664,-0.884324848651886
2024-12-07 16:13:05.429845200,10.34384521484375,0.5742274522781372,-1.3129453659057615,-0.550209641456604
2024-12-07 16:13:05.439873500,10.35387353515625,1.0663139820098877,-0.7925958633422852,0.0657567977905273
2024-12-07 16:13:05.449901800,10.36390185546875,1.661386251449585,-0.350590705871582,0.524090051651001
2024-12-07 16:13:05.459930000,10.37393017578125,1.977743148803711,-0.0205287933349609,0.9334396123886108
2024-12-07 16:13:05.469958100,10.383958251953125,1.9562783241271973,0.259735107421875,1.302820324897766
2024-12-07 16:13:05.479986400,10.393986328125,1.8793301582336424,0.6048812866210938,1.326977014541626
2024-12-07 16:13:05.490014700,10.4040146484375,1.823688268661499,0.9289836883544922,1.100488543510437
2024-12-07 16:13:05.500043000,10.41404296875,1.6607412099838257,1.1367101669311523,0.9274230003356934
2024-12-07 16:13:05.510071000,10.424071044921876,1.4690930843353271,1.2620153427124023,0.724218487739563
2024-12-07 16:13:05.520099300,10.434099365234376,1.4506900310516355,1.2574701309204102,0.5357999801635742
2024-12-07 16:13:05.530127600,10.444127685546874,1.576073408126831,1.1041059494018557,0.3290799856185913
2024-12-07 16:13:05.540156000,10.454156005859376,1.407459020614624,0.8547325134277344,0.060768723487854
2024-12-07 16:13:05.550184000,10.464183837890625,1.2481216192245483,0.5428466796875,-0.1267527341842651
2024-12-07 16:13:05.560212200,10.474212158203123,0.9294337034225464,0.2915048599243164,-0.251081109046936
2024-12-07 16:13:05.570240500,10.484240478515623,0.0775386095046997,-0.0246191024780273,-0.5445474982261658
2024-12-07 16:13:05.580268800,10.494268798828124,-1.3378490209579468,-0.3515033721923828,-1.0435391664505005
2024-12-07 16:13:05.590297000,10.504297119140626,-2.0751140117645264,-0.7239255905151367,-1.75118088722229
2024-12-07 16:13:05.600325000,10.5143251953125,-1.9045127630233765,-1.0427122116088867,-2.2328155040740967
2024-12-07 16:13:05.610353400,10.524353515625,-1.910339117050171,-1.1351795196533203,-1.405268669128418
2024-12-07 16:13:05.620381700,10.534381591796874,-1.599111795425415,-1.0765447616577148,-0.2174069881439209
2024-12-07 16:13:05.630410000,10.544409912109376,-1.070360779762268,-1.0275936126708984,0.754948616027832
2024-12-07 16:13:05.640438000,10.55443798828125,-0.8449842929840088,-0.6545219421386719,1.9594401121139529
2024-12-07 16:13:05.650466300,10.56446630859375,-0.867430567741394,0.0132570266723632,2.736497402191162
2024-12-07 16:13:05.660494600,10.57449462890625,-1.0889062881469729,0.7221088409423828,3.016274929046631
2024-12-07 16:13:05.670523000,10.58452294921875,-1.307409644126892,1.200261116027832,2.970954179763794
2024-12-07 16:13:05.680551200,10.59455126953125,-1.227190017700195,1.3916301727294922,2.531839370727539
2024-12-07 16:13:05.690579200,10.6045791015625,-0.9415797591209412,1.364362716674805,1.7561311721801758
2024-12-07 16:13:05.700607500,10.614607421875,-0.4527552127838135,0.9946002960205078,1.2472472190856934
2024-12-07 16:13:05.710635800,10.6246357421875,0.2319155931472778,0.6742563247680664,0.5677504539489746
2024-12-07 16:13:05.720664000,10.6346640625,0.7028878927230835,0.4027004241943359,-0.0090459585189819
2024-12-07 16:13:05.730692000,10.644692138671877,0.8443156480789185,0.1364755630493164,-0.3783196806907654
2024-12-07 16:13:05.740720400,10.654720458984375,0.9385844469070436,-0.0003747940063476,-0.8180996775627136
2024-12-07 16:13:05.750748700,10.664748779296875,0.951844334602356,-0.0751056671142578,-1.0454251766204834
2024-12-07 16:13:05.760776700,10.674776611328124,0.922515034675598,-0.0593576431274414,-1.27651047706604
2024-12-07 16:13:05.770805000,10.684804931640626,0.9982291460037231,-0.0538148880004882,-1.4536142349243164
2024-12-07 16:13:05.780833300,10.694833251953124,1.0348109006881714,-0.1256790161132812,-1.191585898399353
2024-12-07 16:13:05.790861300,10.704861328125,1.074680209159851,-0.136758804321289,-0.7772302627563477
2024-12-07 16:13:05.800889600,10.7148896484375,1.0369884967803955,-0.0252914428710937,-0.4811611771583557
2024-12-07 16:13:05.810917600,10.724917724609377,1.0664557218551636,0.1655282974243164,-0.3001575171947479
2024-12-07 16:13:05.820946000,10.73494580078125,1.1250613927841189,0.4212150573730469,-0.1580411195755005
2024-12-07 16:13:05.830974000,10.744973876953123,1.059382438659668,0.7367591857910156,-0.0014085173606872
2024-12-07 16:13:05.841002200,10.755002197265624,0.4946613311767578,0.9118442535400392,0.6566218137741089
2024-12-07 16:13:05.851030500,10.765030517578126,0.0536046028137207,1.2392969131469729,0.9345831274986268
2024-12-07 16:13:05.861058600,10.77505859375,-0.3400832414627075,1.476480484008789,1.1070671081542969
2024-12-07 16:13:05.871086800,10.7850869140625,-0.5554871559143066,1.409257888793945,1.5224963426589966
2024-12-07 16:13:05.881115000,10.795114990234374,-0.2499473094940185,1.320150375366211,1.4211210012435913
2024-12-07 16:13:05.891143200,10.80514306640625,-0.0186009407043457,1.0274133682250977,1.248531937599182
2024-12-07 16:13:05.901171200,10.815171142578125,0.3285291194915771,0.6936445236206055,0.9418221712112428
2024-12-07 16:13:05.911199500,10.825199462890623,0.7022037506103516,0.4090385437011719,0.3300071358680725
2024-12-07 16:13:05.921227800,10.835227783203123,1.279435396194458,0.3015766143798828,-0.315132200717926
2024-12-07 16:13:05.931255800,10.845255859375,1.8127422332763672,0.2076339721679687,-0.8450978994369507
2024-12-07 16:13:05.941284000,10.8552841796875,2.3239493370056152,0.1266355514526367,-1.1743355989456177
2024-12-07 16:13:05.951312100,10.86531201171875,2.5589847564697266,0.072484016418457,-1.5060163736343384
2024-12-07 16:13:05.961340400,10.87534033203125,2.0904736518859863,0.1936750411987304,-1.9096062183380127
2024-12-07 16:13:05.971368400,10.885368408203124,1.5213372707366943,0.3189496994018554,-2.1767396926879883
2024-12-07 16:13:05.981396700,10.895396728515625,0.8061833381652832,0.5207452774047852,-1.987980604171753
2024-12-07 16:13:05.991425000,10.905425048828125,0.0289173126220703,0.8234615325927734,-1.448005199432373
2024-12-07 16:13:06.001453000,10.915453125,-0.3485298156738281,0.9458560943603516,-0.5966553092002869
2024-12-07 16:13:06.011481300,10.9254814453125,-0.1911463737487793,0.8457508087158203,0.4031547307968139
2024-12-07 16:13:06.021509400,10.93550927734375,0.1977331638336181,0.5231485366821289,1.1922338008880615
2024-12-07 16:13:06.031537700,10.94553759765625,0.4011003971099853,-0.0026845932006835,1.5099642276763916
2024-12-07 16:13:06.041565700,10.955565673828126,0.6788699626922607,-0.7461147308349609,1.3533027172088623
2024-12-07 16:13:06.051594000,10.965593994140624,0.6077971458435059,-1.765467643737793,1.2319443225860596
2024-12-07 16:13:06.061622000,10.9756220703125,0.0466256141662597,-2.778849601745605,1.3668267726898191
2024-12-07 16:13:06.071650300,10.985650390625,-0.5279476642608643,-3.781169891357422,2.224947929382324
2024-12-07 16:13:06.081678600,10.9956787109375,-0.708473801612854,-4.169552803039551,2.643592357635498
2024-12-07 16:13:06.091706600,11.00570654296875,-0.6971076726913452,-3.554025650024414,2.570592403411865
2024-12-07 16:13:06.101735000,11.01573486328125,-1.308849811553955,-1.971153259277344,2.4710404872894287
2024-12-07 16:13:06.111763000,11.025762939453124,-2.883455276489258,0.2345619201660156,2.2038705348968506
2024-12-07 16:13:06.121791200,11.035791259765626,-3.820173740386963,2.166723728179932,2.296035051345825
2024-12-07 16:13:06.131819300,11.0458193359375,-3.348949193954468,3.2101426124572754,2.602245569229126
2024-12-07 16:13:06.141847600,11.05584765625,-2.5095009803771973,3.5230674743652344,2.6653590202331543
2024-12-07 16:13:06.151875800,11.065875732421874,-1.8669142723083496,3.2871251106262207,2.4102652072906494
2024-12-07 16:13:06.161903900,11.07590380859375,-1.79180645942688,2.5504722595214844,1.8228914737701416
2024-12-07 16:13:06.171932200,11.08593212890625,-1.924862146377564,1.543431282043457,1.1610883474349976
2024-12-07 16:13:06.181960200,11.095960205078123,-1.7375315427780151,0.4715785980224609,0.3624212145805359
2024-12-07 16:13:06.191988500,11.105988525390623,-1.3203794956207275,-0.5460138320922852,-0.5909432172775269
2024-12-07 16:13:06.202016500,11.1160166015625,-0.7417967319488525,-1.4189949035644531,-1.4412481784820557
2024-12-07 16:13:06.212044800,11.126044921875,-0.388559341430664,-1.9615936279296875,-1.8127095699310305
2024-12-07 16:13:06.222073000,11.136072998046876,-0.3000346422195434,-2.0599660873413086,-2.031690835952759
2024-12-07 16:13:06.232101400,11.146101318359374,-0.5271009206771851,-1.786359786987305,-2.1081128120422363
2024-12-07 16:13:06.242129400,11.15612939453125,-1.0462138652801514,-1.250584602355957,-2.0127406120300293
2024-12-07 16:13:06.252157700,11.16615771484375,-1.4971908330917358,-0.772181510925293,-1.4882118701934814
2024-12-07 16:13:06.262186000,11.17618603515625,-1.3801214694976809,-0.3317384719848633,-0.8974443674087524
2024-12-07 16:13:06.272214300,11.18621435546875,-1.2212979793548584,0.02728271484375,-0.1363085508346557
2024-12-07 16:13:06.282242600,11.19624267578125,-1.2109369039535522,0.4241580963134765,0.6377590298652649
2024-12-07 16:13:06.292270600,11.2062705078125,-1.104778289794922,0.7439298629760742,1.2603060007095337
2024-12-07 16:13:06.302299000,11.216298828125,-0.8038060665130615,0.8763418197631836,1.6228816509246826
2024-12-07 16:13:06.312327200,11.2263271484375,-0.4455029368400574,0.7589597702026367,1.8328696489334104
2024-12-07 16:13:06.322355500,11.23635546875,-0.0052049160003662,0.4155893325805664,1.788466453552246
2024-12-07 16:13:06.332383500,11.246383544921876,0.2271728515625,0.0233144760131835,1.2339752912521362
2024-12-07 16:13:06.342411800,11.256411865234377,0.1606733798980713,-0.2787036895751953,0.4149748086929321
2024-12-07 16:13:06.352440000,11.266440185546877,-0.081811785697937,-0.4850616455078125,-0.1907151341438293
2024-12-07 16:13:06.362468400,11.27646826171875,-0.1626297235488891,-0.5667905807495117,-0.7397111654281616
2024-12-07 16:13:06.372496400,11.286496337890624,-0.0928351879119873,-0.4953317642211914,-1.2388091087341309
2024-12-07 16:13:06.382524700,11.296524658203126,0.0499283075332641,-0.3809328079223633,-1.496647596359253
2024-12-07 16:13:06.392553000,11.306552978515626,0.2217735052108764,-0.286015510559082,-1.5537755489349363
2024-12-07 16:13:06.402581200,11.316581298828124,0.3548270463943481,-0.2299089431762695,-1.641953706741333
2024-12-07 16:13:06.412609500,11.326609619140624,0.4206631183624267,-0.298563003540039,-1.6428464651107788
2024-12-07 16:13:06.422637600,11.336637451171876,0.3964248895645141,-0.4009523391723633,-1.5724565982818604
2024-12-07 16:13:06.432665900,11.346665771484377,0.2398863434791565,-0.4893131256103515,-1.5471627712249756
2024-12-07 16:13:06.442694100,11.356694091796877,0.0327584147453308,-0.5349664688110352,-1.68124520778656
2024-12-07 16:13:06.452722400,11.366722412109375,-0.2763592004776001,-0.4278182983398437,-1.8525619506835933
2024-12-07 16:13:06.462750500,11.37675048828125,-0.6375377774238586,-0.210855484008789,-1.777251362800598
2024-12-07 16:13:06.472778800,11.38677880859375,-0.9857616424560548,0.15411376953125,-1.3843663930892944
2024-12-07 16:13:06.482807000,11.39680712890625,-1.0420591831207275,0.5139760971069336,-1.1053098440170288
2024-12-07 16:13:06.492835300,11.40683544921875,-1.0178630352020264,0.7587804794311523,-0.7156078815460205
2024-12-07 16:13:06.502863600,11.416863525390625,-0.7993918657302856,0.87420654296875,-0.236706256866455
2024-12-07 16:13:06.512891600,11.4268916015625,-0.4745492339134216,0.9223976135253906,0.0336697101593017
2024-12-07 16:13:06.522920000,11.436919921875,-0.2354081273078918,0.8317241668701172,0.2193349599838256
2024-12-07 16:13:06.532948200,11.4469482421875,-0.0818744897842407,0.6406059265136719,0.3621537685394287
2024-12-07 16:13:06.542976300,11.456976318359375,0.0328182578086853,0.2393827438354492,0.1953023076057434
2024-12-07 16:13:06.553004500,11.467004638671876,-0.0304707884788513,-0.1802749633789062,0.0840764045715332
2024-12-07 16:13:06.563032800,11.47703271484375,-0.2183197140693664,-0.4797258377075195,0.0096848607063293
2024-12-07 16:13:06.573060900,11.487060791015624,-0.3951955437660217,-0.6304893493652344,-0.070762038230896
2024-12-07 16:13:06.583089200,11.497089111328124,-0.5130962133407593,-0.6757392883300781,-0.1506550908088684
2024-12-07 16:13:06.593117200,11.5071171875,-0.571691632270813,-0.5870332717895508,-0.0004726648330688
2024-12-07 16:13:06.603145500,11.5171455078125,-0.4428780078887939,-0.3218030929565429,0.1639987826347351
2024-12-07 16:13:06.613173500,11.527173583984377,-0.1992282569408416,-0.076481819152832,0.3606171607971191
2024-12-07 16:13:06.623201800,11.537201904296875,0.2108289003372192,-0.0376834869384765,0.8820661306381226
2024-12-07 16:13:06.633229800,11.547229736328124,0.7704806923866272,-0.1669979095458984,0.9185189008712769
2024-12-07 16:13:06.643258000,11.557258056640626,1.0295310020446775,-0.296849250793457,0.8202617168426514
2024-12-07 16:13:06.653286400,11.567286376953126,1.0385785102844238,-0.4941082000732422,0.6441541910171509
2024-12-07 16:13:06.663314400,11.577314453125,0.9808167219161988,-0.6485967636108398,0.1290292739868164
