time,seconds_elapsed,z,y,x
2024-12-07 19:55:48.519841800,0.040841796875,0.2685696881324053,-2.4566706835508345,-0.714075321316719
2024-12-07 19:55:48.529854700,0.050854736328125,-0.0697872465866152,-2.526428110387921,-0.9146727124631404
2024-12-07 19:55:48.539869000,0.060868896484375,-0.4093547078728675,-2.3682559025168417,-1.0152911415100097
2024-12-07 19:55:48.549881900,0.0708818359375,-0.1830886224627494,-2.122681305524707,-1.042941364979744
2024-12-07 19:55:48.559894800,0.080894775390625,0.2254629523336887,-1.826047552424669,-1.0981161397129298
2024-12-07 19:55:48.569908000,0.090907958984375,0.4401368361601606,-1.6234212857991457,-1.1930302196383475
2024-12-07 19:55:48.579922000,0.100921875,0.2334861363241449,-1.6998247265219688,-1.3875558896556497
2024-12-07 19:55:48.589934800,0.110934814453125,-0.4328384958455338,-1.3290104694455862,-1.7423589231297372
2024-12-07 19:55:48.599948000,0.120947998046875,-1.1577812116026878,-1.1738912194043398,-1.8127642924815413
2024-12-07 19:55:48.609961700,0.130961669921875,-1.70784202876091,-1.5407798274695872,-1.465795605894923
2024-12-07 19:55:48.619975000,0.140974853515625,-1.3525415671586989,-2.266484211781621,-0.6507455894395708
2024-12-07 19:55:48.629987800,0.15098779296875,-0.8488391810715198,-2.789985523316264,0.3222255827352404
2024-12-07 19:55:48.640000800,0.161000732421875,-0.8171171781182288,-2.427011458346247,0.62338762691468
2024-12-07 19:55:48.650015000,0.171014892578125,-0.7380932526987045,-1.490413914322853,0.4300950058236717
2024-12-07 19:55:48.660028000,0.18102783203125,-0.1995090844530612,-0.2587333537727594,0.1555919821195304
2024-12-07 19:55:48.670040800,0.191040771484375,0.3205424519538879,0.481473603144288,-0.065401861976087
2024-12-07 19:55:48.680054800,0.2010546875,0.4939852211277931,-0.6109843646764755,0.8466179248254746
2024-12-07 19:55:48.690067700,0.211067626953125,0.8426467561721801,-2.6734365346878763,1.7310507626518603
2024-12-07 19:55:48.700081000,0.221080810546875,1.1757553327757864,-3.171538032028079,1.6235481270492076
2024-12-07 19:55:48.710094000,0.231093994140625,1.045946903471276,-3.2746430171936747,1.315194710060954
2024-12-07 19:55:48.720107800,0.241107666015625,0.5917314557392149,-3.72246160349548,0.9363765216838568
2024-12-07 19:55:48.730121000,0.251120849609375,0.2646212427675724,-2.3999112699747083,0.6327839624218642
2024-12-07 19:55:48.740134000,0.2611337890625,-0.0993010628379881,1.3858645755678414,1.4896546203881502
2024-12-07 19:55:48.750147800,0.27114794921875,-0.0317103125154972,5.194248558759689,1.9226798344448208
2024-12-07 19:55:48.760161000,0.2811611328125,0.1156605153560638,8.05406515867114,1.3006541435331105
2024-12-07 19:55:48.770173700,0.291173583984375,0.0657528673708438,9.899083953547477,0.4450388193901628
2024-12-07 19:55:48.780187000,0.301186767578125,-0.0027929917193949,10.982490599906445,-0.5582268802180886
2024-12-07 19:55:48.790200800,0.311200927734375,-0.2168587901175022,10.605212115252018,-2.17734783847481
2024-12-07 19:55:48.800213800,0.3212138671875,-0.4266624740917235,8.292927690804005,-4.2431352903887625
2024-12-07 19:55:48.810227000,0.33122705078125,-0.1751310145217925,4.405056329399347,-4.979810858309269
2024-12-07 19:55:48.820241000,0.341240966796875,0.35397345078215,0.7098591649264097,-2.6394863342911004
2024-12-07 19:55:48.830253800,0.35125390625,0.8768142525814473,-0.8395774317294359,-0.3057924804590642
2024-12-07 19:55:48.840267000,0.36126708984375,1.0092786032222212,-1.849095835056901,0.681317399444431
2024-12-07 19:55:48.850280000,0.371280029296875,0.9828115981876848,-2.4501760608345267,1.0454745367191731
2024-12-07 19:55:48.860294000,0.3812939453125,0.7345498810034244,-2.1733055773466825,1.217502835985273
2024-12-07 19:55:48.870307000,0.39130712890625,0.4246854749303311,-1.4599392810821532,1.4278425995975732
2024-12-07 19:55:48.880319700,0.40131982421875,0.2566249833166599,-0.7369400640755891,1.7595926742643118
2024-12-07 19:55:48.890334000,0.411333984375,0.1804641191780567,0.0137619833707809,2.0685142465293405
2024-12-07 19:55:48.900347000,0.421346923828125,0.1026478890478611,0.3000228110164403,1.95952429497838
2024-12-07 19:55:48.910359800,0.43135986328125,0.4295592184465378,0.3078016283243894,1.447466460739076
2024-12-07 19:55:48.920373000,0.441373046875,0.8010028594676405,0.2189858652740716,0.7746421643517911
2024-12-07 19:55:48.930386700,0.45138671875,0.8136823082987219,0.0967629226624965,0.2416101503405719
2024-12-07 19:55:48.940399900,0.46139990234375,0.5514985948763788,0.0337841961801052,-0.1400919959750026
2024-12-07 19:55:48.950412800,0.471412841796875,0.2526068337164819,-0.0272357974499464,-0.3598089520025998
2024-12-07 19:55:48.960426800,0.4814267578125,0.1155260753214359,-0.0175000008553266,-0.5341646713029593
2024-12-07 19:55:48.970440000,0.49143994140625,0.1608313440777361,0.0626432109177112,-0.6358521908860654
2024-12-07 19:55:48.980452900,0.501452880859375,0.2818492948137223,0.1132306578606367,-0.7446759920898824
2024-12-07 19:55:48.990465800,0.5114658203125,0.3193864137865603,0.0485416203290224,-0.8053995600566267
2024-12-07 19:55:49.000480000,0.52147998046875,0.253962997565791,-0.0816004248440265,-0.6830125859897583
2024-12-07 19:55:49.010493000,0.531492919921875,0.1556838981866836,-0.1259463470488786,-0.2500140407443046
2024-12-07 19:55:49.020505900,0.541505859375,0.0379669617574661,-0.1844710167318582,0.3689253015246242
2024-12-07 19:55:49.030520000,0.55152001953125,0.081586396318674,-0.1533347047120332,0.9936297831915318
2024-12-07 19:55:49.040532700,0.56153271484375,0.3294680281441658,0.0367091437160968,1.5214850521519778
2024-12-07 19:55:49.050546000,0.5715458984375,0.7188519611340015,0.2420662966102361,1.902398240046948
2024-12-07 19:55:49.060560000,0.581559814453125,1.036529086784646,0.3228098123639822,2.077107302829623
2024-12-07 19:55:49.070572800,0.59157275390625,0.9550666821718216,0.2060959885627031,2.085364259043336
2024-12-07 19:55:49.080586000,0.6015859375,0.6224222890138625,-0.0925987887203693,2.011291307094693
2024-12-07 19:55:49.090599000,0.611598876953125,0.1319230103056878,-0.4378770380020141,2.020752670662105
2024-12-07 19:55:49.100612900,0.62161279296875,-0.6180605866730213,-0.7491688465297222,2.05186238693595
2024-12-07 19:55:49.110625800,0.631625732421875,-1.4073358181416988,-1.0372814395219088,1.9674933741614224
2024-12-07 19:55:49.120638700,0.641638671875,-1.843027767189592,-1.0781085399508477,1.6640236375615
2024-12-07 19:55:49.130653000,0.65165283203125,-1.7652094912327825,-0.8804793509602546,1.1103729792177677
2024-12-07 19:55:49.140665900,0.661665771484375,-1.433685042015463,-0.6250935540497302,0.5145896177392453
2024-12-07 19:55:49.150678800,0.6716787109375,-0.8719127442754805,-0.3340489992588758,0.0889830093760043
2024-12-07 19:55:49.160692000,0.68169189453125,-0.3983108974196016,-0.0267921453356742,-0.1799303776275366
2024-12-07 19:55:49.170706000,0.691705810546875,-0.2322552428223192,0.1129424885690212,-0.4096940228298306
2024-12-07 19:55:49.180718800,0.70171875,-0.2322679561734199,-0.0362397726386785,-0.5407333821687847
2024-12-07 19:55:49.190731800,0.711731689453125,-0.2933040241554379,-0.2394154898405075,-0.5477805242013186
2024-12-07 19:55:49.200745700,0.721745849609375,-0.3369369757853448,-0.4976286191314458,-0.3957536141522228
2024-12-07 19:55:49.210759000,0.731759033203125,-0.6410204603694379,-0.4056172749102115,0.2539558371726423
2024-12-07 19:55:49.220771800,0.741771728515625,-1.1369082271829247,-0.1405155551493167,0.9012764936648308
2024-12-07 19:55:49.230784800,0.75178466796875,-1.4950935965716838,0.2176379577964544,1.2964672132372856
2024-12-07 19:55:49.240799000,0.761799072265625,-1.615228188601881,0.6503063212394714,1.7078727161601184
2024-12-07 19:55:49.250812000,0.77181201171875,-1.4574904266253113,1.0219494303554295,2.01642516285181
2024-12-07 19:55:49.260824800,0.781824951171875,-1.3597415616653858,1.3553525329262015,2.019584503665566
2024-12-07 19:55:49.270839000,0.791839111328125,-1.4565034614145755,1.523235987472534,1.691028841125965
2024-12-07 19:55:49.280852000,0.80185205078125,-1.4657505977094172,1.4481570733517408,1.0875934305243191
2024-12-07 19:55:49.290865000,0.811864990234375,-1.232725977949798,1.1806985613316296,0.4523190395262092
2024-12-07 19:55:49.300877800,0.8218779296875,-0.7089851585708559,0.9124111972719432,-0.1196339490316808
2024-12-07 19:55:49.310891800,0.831891845703125,-0.0656862318754196,0.722234662374854,-0.4985555247180163
2024-12-07 19:55:49.320905000,0.841905029296875,0.4679365876358002,0.7415893511861562,-0.5516195178423077
2024-12-07 19:55:49.330918000,0.85191796875,0.755089980207011,0.8924369152575731,-0.438367378802225
2024-12-07 19:55:49.340931800,0.861931884765625,0.8244505166810006,1.2116904964447022,-0.2582909437675029
2024-12-07 19:55:49.350944800,0.87194482421875,0.6471312713999301,1.626533280339837,-0.1848428457189351
2024-12-07 19:55:49.360958000,0.8819580078125,0.5618411982577294,1.838759734481573,-0.3971405384659767
2024-12-07 19:55:49.370971000,0.891970947265625,0.4895381420584395,1.7975567864775657,-0.6829905933536589
2024-12-07 19:55:49.380984800,0.90198486328125,0.1246528001070022,1.5755354990303516,-0.8530161744952202
2024-12-07 19:55:49.390997800,0.911997802734375,-0.4652946217596531,1.2890841172486542,-0.8331525132484734
2024-12-07 19:55:49.401010700,0.9220107421875,-0.8887574230272323,1.0189718758493662,-0.7131387711189687
2024-12-07 19:55:49.411025000,0.93202490234375,-0.7855681936442852,0.6450082148313522,-0.5424307606711983
2024-12-07 19:55:49.421037800,0.942037841796875,-0.4677682453315704,0.2283843927383422,-0.2849826244033873
2024-12-07 19:55:49.431050800,0.95205078125,0.0454126015882939,-0.1539408539116382,-0.1701607518285512
2024-12-07 19:55:49.441064000,0.96206396484375,0.2499976375987753,-0.5267816483795642,-0.2207156116761267
2024-12-07 19:55:49.451078000,0.972077880859375,-0.2684043049702421,-0.8579489547222853,-0.3133670073665678
2024-12-07 19:55:49.461090800,0.9820908203125,-0.822697024077177,-0.96767715741992,-0.3092648327447473
2024-12-07 19:55:49.471104000,0.99210400390625,-0.7001999406993389,-0.9064911595731971,-0.1952193513698875
2024-12-07 19:55:49.481118000,1.002117919921875,-0.2955389436006546,-0.7469651990056038,0.0379815017394721
2024-12-07 19:55:49.491131000,1.012130859375,-0.3889058306166902,-0.7411608966410159,0.4676088900513946
2024-12-07 19:55:49.501143000,1.02214306640625,-0.5748422802586108,-0.9048685268074274,0.9591850772760808
2024-12-07 19:55:49.511156000,1.032156005859375,-0.5253448935747146,-1.1356371843338011,1.324233610432595
2024-12-07 19:55:49.521170000,1.042169921875,-0.1572305431067943,-1.3599521356761457,1.5365240697212517
2024-12-07 19:55:49.531182800,1.052182861328125,0.5996727335998788,-1.4622382056742906,1.2423182744204997
2024-12-07 19:55:49.541195800,1.06219580078125,1.170526126885414,-1.3570178357899187,0.4765560204863548
2024-12-07 19:55:49.551210000,1.0722099609375,0.6996434758603572,-1.162991639727354,-0.3417442299365997
2024-12-07 19:55:49.561223000,1.082222900390625,-0.3284861044347286,-1.1030758079469205,-0.8213055697187781
2024-12-07 19:55:49.571235800,1.09223583984375,-0.7108405771791935,-1.340881524503231,-0.9419774834960698
2024-12-07 19:55:49.581248800,1.102248779296875,-0.1053600888823158,-1.8472306257069109,-1.015007063871622
2024-12-07 19:55:49.591262700,1.1122626953125,0.6848445506572723,-2.4997055231571195,-1.1128457990720868
2024-12-07 19:55:49.601276000,1.12227587890625,0.7482499781191349,-3.107263420516252,-1.046488243806362
2024-12-07 19:55:49.611288800,1.132288818359375,0.4541466202795505,-3.475342115148902,-0.6364554905414581
2024-12-07 19:55:49.621302800,1.142302734375,0.3483434820711612,-3.560745439407229,-0.0200225050702691
2024-12-07 19:55:49.631316000,1.15231591796875,0.2318050148367881,-3.2747160824298858,0.3865585003055632
2024-12-07 19:55:49.641329000,1.162328857421875,-0.5460825611770153,-2.5619641186714173,0.655833998619765
2024-12-07 19:55:49.651341800,1.172341796875,-1.0355284583747386,-1.5486568444550035,1.1427787266515197
2024-12-07 19:55:49.661356000,1.18235595703125,0.2527133810971863,-0.8605220200806856,1.6846546299189329
2024-12-07 19:55:49.671369000,1.192368896484375,2.6353625323593617,-0.6578191810876131,1.1642227889575063
2024-12-07 19:55:49.681382000,1.2023818359375,3.3337820193827152,0.3352209656476974,-0.2459372928246855
2024-12-07 19:55:49.691394800,1.212394775390625,1.91316001868844,2.43760007237792,-1.3698561284445223
2024-12-07 19:55:49.701408800,1.22240869140625,-0.2413806159010156,4.982496736392378,-2.0066272608064115
2024-12-07 19:55:49.711422000,1.232421875,-1.9005261625647545,6.7703218179285525,-2.74044027890265
2024-12-07 19:55:49.721435000,1.242434814453125,-2.639338450253009,7.0329211994796985,-3.5415015174940225
2024-12-07 19:55:49.731448800,1.25244873046875,-2.1584406011700628,4.771735094106197,-4.050153342682123
2024-12-07 19:55:49.741461800,1.262461669921875,-1.0315279905617236,1.7253981437176464,-3.829226864734292
2024-12-07 19:55:49.751475000,1.272474853515625,-0.110012864857912,-0.4027893580079078,-3.2142379405915733
2024-12-07 19:55:49.761488000,1.28248779296875,0.5662427211523056,-1.78971600984931,-2.287104975005984
2024-12-07 19:55:49.771501800,1.292501708984375,1.376551388299465,-2.470925418874621,-1.184028144145757
2024-12-07 19:55:49.781515000,1.302514892578125,2.387573181927204,-2.573362295520305,-0.1715166964821517
2024-12-07 19:55:49.791527700,1.312527587890625,3.300474793064594,-2.2669062365859745,0.6769580351911485
2024-12-07 19:55:49.801542000,1.3225419921875,3.571279108381271,-1.5603800154745575,1.2723913411229848
2024-12-07 19:55:49.811554800,1.332554931640625,3.297450476807356,-0.6521510723233223,1.562539531596005
2024-12-07 19:55:49.821567700,1.342567626953125,2.615570621174574,0.3402361634612083,1.7157238680519162
2024-12-07 19:55:49.831581000,1.352580810546875,1.6272878980994223,1.2455214543759825,1.9112990471221505
2024-12-07 19:55:49.841595000,1.362594970703125,0.3505564819455146,1.7740543303370475,2.045111451371014
2024-12-07 19:55:49.851607800,1.37260791015625,-1.57016724999547,1.552589507728815,1.8896283364534376
2024-12-07 19:55:49.861621000,1.38262109375,-2.797635161286592,0.9628209495604038,1.513972046173364
2024-12-07 19:55:49.871635000,1.392635009765625,-2.54308523067832,0.2184726550549268,1.0817472617793829
2024-12-07 19:55:49.881647900,1.40264794921875,-2.211137587612867,-0.4833937575519084,0.6313502032916992
2024-12-07 19:55:49.891661000,1.4126611328125,-1.6744845335602758,-0.7845610624283552,0.3618487142018973
2024-12-07 19:55:49.901673700,1.422673828125,-1.0111411091584712,-0.7808551936477423,0.1707610558092594
2024-12-07 19:55:49.911688000,1.43268798828125,-0.5418822599429637,-0.7143968083560467,-0.1094578613236546
2024-12-07 19:55:49.921700900,1.442700927734375,-0.3030769378900528,-0.6174515148639679,-0.3966647376477718
2024-12-07 19:55:49.931713800,1.4527138671875,-0.6242917361475527,-0.4553589186787605,-0.7012421432286501
2024-12-07 19:55:49.941728000,1.46272802734375,-1.301690500843525,-0.124099257877469,-1.118753123419732
2024-12-07 19:55:49.951741000,1.472740966796875,-1.7737106314659117,0.2096194865137338,-1.3389504103101788
2024-12-07 19:55:49.961753900,1.48275390625,-1.4663281053364277,0.5318161354154348,-1.0675079432204364
2024-12-07 19:55:49.971767000,1.49276708984375,-0.2251637501914054,0.6666647508442402,-0.4708357431434095
2024-12-07 19:55:49.981780700,1.50278076171875,1.2961948260366916,0.2361883444875478,0.0626440877005457
2024-12-07 19:55:49.991794000,1.5127939453125,2.0774702909231184,-0.1578103888213634,0.4747805352464318
2024-12-07 19:55:50.001806800,1.522806884765625,2.084586260408163,-0.2929758151143789,0.6955711118549108
2024-12-07 19:55:50.011820800,1.53282080078125,1.606193672144413,-0.3121352736145257,0.8328587909989058
2024-12-07 19:55:50.021834000,1.542833984375,0.8416985886018723,-0.3814484638154506,0.8265614444203674
2024-12-07 19:55:50.031846700,1.5528466796875,0.1654348923504352,-0.6126578508466481,0.496495742643997
2024-12-07 19:55:50.041859800,1.56285986328125,-0.2210908747293055,-0.6978343806117773,0.1236377047803252
2024-12-07 19:55:50.051874000,1.5728740234375,-0.2763185486935079,-0.4800415245145559,-0.0546081538263708
2024-12-07 19:55:50.061886700,1.58288671875,-0.2164529857955872,-0.2095879223316907,-0.270884029489383
2024-12-07 19:55:50.071900000,1.59289990234375,-0.24015666359663,-0.2898445313513278,-0.6162741416476667
2024-12-07 19:55:50.081913900,1.602913818359375,-0.6614918051857501,-0.6766852095991372,-0.8397012773048133
2024-12-07 19:55:50.091926800,1.6129267578125,-1.4624503871202468,-0.929082346087694,-0.6594710399478674
2024-12-07 19:55:50.101940000,1.62293994140625,-2.048184429075569,-1.0467413417845963,-0.1242639469198882
2024-12-07 19:55:50.111953000,1.632952880859375,-2.144788800175488,-0.9893097280353308,0.6129241005674004
2024-12-07 19:55:50.121966800,1.642966796875,-1.7956218728922306,-0.5364952331423759,1.5533965863279997
2024-12-07 19:55:50.131980000,1.65297998046875,-1.076588856102899,0.216519767421484,2.502611181470752
2024-12-07 19:55:50.141992700,1.66299267578125,-0.3179156836468726,1.1432061582833528,3.3357243856221435
2024-12-07 19:55:50.152007000,1.6730068359375,-0.6386497857153415,2.248697795200348,3.982748616451025
2024-12-07 19:55:50.162020000,1.68302001953125,-1.577042542592436,3.1123622049599886,3.8666818583816287
2024-12-07 19:55:50.172032800,1.69303271484375,-2.788430110567808,2.9262065961420536,2.5255788000822066
2024-12-07 19:55:50.182046000,1.7030458984375,-3.7374341316998,2.3787545001775023,0.8974189414538443
2024-12-07 19:55:50.192059600,1.7130595703125,-3.51249608002305,2.1239929726451634,-0.2205468309804797
2024-12-07 19:55:50.202072800,1.72307275390625,-1.914748749184608,1.999468767353892,-0.8448938044466078
2024-12-07 19:55:50.212086000,1.7330859375,-0.2884569494504481,2.0570652162760497,-1.1322614242903888
2024-12-07 19:55:50.222099000,1.743098876953125,0.7221230186939239,2.3994255322843787,-1.3804387511268257
2024-12-07 19:55:50.232113000,1.75311279296875,2.024597947913408,2.587984695112705,-1.7434496409758924
2024-12-07 19:55:50.242125800,1.763125732421875,3.37312501873374,2.3582635008126496,-1.8202284908823667
2024-12-07 19:55:50.252138800,1.773138671875,3.8035423883795736,1.58557232439816,-1.3102983163215218
2024-12-07 19:55:50.262153000,1.783153076171875,3.121480161917209,0.6697580406844615,-0.3909254633434116
2024-12-07 19:55:50.272166000,1.793165771484375,2.254115144073963,-0.1429968505710363,0.3226258340992033
2024-12-07 19:55:50.282178800,1.8031787109375,1.1723556804001332,-0.8424269759416579,0.9293271146290004
2024-12-07 19:55:50.292191700,1.813191650390625,-0.1012742991397157,-1.3089590305417775,1.81204912994951
2024-12-07 19:55:50.302205700,1.823205810546875,-0.8037843068797141,-1.4660761764019727,2.873052513581514
2024-12-07 19:55:50.312219000,1.833218994140625,-1.246708033812046,-1.537594183170795,3.663872051882744
2024-12-07 19:55:50.322231800,1.843231689453125,-2.1694249365210534,-1.5122446378588676,3.7540439057171344
2024-12-07 19:55:50.332245800,1.853245849609375,-3.25225407525301,-1.847771308454871,3.227071703201532
2024-12-07 19:55:50.342259000,1.863259033203125,-2.829243766993284,-1.6710878768593072,1.3875801473140716
2024-12-07 19:55:50.352272000,1.87327197265625,-1.1777835506677627,-1.122418221798539,-0.0559773232877254
2024-12-07 19:55:50.362284800,1.883284912109375,0.3626630993247032,-0.7828145110219716,-0.7636844247467816
2024-12-07 19:55:50.372299000,1.893299072265625,0.8704910409092903,-0.9102882137686014,-1.1674619170092049
2024-12-07 19:55:50.382312000,1.90331201171875,0.5037444351306185,-1.57063311394155,-1.381949886342138
2024-12-07 19:55:50.392324900,1.913324951171875,-0.214934562322963,-2.585189511436224,-1.3544845179200171
2024-12-07 19:55:50.402339000,1.923339111328125,-0.6156219613492488,-3.521608776283264,-1.0145255639649926
2024-12-07 19:55:50.412351700,1.933351806640625,-0.2352291623328812,-4.067329518410563,-0.3879508314467966
2024-12-07 19:55:50.422365000,1.943364990234375,0.6657353610396385,-3.988175317674875,0.7251306760773062
2024-12-07 19:55:50.432377900,1.9533779296875,1.0165864420175552,-3.119500386276841,2.2012140133611857
2024-12-07 19:55:50.442391800,1.963391845703125,0.8153741338431835,-1.98998022351861,3.2533079682201147
2024-12-07 19:55:50.452405000,1.973405029296875,0.5874538514852523,-1.2842939603626726,3.090687841029465
2024-12-07 19:55:50.462418000,1.98341796875,0.6127789199430496,-1.3069751632481812,1.6926301388427614
2024-12-07 19:55:50.472431900,1.993431884765625,1.2020166591703891,-2.014258340206742,0.0421757385589182
2024-12-07 19:55:50.482444800,2.00344482421875,1.8784616302728647,-2.890774048233032,-1.3800453678950666
2024-12-07 19:55:50.492458000,2.0134580078125,1.8608780427873133,-3.409408630514145,-2.35591255377233
2024-12-07 19:55:50.502471400,2.023471435546875,1.1405085897624492,-3.3401001164883373,-2.9037819983661173
2024-12-07 19:55:50.512485400,2.0334853515625,-0.0499450208535417,-1.502219502928853,-2.827591615872085
2024-12-07 19:55:50.522498300,2.043498291015625,-0.6735621091425419,2.262166348582506,-2.1406628062866626
2024-12-07 19:55:50.532511500,2.053511474609375,0.3876864814221858,5.711082813620567,-1.3293489076197147
2024-12-07 19:55:50.542524400,2.0635244140625,1.0029635017912837,8.56405173959434,-0.7632118387989699
2024-12-07 19:55:50.552538400,2.073538330078125,0.1861117331435904,10.690054298496246,-1.3463801219195126
2024-12-07 19:55:50.562551300,2.08355126953125,-0.6291384455263614,9.099843208381532,-3.1630116112232205
2024-12-07 19:55:50.572564500,2.093564453125,0.3369417980909347,3.4711633681595324,-4.296920948851108
2024-12-07 19:55:50.582578400,2.103578369140625,1.8970272145330904,-0.042387773874402,-4.241886751632392
2024-12-07 19:55:50.592591400,2.11359130859375,2.380133387315273,-1.905334439629316,-3.5232080281734466
2024-12-07 19:55:50.602604300,2.123604248046875,2.512586047518253,-2.819855760923028,-2.4478327125787733
2024-12-07 19:55:50.612617200,2.1336171875,2.667292625105381,-3.062514762729406,-1.5384141212515532
2024-12-07 19:55:50.622631400,2.14363134765625,2.6953239568471905,-2.7497920446157456,-0.8509759008392691
2024-12-07 19:55:50.632644400,2.153644287109375,2.654461200582981,-2.0271827037096024,-0.4763413548223674
2024-12-07 19:55:50.642657300,2.1636572265625,2.5410733063340185,-1.187759001237154,-0.4045861782968044
2024-12-07 19:55:50.652671200,2.173671142578125,2.021615717232227,-0.3961088573306798,-0.3536746139660477
2024-12-07 19:55:50.662684400,2.183684326171875,0.9762906719863416,0.4591963048845529,0.0435489266082644
2024-12-07 19:55:50.672697300,2.193697265625,-0.3643932841181755,0.9857242707639932,0.6419624173946679
2024-12-07 19:55:50.682710500,2.20371044921875,-1.6130524519979952,0.8512941730082034,0.9379561190254986
2024-12-07 19:55:50.692724500,2.213724365234375,-2.39213128362298,0.1712462089776992,0.5801619409114122
2024-12-07 19:55:50.702737400,2.2237373046875,-2.520609194976091,-0.2801484822452068,-0.0594721796661615
2024-12-07 19:55:50.712750300,2.233750244140625,-1.8733038091182708,-0.2038157686710357,-0.4177807370431721
2024-12-07 19:55:50.722764300,2.243764404296875,-0.898945493433997,0.1041612162202596,-0.5260726233273745
2024-12-07 19:55:50.732777500,2.253777587890625,-0.3852968828719109,0.4006634518951177,-0.7264901278622448
2024-12-07 19:55:50.742790400,2.263790283203125,-0.3993394367497414,0.5316226586699485,-0.7427789993621409
2024-12-07 19:55:50.752803300,2.27380322265625,-0.6571359480638057,0.4305623310744762,-0.5877741694808006
2024-12-07 19:55:50.762817300,2.2838173828125,-1.2014473348498345,0.0732300713837146,-0.3856470845490694
2024-12-07 19:55:50.772830200,2.293830322265625,-1.958493344495445,-0.2416670681595802,-0.0575109625957906
2024-12-07 19:55:50.782843400,2.303843505859375,-2.2789316054224966,-0.3750350896418094,0.2639857213430106
2024-12-07 19:55:50.792856600,2.313856689453125,-1.5745478031672535,-0.42930560901165,0.6662824735283851
2024-12-07 19:55:50.802870300,2.323870361328125,-0.3598737608671188,-0.4631500109463929,1.0823315644733609
2024-12-07 19:55:50.812883500,2.333883544921875,0.3563691137470304,-0.5635732096821069,1.423557908015698
2024-12-07 19:55:50.822896400,2.343896484375,0.520363744161278,-0.578394346717,1.7378157267421483
2024-12-07 19:55:50.832910300,2.353910400390625,0.3380455215491354,-0.5469529142707586,2.008876647168398
2024-12-07 19:55:50.842923500,2.363923583984375,-0.1080640688776969,-0.5224561863958835,2.0503791626408696
2024-12-07 19:55:50.852936200,2.373936279296875,-0.0783108817793428,-0.4204886808276176,1.7455447135590016
2024-12-07 19:55:50.862949400,2.383949462890625,0.1365222477294504,-0.3566068680256605,1.092689584619552
2024-12-07 19:55:50.872963300,2.39396337890625,-0.0461655388474464,-0.3817342950195074,0.4116323704812675
2024-12-07 19:55:50.882976300,2.403976318359375,-0.6435178301431238,-0.3850333365648984,-0.1583362393263727
2024-12-07 19:55:50.892989400,2.413989501953125,-1.0771792962767184,-0.3881687119811773,-0.570057237939164
2024-12-07 19:55:50.903003400,2.42400341796875,-1.0040414332211016,-0.3921411227434873,-0.6669914255153387
2024-12-07 19:55:50.913016300,2.434016357421875,-0.7580230379842221,-0.5248386976182461,-0.6492538895770907
2024-12-07 19:55:50.923029500,2.444029541015625,-0.3291021905064583,-0.6877513780146837,-0.4863748922545463
2024-12-07 19:55:50.933042200,2.454042236328125,0.0495348691500723,-0.5868120464503764,-0.3162251732766628
2024-12-07 19:55:50.943056400,2.464056396484375,0.2335796232938766,-0.306135156416893,0.0406795817170292
2024-12-07 19:55:50.953069600,2.474069580078125,0.4265351213850081,-0.208343475228548,0.4905024205133318
2024-12-07 19:55:50.963082200,2.484082275390625,0.4515897754035889,-0.2713736396372318,0.8327291732698678
2024-12-07 19:55:50.973096400,2.494096435546875,0.3962707698941231,-0.4148866230368614,0.9199311444479972
2024-12-07 19:55:50.983109400,2.504109375,0.3135315502785146,-0.6211117909371853,0.8317860472008586
2024-12-07 19:55:50.993122300,2.514122314453125,0.1888189828082919,-0.7800719343155622,0.7558193173948675
2024-12-07 19:55:51.003135500,2.524135498046875,0.2670189515590667,-0.6965408336699008,0.8466159520640969
2024-12-07 19:55:51.013149200,2.534149169921875,0.8520797704279423,-0.1270025781035423,1.301999274531752
2024-12-07 19:55:51.023162400,2.544162353515625,1.4603380711413918,0.7482055544555187,1.9084755141340195
2024-12-07 19:55:51.033175600,2.554175537109375,1.5492483806073665,1.5818208629101511,2.2828914489641785
2024-12-07 19:55:51.043188200,2.564188232421875,1.0763163958370685,2.150628466114401,2.2421625482127068
2024-12-07 19:55:51.053202400,2.574202392578125,0.0752642075598239,2.103589651563764,1.511966113178432
2024-12-07 19:55:51.063215400,2.58421533203125,-0.897892258054018,1.900536099436879,0.5386589870475232
2024-12-07 19:55:51.073228300,2.594228271484375,-1.573447586840391,2.0570167009592053,-0.2854096176438033
2024-12-07 19:55:51.083242500,2.604242431640625,-2.0567456289328634,2.39472363820374,-0.9943165233466774
2024-12-07 19:55:51.093255200,2.614255126953125,-2.377652822545916,2.6941157501012087,-1.3930565328985451
2024-12-07 19:55:51.103268400,2.624268310546875,-2.175092606893927,2.75157366733551,-1.793518324741721
2024-12-07 19:55:51.113281300,2.63428125,-1.882588500944525,2.466274378198385,-1.526287191736698
2024-12-07 19:55:51.123295200,2.644295166015625,-1.977501996348053,1.9117548280656336,-1.0810244273975491
2024-12-07 19:55:51.133308400,2.654308349609375,-1.5104885879717769,1.3213292672932146,-0.5401203648369759
2024-12-07 19:55:51.143321300,2.6643212890625,-0.1071089601099491,0.5691700067758559,0.2338600476704537
2024-12-07 19:55:51.153335300,2.674335205078125,1.4617175428010525,-0.196623811340332,1.1612418734505772
2024-12-07 19:55:51.163348500,2.684348388671875,1.7685212461292743,-0.7344558460444212,1.9311933957681056
2024-12-07 19:55:51.173361400,2.694361328125,0.9234219091732054,-0.8146230232149362,2.1319607366539537
2024-12-07 19:55:51.183374300,2.704374267578125,0.7260217796981334,-0.3553986612796783,1.615366428028792
2024-12-07 19:55:51.193388500,2.714388427734375,1.1510578946970402,0.0579459930121898,0.6393531847443431
2024-12-07 19:55:51.203401200,2.724401123046875,1.3313945881031453,0.3733621879935264,-0.2915590071190148
2024-12-07 19:55:51.213414400,2.734414306640625,1.087382564252615,0.6596697773903608,-0.5398125409968197
2024-12-07 19:55:51.223428400,2.744428466796875,0.2604407422125339,0.7938941234409809,-0.3138047411967068
2024-12-07 19:55:51.233441300,2.754441162109375,-0.932778862518072,0.8229501220554113,-0.0342084129415452
2024-12-07 19:55:51.243454500,2.764454345703125,-1.938690765786171,0.7638514518767595,0.2097844678170979
2024-12-07 19:55:51.253467400,2.77446728515625,-2.324254263705015,0.7104618069946765,0.3473717144295573
2024-12-07 19:55:51.263481300,2.7844814453125,-2.32517780829072,0.7064373737841844,0.3650098085813224
2024-12-07 19:55:51.273494300,2.794494384765625,-2.4951345619797705,0.6934522200047969,0.3072242668278515
2024-12-07 19:55:51.283507500,2.804507568359375,-2.387050619357824,0.6446276910811662,0.2232286174103617
2024-12-07 19:55:51.293521400,2.814521484375,-1.541979266387224,0.4861988781005144,0.2306492689304053
2024-12-07 19:55:51.303534300,2.824534423828125,-0.2582020233750343,0.2967752073973417,0.3433108947314321
2024-12-07 19:55:51.313547300,2.83454736328125,1.018906993919611,-0.087649641880393,0.3187067609593272
2024-12-07 19:55:51.323560400,2.844560546875,1.7594482973575591,-0.63904433799088,0.0575189997717738
2024-12-07 19:55:51.333574400,2.854574462890625,1.635754113149643,-1.1413654988527298,-0.0772260091520845
2024-12-07 19:55:51.343587300,2.86458740234375,1.0830009881675242,-1.410610309767723,0.2485141575753688
2024-12-07 19:55:51.353600300,2.874600341796875,0.316692790788412,-1.483036079031229,0.7141577389031648
2024-12-07 19:55:51.363614200,2.8846142578125,-0.2748164735674858,-1.275274203082919,1.3892322984352707
2024-12-07 19:55:51.373627400,2.89462744140625,-0.6015829146027565,-0.850547154033184,2.096048442403972
2024-12-07 19:55:51.383640300,2.904640380859375,-0.6396656847596168,-0.3739771050214767,2.5369234931781888
2024-12-07 19:55:51.393654300,2.914654296875,-0.6709720926493405,-0.1239385143578052,2.864818645982444
2024-12-07 19:55:51.403667500,2.92466748046875,-0.7632546550273894,0.0447854826658964,2.5884602036699653
2024-12-07 19:55:51.413680400,2.934680419921875,-0.6258996097356081,-0.1311363169074058,2.258585859747231
2024-12-07 19:55:51.423693300,2.944693359375,0.2455488780289888,-0.7261451138168573,1.5570923721060157
2024-12-07 19:55:51.433707500,2.95470751953125,1.2202414671689272,-1.5169517926365137,0.8490265203371643
2024-12-07 19:55:51.443720400,2.964720458984375,1.2829682647168636,-2.1027181294262407,0.3519935290113091
2024-12-07 19:55:51.453733400,2.9747333984375,1.1004665022313591,-2.37540343618393,0.0225973239943385
2024-12-07 19:55:51.463747300,2.984747314453125,0.9074550361692904,-2.397590718072653,-0.1788201513633132
2024-12-07 19:55:51.473760300,2.99476025390625,0.4224246173262596,-2.244070719921589,-0.3189244953632354
2024-12-07 19:55:51.483773400,3.0047734375,0.2324807586738839,-1.9785984132826329,-0.3703402098238468
2024-12-07 19:55:51.493786400,3.014786376953125,0.3012579423019662,-1.660645977821946,-0.2948278727218508
2024-12-07 19:55:51.503800000,3.024800048828125,0.2735662177780643,-1.3673036674827337,-0.1721983951359987
2024-12-07 19:55:51.513813200,3.034813232421875,-0.0074479779183864,-1.2710223908573388,-0.2285208785995841
2024-12-07 19:55:51.523826200,3.044826171875,-0.455111629386805,-1.3179980770438908,-0.4238023354202508
2024-12-07 19:55:51.533840100,3.054840087890625,-0.4558610229820012,-1.3405220435410736,-0.6482005811318755
2024-12-07 19:55:51.543853300,3.064853271484375,-0.2517991705954074,-1.1737515186727046,-1.101511042848229
2024-12-07 19:55:51.553866200,3.0748662109375,-0.5423118835318833,-0.8802502183794975,-1.6537208547338842
2024-12-07 19:55:51.563879200,3.084879150390625,-0.933282720386982,-0.8939280305981635,-2.165068494877219
2024-12-07 19:55:51.573893400,3.094893310546875,-0.8429524611204862,-1.1998825697511435,-2.6939704964116213
2024-12-07 19:55:51.583906000,3.104906005859375,-0.6808825882237404,-1.6529337960094213,-3.0163623756244777
2024-12-07 19:55:51.593919200,3.114919189453125,-0.4271066376626491,-2.084209828311205,-2.8285104842826723
2024-12-07 19:55:51.603933400,3.124933349609375,0.0057844286203384,-2.2082670006126164,-2.314878824855387
2024-12-07 19:55:51.613946000,3.134946044921875,0.3080735040683299,-2.1471412085205315,-1.8013734221562745
2024-12-07 19:55:51.623959300,3.144959228515625,0.4702472757309675,-1.8960949021190403,-1.3395701496437191
2024-12-07 19:55:51.633973200,3.15497314453125,0.901588774484396,-1.4997867228239774,-0.832098474150896
2024-12-07 19:55:51.643986200,3.164986083984375,1.2968249406337735,-1.1844576216042042,-0.5234840681388974
2024-12-07 19:55:51.653999400,3.174999267578125,1.3886977531671525,-0.9327712637335062,-0.5311155859306455
2024-12-07 19:55:51.664012300,3.18501220703125,1.1922511250246317,-0.7076473340958357,-0.5349754762291908
2024-12-07 19:55:51.674026200,3.195026123046875,0.8579051155805587,-0.2418231355041265,-0.4703142034873366
2024-12-07 19:55:51.684039400,3.205039306640625,0.323377419651486,1.6678472875028847,-0.5885048218429089
2024-12-07 19:55:51.694052000,3.215052001953125,-0.5185539182603359,5.405462036466599,0.0648421822667121
2024-12-07 19:55:51.704066300,3.22506640625,-1.402307176324725,9.120432407423854,2.1328046401321887
2024-12-07 19:55:51.714079200,3.235079345703125,-0.5839988156605511,11.304059472298622,3.462057101640105
2024-12-07 19:55:51.724092200,3.245092041015625,2.250275419780612,11.328789424407482,2.2851801444232462
2024-12-07 19:55:51.734106400,3.2551064453125,3.3627953478991985,7.416286310571432,-2.193397640521824
2024-12-07 19:55:51.744119000,3.265119140625,1.495975640103221,1.4942150601714848,-5.349363132625818
2024-12-07 19:55:51.754132200,3.27513232421875,-0.6990023284126072,-1.990572928714752,-6.418378850060701
2024-12-07 19:55:51.764145200,3.285145263671875,-0.922905703279376,-4.029794445264339,-6.840190888446569
2024-12-07 19:55:51.774159000,3.2951591796875,0.0080512410411611,-4.857599021613598,-6.825740338289737
2024-12-07 19:55:51.784172300,3.30517236328125,1.0235539429426193,-4.0120524523466825,-5.882959137195348
2024-12-07 19:55:51.794185200,3.315185302734375,1.6589099478095768,-2.277774836602807,-3.8944522010996936
2024-12-07 19:55:51.804199200,3.32519921875,1.784691459685564,-0.7821697833776473,-1.1638479642957449
2024-12-07 19:55:51.814212400,3.33521240234375,1.160095333763957,0.3686246380776167,1.1424722910508514
2024-12-07 19:55:51.824225300,3.345225341796875,0.3733341309428215,1.0577759460180998,2.765611252777278
2024-12-07 19:55:51.834239200,3.3552392578125,0.1194365267634391,1.1631319249808787,3.6215532515913247
2024-12-07 19:55:51.844252400,3.36525244140625,-0.1337643273234367,0.9186176506966351,3.705787239809334
2024-12-07 19:55:51.854265000,3.37526513671875,-0.5229459792068227,0.5146113181143999,3.44086292244196
2024-12-07 19:55:51.864278300,3.3852783203125,-0.5518611445784568,0.0683475600391626,3.1100381459265947
2024-12-07 19:55:51.874292200,3.395292236328125,-0.1785807531168684,-0.3649415656507015,2.4613071111798286
2024-12-07 19:55:51.884305200,3.40530517578125,0.3683692020118236,-0.5740665466457605,1.588096436048299
2024-12-07 19:55:51.894318300,3.415318359375,0.5690659253468736,-0.5456020841836929,0.8233926051259041
2024-12-07 19:55:51.904332300,3.425332275390625,0.3526876122226938,-0.3562316049724817,0.2619137373745441
2024-12-07 19:55:51.914345200,3.43534521484375,0.1798655322303995,-0.1662982311815023,-0.1814667203493416
2024-12-07 19:55:51.924358100,3.445358154296875,0.1505073723316192,-0.1704939293056726,-0.5403673984006047
2024-12-07 19:55:51.934372000,3.4553720703125,-0.2455844607990235,-0.2917150013983249,-0.8625995570071041
2024-12-07 19:55:51.944385300,3.46538525390625,-0.5630675251822919,-0.4015454954266548,-1.1121630775049327
2024-12-07 19:55:51.954398200,3.475398193359375,-0.2519195090394467,-0.3511006718248128,-1.0022725238524377
2024-12-07 19:55:51.964411100,3.4854111328125,0.3252431404581293,-0.2217483157247304,-0.6785846134796738
2024-12-07 19:55:51.974425300,3.49542529296875,0.6979320688325912,0.0095376436740159,-0.3126743489272892
2024-12-07 19:55:51.984438300,3.505438232421875,0.7905190209846943,0.1676338636994361,-0.0394984821736812
2024-12-07 19:55:51.994451200,3.515451171875,0.8248211766242981,0.3392512440770864,0.2307726030491292
2024-12-07 19:55:52.004465400,3.52546533203125,0.8128933498781173,0.4543716612070798,0.3752405490860342
2024-12-07 19:55:52.014478000,3.53547802734375,0.6537257742941379,0.3926034795582294,0.2213524482749402
2024-12-07 19:55:52.024491300,3.5454912109375,0.436906585534662,0.0862111335098743,-0.2970740442134439
2024-12-07 19:55:52.034505200,3.555505126953125,-0.0857667507432401,-0.2972778962224722,-0.9313054289646446
2024-12-07 19:55:52.044518100,3.56551806640625,-0.7747007626712322,-0.5368231499224901,-1.3142387245103715
2024-12-07 19:55:52.054531300,3.57553125,-1.1407529199123383,-0.4361649733871221,-1.2647982556454838
2024-12-07 19:55:52.064545300,3.585545166015625,-1.0634569142639636,-0.2345633736342191,-0.8759856928028166
2024-12-07 19:55:52.074558200,3.59555810546875,-0.7922048551797867,-7.42342799901e-05,-0.5548367993883788
2024-12-07 19:55:52.084571100,3.605571044921875,-0.4385236653424799,0.221793908432126,-0.4170975770846009
2024-12-07 19:55:52.094584300,3.615584228515625,-0.137994000782445,0.4299234486490488,-0.3704534609399735
2024-12-07 19:55:52.104598300,3.625598388671875,0.0978933879971504,0.3503974919915199,-0.3873977276086807
2024-12-07 19:55:52.114611200,3.635611083984375,0.3733925831317901,0.010956862822175,-0.4464076965905725
2024-12-07 19:55:52.124624100,3.6456240234375,0.4303353904508054,-0.342584772413969,-0.486844774788618
2024-12-07 19:55:52.134638300,3.655638427734375,0.2315525013804435,-0.5921148290336131,-0.4277857059679925
2024-12-07 19:55:52.144651300,3.6656513671875,-0.2510288438100367,-0.5969967558562755,-0.3037647740237414
2024-12-07 19:55:52.154664200,3.675664306640625,-0.6265887610435485,-0.5982593231379986,-0.0052156888216733
2024-12-07 19:55:52.164678400,3.685678466796875,-0.6950002531643956,-0.7180091536343097,0.4771870118662715
2024-12-07 19:55:52.174691300,3.69569140625,-0.5505145522750914,-1.0273299543499943,0.9677945001892744
2024-12-07 19:55:52.184704300,3.705704345703125,-0.2620366331018507,-1.267935530757904,1.610211529483646
2024-12-07 19:55:52.194718200,3.71571826171875,-0.1716496752120554,-1.3562480204612015,2.3017744286105035
2024-12-07 19:55:52.204731100,3.725731201171875,-0.098039518469572,-1.196561316373944,2.9788831243187186
2024-12-07 19:55:52.214744300,3.735744384765625,-0.003032499563694,-1.0778379063159227,3.276805748185516
2024-12-07 19:55:52.224757200,3.74575732421875,0.0699742844581604,-1.0628063414007425,2.997451046666503
2024-12-07 19:55:52.234771200,3.755771240234375,0.1551531523108482,-1.2661977471798658,2.303220097374171
2024-12-07 19:55:52.244784400,3.765784423828125,0.2479961250506341,-1.543791868767142,1.5658379886195062
2024-12-07 19:55:52.254797300,3.77579736328125,0.5275238450489937,-1.6682131982058286,1.0247570351220667
2024-12-07 19:55:52.264811300,3.785811279296875,0.9191605254016816,-1.3446020063310862,0.5426175154149532
2024-12-07 19:55:52.274824200,3.79582421875,1.184411882766336,-0.9295388576835394,-0.2324652323111891
2024-12-07 19:55:52.284837000,3.805837158203125,1.0490903891287744,-0.3724970955967903,-0.5596550133250653
2024-12-07 19:55:52.294851300,3.815851318359375,0.5765851053379476,0.1115653549969196,-0.7615431749343872
2024-12-07 19:55:52.304864300,3.8258642578125,-0.0404419005036354,0.3114028676867484,-1.034003002373129
2024-12-07 19:55:52.314877200,3.835877197265625,-0.5366866640612483,0.3811334065169096,-0.9836161925688386
2024-12-07 19:55:52.324891400,3.845891357421875,-0.6671811759337782,0.2742383814185857,-0.9326100087571888
2024-12-07 19:55:52.334904300,3.855904296875,-0.6704848936542869,0.1666781704097986,-0.8799819228321313
2024-12-07 19:55:52.344917200,3.865917236328125,-0.3470622100889682,-0.0377893401682376,-1.0928754625804722
2024-12-07 19:55:52.354931500,3.875931396484375,0.0996878701984882,-0.1572241133660078,-1.0018514488961547
2024-12-07 19:55:52.364944100,3.885944091796875,0.2918929883137345,-0.3831938461780548,-0.9473466823790222
2024-12-07 19:55:52.374957300,3.895957275390625,0.1323603057444095,-0.6209048701882361,-0.7040776589155197
2024-12-07 19:55:52.384971300,3.90597119140625,-0.3027262247562408,-0.6650315966844559,-0.0888669452482834
2024-12-07 19:55:52.394984200,3.915984130859375,-0.9511094689786432,-0.4510059841662645,0.8340064266640692
2024-12-07 19:55:52.404997400,3.925997314453125,-1.3062405653633176,-0.2829582789689302,1.7288783870488404
2024-12-07 19:55:52.415010300,3.93601025390625,-1.136659074727446,-0.2305933009594678,2.3271384408392013
2024-12-07 19:55:52.425024300,3.946024169921875,0.3733829385206103,0.2743120311766863,2.540361066411436
2024-12-07 19:55:52.435037200,3.956037109375,2.169902783165872,1.5808318518728015,2.8848484575763345
2024-12-07 19:55:52.445050000,3.966050048828125,3.011488632108271,3.286379047694802,3.473726496645808
2024-12-07 19:55:52.455064300,3.976064208984375,2.60960966694355,4.701777176260948,3.790751880389452
2024-12-07 19:55:52.465077200,3.9860771484375,0.8883587060332298,5.618093564277887,3.3816128610938785
2024-12-07 19:55:52.475090200,3.996090087890625,-2.013945328734815,5.836846789839863,2.1109240861050784
2024-12-07 19:55:52.485104400,4.0061044921875,-4.84388789164722,5.06324960449636,0.401005945189856
2024-12-07 19:55:52.495117300,4.016117431640625,-5.947837559819221,4.1751960188895465,-0.3948427829176187
2024-12-07 19:55:52.505130000,4.0261298828125,-5.368078354489803,3.3863089099556207,-0.1690630927849561
2024-12-07 19:55:52.515144200,4.036144287109375,-3.922532340419292,2.492099139806628,0.2195359003722667
2024-12-07 19:55:52.525156900,4.046156982421875,-2.57997557618022,1.6304770495295524,0.5061842294981703
2024-12-07 19:55:52.535170000,4.056170166015625,-1.1927611934386193,0.9272726663172244,0.918140388573706
2024-12-07 19:55:52.545184300,4.066184326171875,0.1419372585155069,0.2890501661032438,1.3726606644712387
2024-12-07 19:55:52.555197000,4.076197021484375,1.3390122235000133,-0.3289917158693075,1.761212384420633
2024-12-07 19:55:52.565210000,4.086210205078125,2.155214186469465,-0.8766010482221841,1.9512226228401064
2024-12-07 19:55:52.575224000,4.09622412109375,1.8332956238567828,-1.1077695187211036,1.7662211524933575
2024-12-07 19:55:52.585237000,4.106237060546875,0.6988520332217216,-0.9683832598626612,1.5447398171417417
2024-12-07 19:55:52.595250200,4.116250244140625,-0.2254104184288531,-0.5168816011339425,1.5867279241740702
2024-12-07 19:55:52.605264100,4.12626416015625,-0.0969475585144013,0.0717892249256372,1.3152828267358243
2024-12-07 19:55:52.615277000,4.136277099609375,0.2406828063625842,0.5940601178824901,0.352982613113895
2024-12-07 19:55:52.625290200,4.146290283203125,0.2307809324860572,0.8740577934801578,-1.0319270728819072
2024-12-07 19:55:52.635304000,4.156303955078125,0.0651006140071898,0.9590537059813736,-2.349803130981326
2024-12-07 19:55:52.645317000,4.166317138671875,0.1310300800539553,0.8261924649775028,-3.166908910922706
2024-12-07 19:55:52.655330300,4.176330322265625,0.195330775855109,0.6928612683743238,-3.332732218068838
2024-12-07 19:55:52.665344000,4.186343994140625,-0.1155003198256716,0.5308399838596582,-2.907918952040374
2024-12-07 19:55:52.675357200,4.196357177734375,-0.6804138747334479,0.2806844888180494,-2.136020971830189
2024-12-07 19:55:52.685369900,4.206369873046875,-1.110273610496521,-0.0344786081850528,-1.26238549541533
2024-12-07 19:55:52.695384000,4.216384033203125,-1.217075112092495,-0.3541436927825212,-0.4193054623924195
2024-12-07 19:55:52.705397200,4.226397216796875,-0.9267091872155666,-0.5763438439279794,0.4915088210768997
2024-12-07 19:55:52.715410000,4.236409912109375,-0.0224421334326267,-0.6208201145142317,1.2959798681117594
2024-12-07 19:55:52.725424000,4.246424072265625,0.810479347538948,-0.465792634409666,1.7273929707966744
2024-12-07 19:55:52.735437000,4.25643701171875,0.719043757379055,-0.2397375614017248,2.237361869932711
2024-12-07 19:55:52.745450000,4.266449951171875,0.7685738042235374,-0.0871820243686437,3.067569708031416
2024-12-07 19:55:52.755464200,4.276464111328125,1.3672130665898323,-0.3276321179538965,3.646865972024202
2024-12-07 19:55:52.765477000,4.28647705078125,1.2000982583284376,-0.7086930437564849,3.898430749341845
2024-12-07 19:55:52.775490000,4.296489990234375,0.3216834386825561,-1.1624071178376674,3.394696799072623
2024-12-07 19:55:52.785504000,4.30650390625,-0.3929576998233794,-1.6595628587603568,1.3786539135366678
2024-12-07 19:55:52.795517000,4.316516845703125,-0.3930944779455662,-1.8149533269584173,0.1762505931362509
2024-12-07 19:55:52.805530000,4.326530029296875,0.0407458518862724,-1.6365397105693815,0.0242068050175905
2024-12-07 19:55:52.815543300,4.336543212890625,0.383161697474122,-1.2900403950601815,0.1265326225042343
2024-12-07 19:55:52.825557000,4.346556884765625,0.8789671928316354,-1.1076245572924612,0.2530488783955574
2024-12-07 19:55:52.835570200,4.356570068359375,1.8567074791044,-1.3125994328707455,0.551446718558669
2024-12-07 19:55:52.845584100,4.366584228515625,3.157609459918737,-1.9187562312603,0.5839306457951664
2024-12-07 19:55:52.855597000,4.37659716796875,3.357437035736442,-2.581684718185663,0.3006213614314794
2024-12-07 19:55:52.865610200,4.3866103515625,1.902131844195724,-3.016208354106545,-0.1832277386724948
2024-12-07 19:55:52.875624200,4.396624267578125,-0.3207639857500791,-3.029641251653433,-0.714347708517313
2024-12-07 19:55:52.885637000,4.40663720703125,-2.0617782162725926,-2.652760241883993,-1.07667733810395
2024-12-07 19:55:52.895650000,4.416650146484375,-2.0482307524353263,-2.097342866128683,-1.3995283592611552
2024-12-07 19:55:52.905664000,4.4266640625,-1.2807692933678627,-1.5660580611109731,-1.62184658382833
2024-12-07 19:55:52.915677200,4.43667724609375,-0.4117559603283181,-1.1985936989843844,-1.6336773068755863
2024-12-07 19:55:52.925690000,4.446690185546875,0.1668055961817502,-1.1648036575853824,-1.636630019201338
2024-12-07 19:55:52.935704000,4.4567041015625,-0.0297579728713259,-1.5385159741908312,-2.1382766418024897
2024-12-07 19:55:52.945717000,4.466717041015625,-0.6678957539439201,-2.1495272268742323,-2.8711697685748336
2024-12-07 19:55:52.955730000,4.47672998046875,-0.5354705662697553,-2.695765270873904,-3.217919259452819
2024-12-07 19:55:52.965744000,4.486744140625,0.7995143014103173,-2.84639071662724,-2.9603660553753373
2024-12-07 19:55:52.975757000,4.496757080078125,2.37946820140481,-2.58942963322401,-2.3696590473130343
2024-12-07 19:55:52.985770000,4.50677001953125,3.2974878862082955,-2.090399330601096,-1.8273998438164591
2024-12-07 19:55:52.995784000,4.516783935546875,2.9435797557473182,-1.4040893835663797,-1.524689108890295
2024-12-07 19:55:53.005797000,4.526797119140625,1.5528426057070492,-0.8359270925283432,-1.5037643942832946
2024-12-07 19:55:53.015810000,4.53681005859375,0.2998602773984894,-0.6680752021640539,-1.6105068591684102
2024-12-07 19:55:53.025824000,4.546823974609375,-0.1707107503941282,-0.1847334670603275,-1.7623519098445772
2024-12-07 19:55:53.035837200,4.556837158203125,-0.5609656575322151,2.4801322231590746,-1.9111472175613045
2024-12-07 19:55:53.045850000,4.56685009765625,-0.3463251279860734,6.103769295287132,-0.7054308270901442
2024-12-07 19:55:53.055864000,4.576864013671875,1.7939707446843385,9.397795058342814,1.7318004119753836
2024-12-07 19:55:53.065877000,4.586876953125,3.972352894642949,12.269730550593136,3.017174861051142
2024-12-07 19:55:53.075890200,4.59689013671875,2.7999755869328973,13.990151490420102,0.4376911600410938
2024-12-07 19:55:53.085904100,4.606904052734375,-0.3316805165618658,9.785205060911178,-5.725744376179575
2024-12-07 19:55:53.095917000,4.6169169921875,-0.6288982070297002,2.2955378723084925,-8.28079652350545
2024-12-07 19:55:53.105930000,4.626929931640625,0.6813759977638721,-1.871675331133604,-7.979398332482575
2024-12-07 19:55:53.115944200,4.636944091796875,1.7755477837651967,-4.045737864327431,-8.1947595775187
2024-12-07 19:55:53.125957000,4.64695703125,2.262027232372761,-4.72631774327755,-7.307445996624231
2024-12-07 19:55:53.135970000,4.656969970703125,1.731419303703308,-4.178559942364693,-5.5838563636332745
2024-12-07 19:55:53.145984300,4.666984375,0.6727016929209232,-2.582716983842849,-3.1182667528286574
2024-12-07 19:55:53.155997000,4.676996826171875,0.0993570308089256,-1.2718956665605303,-0.1117512329578399
2024-12-07 19:55:53.166010000,4.687010009765625,-0.5149076341798529,-0.4616419444710016,2.4159968739874658
2024-12-07 19:55:53.176024000,4.697024169921875,-1.0105120905399323,0.214955002322793,3.909801453661919
2024-12-07 19:55:53.186037000,4.707037109375,-0.8503846569478511,0.4799509236216545,4.276115476709604
2024-12-07 19:55:53.196050200,4.71705029296875,-0.3190344220111146,0.3156184395551681,4.125944204464554
2024-12-07 19:55:53.206063900,4.72706396484375,0.0368178282549604,-0.0514624762117862,3.614790917849541
2024-12-07 19:55:53.216077000,4.7370771484375,0.1043722286224365,-0.331833076775074,3.215079359851777
2024-12-07 19:55:53.226090000,4.747090087890625,0.1076817184966057,-0.3590928396224975,2.5031840129226444
2024-12-07 19:55:53.236104000,4.75710400390625,0.0327449893254786,-0.10968085642457,1.446280465824902
2024-12-07 19:55:53.246117000,4.7671171875,0.12244922564812,0.2429372342258691,0.28769100657925
2024-12-07 19:55:53.256130000,4.777130126953125,0.311284867330268,0.4949228673040866,-0.6481621488176286
2024-12-07 19:55:53.266144000,4.78714404296875,0.8193524628896266,0.3813409117877483,-1.1376308423690498
2024-12-07 19:55:53.276157200,4.7971572265625,1.3478221374213697,0.051309915998578,-1.2595175387635826
2024-12-07 19:55:53.286170000,4.807170166015625,1.292317107820511,-0.136531453949213,-1.0463333455055952
2024-12-07 19:55:53.296184000,4.81718408203125,0.8835936835885048,-0.2103682590544223,-0.7693145395882427
2024-12-07 19:55:53.306197200,4.827197265625,0.3777296624880283,-0.22383798148036,-0.554859741872549
2024-12-07 19:55:53.316210000,4.8372099609375,0.0130441174250096,-0.216519767421484,-0.4310403238497674
2024-12-07 19:55:53.326224100,4.84722412109375,-0.1239736587364226,-0.0767670133382081,-0.3795899764671921
2024-12-07 19:55:53.336237000,4.857237060546875,-0.0869161399740725,0.135710785216093,-0.4372017690889537
2024-12-07 19:55:53.346251000,4.8672509765625,-0.1583469068508595,0.3233855664253234,-0.611608049532771
2024-12-07 19:55:53.356264200,4.87726416015625,-0.2083353649873286,0.2270136889070272,-0.8976575725153088
2024-12-07 19:55:53.366276900,4.88727685546875,-0.2070809810120612,0.0430453610002994,-1.1639173762701451
2024-12-07 19:55:53.376291000,4.897291015625,-0.1890506726723164,-0.1402560274302959,-1.279467709250003
2024-12-07 19:55:53.386304300,4.90730419921875,-0.1849485711157321,-0.2368880171895027,-1.2003881811857222
2024-12-07 19:55:53.396317000,4.91731689453125,-0.2325812599062919,-0.2959492779672145,-0.8870316952131688
2024-12-07 19:55:53.406331100,4.9273310546875,-0.3410170116405934,-0.4034200571268796,-0.5281318939447402
2024-12-07 19:55:53.416344000,4.937343994140625,-0.339471535764262,-0.4271873016834259,-0.2381839022189378
2024-12-07 19:55:53.426357000,4.94735693359375,-0.1688764111064374,-0.3406850762724876,0.0121076402924954
2024-12-07 19:55:53.436371200,4.95737109375,0.028467385071516,-0.1524339564800262,0.2134187326662242
2024-12-07 19:55:53.446383900,4.9673837890625,0.1462567291498184,0.0452156907767057,0.4024846759729087
2024-12-07 19:55:53.456397000,4.97739697265625,0.1434932557858526,0.0656207654237747,0.5609457837879658
2024-12-07 19:55:53.466411000,4.987410888671875,0.0060698214329779,-0.0875543648123741,0.6877705211065709
2024-12-07 19:55:53.476424000,4.997423828125,-0.1337396312735974,-0.3386667221873998,0.8571008134603499
2024-12-07 19:55:53.486438100,5.007438232421875,-0.347253787138313,-0.4527238940000533,1.1027316706843673
2024-12-07 19:55:53.496451000,5.017451171875,-0.5829191306650638,-0.5322609565734863,1.33158192736879
2024-12-07 19:55:53.506463700,5.027463623046875,-0.7022106959998607,-0.5325771829158067,1.5960324897445737
2024-12-07 19:55:53.516477700,5.037477783203125,-0.6167559338152409,-0.6004010113418102,1.805368921533227
2024-12-07 19:55:53.526491000,5.047490966796875,-0.3528979305051267,-0.6859089650183916,1.9125949321515856
2024-12-07 19:55:53.536503800,5.05750390625,-0.0932626594565808,-0.8130401379376649,1.817076164331287
2024-12-07 19:55:53.546517800,5.067517822265625,0.0230769242048263,-1.0034113186240197,1.4360846505030989
2024-12-07 19:55:53.556531000,5.077531005859375,-0.0211763512805104,-1.11751174505651,0.9485600767567752
2024-12-07 19:55:53.566544000,5.0875439453125,-0.0701743370749056,-0.97407416498065,0.5065707811303436
2024-12-07 19:55:53.576557800,5.097557861328125,-0.0285772751867771,-0.73981065107584,0.0884913534015417
2024-12-07 19:55:53.586571000,5.107571044921875,0.0761491737008094,-0.5800204866141081,-0.2040678437359631
2024-12-07 19:55:53.596584000,5.117583984375,0.2359621345162391,-0.4813134441465139,-0.3465929851420223
2024-12-07 19:55:53.606598000,5.127597900390625,0.4321415630899369,-0.4986877727955579,-0.4225570115342736
2024-12-07 19:55:53.616610800,5.13761083984375,0.522470214921236,-0.4472913475573062,-0.3507147412471473
2024-12-07 19:55:53.626624800,5.147624755859375,0.4018376102410256,-0.3697884211599826,-0.065447235487774
2024-12-07 19:55:53.636638000,5.157637939453125,0.1235595980428159,-0.2974906621903181,0.2388585866101086
2024-12-07 19:55:53.646651000,5.16765087890625,-0.1126008355244994,-0.2266308270692825,0.5412880203768611
2024-12-07 19:55:53.656664800,5.177664794921875,-0.1877837945416569,-0.1546750134050846,0.7938044723961502
2024-12-07 19:55:53.666678000,5.187677978515625,-0.2695744812607765,-0.1904232031345367,0.926749884552136
2024-12-07 19:55:53.676691000,5.19769091796875,-0.2926242251977324,-0.3178057204663753,0.916001257653162
2024-12-07 19:55:53.686705000,5.207704833984375,-0.0971514835886657,-0.4333580992728471,0.8344972058556973
2024-12-07 19:55:53.696718000,5.217718017578125,0.0021812895618379,-0.3851040637135505,0.6122426211092621
2024-12-07 19:55:53.706730800,5.227730712890625,-0.1310525841467082,-0.2645236276119947,0.250574231910333
2024-12-07 19:55:53.716745000,5.237744873046875,-0.392711469977349,-0.0780769268929958,-0.2277399573549628
2024-12-07 19:55:53.726758000,5.2477578125,-0.6455071042641997,0.0834229640960693,-0.7026468954600393
2024-12-07 19:55:53.736770800,5.257770751953125,-0.9178795456804336,0.2578635852009058,-0.9562192132078112
2024-12-07 19:55:53.746785000,5.267784912109375,-1.040966850036383,0.1279255381673574,-1.2067846772897988
2024-12-07 19:55:53.756797700,5.277797607421875,-1.023114528612047,-0.0946259106338024,-1.325381465293467
2024-12-07 19:55:53.766812000,5.28781201171875,-0.8356053132280706,-0.2286374907165765,-1.0697130520492792
2024-12-07 19:55:53.776824800,5.297824951171875,-0.649628275847435,-0.2956634467631578,-0.585764875485003
2024-12-07 19:55:53.786837800,5.307837646484375,-0.5990367372512817,-0.2813502592504024,0.004021291405335
2024-12-07 19:55:53.796852000,5.31785205078125,-0.747378748242557,-0.2107838541179895,0.596670446511358
2024-12-07 19:55:53.806865000,5.327864990234375,-0.8683870543673634,-0.3207803523629903,0.9228528040483592
2024-12-07 19:55:53.816877800,5.3378779296875,-0.1696814438790082,-0.3662608315557241,1.3058436750002205
2024-12-07 19:55:53.826891800,5.347891845703125,1.4656561974242328,0.3080249156862497,2.0696131476819515
2024-12-07 19:55:53.836904700,5.35790478515625,2.9093270652726293,2.0151678562670945,3.105835433539748
2024-12-07 19:55:53.846918000,5.36791796875,3.5174013877213,4.108113948741555,3.97921401258409
2024-12-07 19:55:53.856931800,5.377931884765625,3.11174436532259,5.866838023477793,4.3017534835740925
2024-12-07 19:55:53.866944800,5.38794482421875,1.438964005331695,6.664028265854716,3.535234273792803
2024-12-07 19:55:53.876958700,5.397958740234375,-1.4870871079877015,5.690061652901768,1.0944207192610949
2024-12-07 19:55:53.886972000,5.407971923828125,-4.103997453333437,4.116980561286211,-1.275142539527267
2024-12-07 19:55:53.896984800,5.41798486328125,-4.723768643316626,3.062552756652236,-2.026295984002948
2024-12-07 19:55:53.906998800,5.427998779296875,-3.5237411121368405,2.49871709664166,-1.9808017685458064
2024-12-07 19:55:53.917012000,5.438011962890625,-2.4946666522070764,1.97731655677855,-1.1527457747187464
2024-12-07 19:55:53.927025000,5.44802490234375,-2.187028105489909,1.2622738517343997,-0.570809298415482
2024-12-07 19:55:53.937038800,5.458038818359375,-2.0484343121834097,0.6833610341012477,0.0041872042904607
2024-12-07 19:55:53.947051800,5.4680517578125,-2.2412790433764456,0.1582733301579952,0.4798247034261003
2024-12-07 19:55:53.957065700,5.478065673828125,-3.2066648749887943,-0.3852268133103847,0.7450871301740407
2024-12-07 19:55:53.967079000,5.488078857421875,-2.248224332469701,-0.7845634005159139,0.7659509083740412
2024-12-07 19:55:53.977091800,5.498091796875,1.496718713555485,-0.9485767356306314,0.6485124235600233
2024-12-07 19:55:53.987105800,5.508105712890625,3.390051603615284,-0.7079723282665014,0.3273197275364771
2024-12-07 19:55:53.997119000,5.518118896484375,3.5054023223698136,-0.194960262042284,-0.0603035889890044
2024-12-07 19:55:54.007132000,5.5281318359375,3.251296628397703,0.10091536616683,-0.4924257897913455
2024-12-07 19:55:54.017145900,5.538145751953125,2.6814275334417816,0.1048772555351257,-0.5134213046122342
2024-12-07 19:55:54.027159000,5.548158935546875,1.7468495125472543,0.0229682031333446,-0.1909350981794297
2024-12-07 19:55:54.037172000,5.558171875,0.5393487959425896,-0.0587076250344514,0.0003198065388947
2024-12-07 19:55:54.047186000,5.56818603515625,-0.8979178308866917,-0.1458931565344333,0.1147422314673662
2024-12-07 19:55:54.057198800,5.57819873046875,-2.319706537272781,-0.0205488670319318,0.4797988017998635
2024-12-07 19:55:54.067212800,5.588212890625,-2.953689646351337,0.1552104354560375,1.033725719801709
2024-12-07 19:55:54.077226000,5.59822607421875,-2.665800925242901,0.3332499578356743,1.5467235383048652
2024-12-07 19:55:54.087239000,5.608239013671875,-1.945343793934584,0.4973199915736913,1.666350911465287
2024-12-07 19:55:54.097252900,5.6182529296875,-0.9175287594813852,0.654852147975564,1.6568020157448946
2024-12-07 19:55:54.107266000,5.62826611328125,0.2635105781119317,0.6356073492795229,1.5991747332930564
2024-12-07 19:55:54.117279700,5.63827978515625,1.0874258188724517,0.3864548938006162,1.8548935615502296
2024-12-07 19:55:54.127293000,5.64829296875,1.4963608400285242,-0.0105628950685262,2.2763377895370125
2024-12-07 19:55:54.137305900,5.658305908203125,1.4837585480868816,-0.3990875808805227,2.880176958633959
2024-12-07 19:55:54.147319800,5.66831982421875,1.2709937492847443,-0.6829097832024097,3.6102415839821096
2024-12-07 19:55:54.157333000,5.6783330078125,0.9638893094442784,-0.9333972866773604,4.155435087364912
2024-12-07 19:55:54.167345700,5.688345703125,0.1905845311760902,-1.191774082097411,3.312396117004752
2024-12-07 19:55:54.177360000,5.69835986328125,-0.3848619985859841,-1.5087252315610646,1.0767790449127554
2024-12-07 19:55:54.187372800,5.708372802734375,-0.5007201188733801,-1.9360989957273005,-0.7940729871392249
2024-12-07 19:55:54.197385700,5.7183857421875,-0.0712777682721614,-1.8995079254329204,-1.533295901454985
2024-12-07 19:55:54.207400000,5.72839990234375,0.9989560927808284,-1.7174422162771223,-1.8407409714266656
2024-12-07 19:55:54.217412900,5.738412841796875,1.6782102760851385,-1.7127409067183732,-2.169782663917541
2024-12-07 19:55:54.227426800,5.7484267578125,1.5483388645470142,-2.000114664041996,-2.556231712499261
2024-12-07 19:55:54.237439700,5.758439697265625,0.5005249250948429,-2.2695646421402693,-2.3180007562682032
2024-12-07 19:55:54.247453000,5.768452880859375,-0.5659422769010066,-2.410434417554736,-1.266948857808113
2024-12-07 19:55:54.257467000,5.778466796875,-0.2794371191054582,-2.5731109511077404,0.3922358152896165
2024-12-07 19:55:54.267479800,5.788479736328125,0.3670148647934198,-2.6254092936217783,2.319319729912281
2024-12-07 19:55:54.277494000,5.798493896484375,1.020540732601285,-3.1044343345701693,3.1727015228495
2024-12-07 19:55:54.287507000,5.8085068359375,1.5579168402314183,-3.849537246835232,2.840656849150359
2024-12-07 19:55:54.297519900,5.818519775390625,1.69430216370821,-4.3116473933398725,1.8204037013188004
2024-12-07 19:55:54.307534000,5.8285341796875,0.790865131008625,-4.400176740664244,0.4421390793606639
2024-12-07 19:55:54.317546800,5.838546630859375,-0.4308329647094011,-4.124716708496213,-1.0506117534771562
2024-12-07 19:55:54.327560000,5.848559814453125,-1.2862503551274538,-3.7696640841752287,-2.3318135930433868
2024-12-07 19:55:54.337574000,5.858573974609375,-1.3713643410503864,-3.592532324290276,-3.202581989589333
2024-12-07 19:55:54.347586800,5.8685869140625,0.0845528449088335,-3.473924649566412,-3.689442254208028
2024-12-07 19:55:54.357601000,5.87860107421875,1.2643179247826335,-2.984256634050608,-3.955355290351808
2024-12-07 19:55:54.367613700,5.88861376953125,0.230786759438645,-0.7909943103462457,-3.855521289680898
2024-12-07 19:55:54.377627000,5.898626953125,-1.4757617041140794,4.027601319134235,-2.7690125856533645
2024-12-07 19:55:54.387640800,5.908640869140625,-0.6732102269649505,8.982511544942856,0.3669666417375207
2024-12-07 19:55:54.397653800,5.91865380859375,5.088216872492432,12.112383103108405,3.528997425229848
2024-12-07 19:55:54.407667000,5.9286669921875,9.23155703291595,13.948371034789083,3.7028333584398014
2024-12-07 19:55:54.417681000,5.938680908203125,6.084293610444664,14.974583383285998,-0.0607847235694527
2024-12-07 19:55:54.427693800,5.94869384765625,-1.9140800561428069,9.692439683452248,-6.234686416485905
2024-12-07 19:55:54.437707800,5.958707763671875,-3.881124225232005,2.291594103118777,-8.853693441849947
2024-12-07 19:55:54.447720700,5.968720703125,0.1694213316380977,-1.273637541791797,-9.407781614828108
2024-12-07 19:55:54.457734000,5.97873388671875,2.6037732158750293,-2.3435686205059287,-8.876901298958062
2024-12-07 19:55:54.467747800,5.988747802734375,3.230940069067478,-2.72165900606513,-7.361969029450416
2024-12-07 19:55:54.477760800,5.9987607421875,3.6011984458267685,-3.0966736374408006,-6.313472368431091
2024-12-07 19:55:54.487775000,6.00877490234375,3.127546330088377,-3.081858930146694,-5.473108170238137
2024-12-07 19:55:54.497788000,6.018787841796875,1.9392472306251525,-2.8121295505851505,-4.546547159321606
2024-12-07 19:55:54.507801300,6.02880126953125,0.774383951807022,-2.3171160823881625,-3.41197175900042
2024-12-07 19:55:54.517815000,6.03881494140625,-0.1128688022783026,-1.0076467642366886,-1.2482539480797945
2024-12-07 19:55:54.527828200,6.048828125,-0.6868576440453529,-0.0923439371764659,0.5591591926321386
2024-12-07 19:55:54.537841200,6.058841064453125,-0.4316109633445739,0.0200742352575063,1.9805434098705648
2024-12-07 19:55:54.547855000,6.068855224609375,0.2295090859193354,-0.0249397954672574,2.7249212227314707
2024-12-07 19:55:54.557868300,6.078868408203125,0.0963830564994364,0.0591793341994285,2.892282699230313
2024-12-07 19:55:54.567882200,6.08888232421875,-0.3578455064425245,0.3485591706484556,2.5766800417661666
2024-12-07 19:55:54.577895200,6.098895263671875,-0.5436625674884766,0.6937918272227048,1.703756951404363
2024-12-07 19:55:54.587908400,6.108908447265625,-0.5043910259384662,0.7969453277051448,0.6121922791615129
2024-12-07 19:55:54.597922000,6.118922119140625,-0.3270318139731883,0.7459756034463644,-0.2825559817783534
2024-12-07 19:55:54.607935200,6.128935302734375,0.0191256292957812,0.6100941378384829,-0.7485252879291773
2024-12-07 19:55:54.617949200,6.13894921875,0.3815350461203605,0.4135714487850666,-0.6039294777289033
2024-12-07 19:55:54.627962000,6.148962158203125,0.9145732706766576,0.0782142895370721,-0.2289746137164533
2024-12-07 19:55:54.637975300,6.158975341796875,1.348628777629137,-0.2542687755793333,0.0936409912496805
2024-12-07 19:55:54.647989200,6.1689892578125,1.6252175215661524,-0.5201327118843794,0.4303751379393041
2024-12-07 19:55:54.658002200,6.179002197265625,1.7477765642642973,-0.5997697277009487,0.6607974662460386
2024-12-07 19:55:54.668015400,6.189015380859375,1.7930606441020964,-0.4593050259560346,0.720146896315366
2024-12-07 19:55:54.678029300,6.199029296875,1.6715256837546824,-0.2416167992770671,0.6331590793445706
2024-12-07 19:55:54.688042200,6.209042236328125,1.4229916524350643,-0.0584136105239391,0.4041531937070191
2024-12-07 19:55:54.698056200,6.21905615234375,1.0861655896782874,0.0736795687168836,0.0329855931483209
2024-12-07 19:55:54.708069000,6.229069091796875,0.7365701347846537,0.0700613782197236,-0.3971022522822022
2024-12-07 19:55:54.718082300,6.239082275390625,0.4119605795223265,0.0549614242434501,-0.8695192732676863
2024-12-07 19:55:54.728096300,6.24909619140625,0.0906335530620068,0.0451671754598617,-1.3608587291270493
2024-12-07 19:55:54.738109200,6.259109130859375,-0.3226841401576996,-0.0452162752985954,-1.892571258037537
2024-12-07 19:55:54.748123100,6.269123046875,-0.6526664744995534,-0.0328530528098344,-2.2348443341538307
2024-12-07 19:55:54.758136300,6.27913623046875,-0.7427309224367141,-0.0625263065397739,-2.3134528837054966
2024-12-07 19:55:54.768149200,6.289149169921875,-0.6087970837652683,-0.185090609934926,-2.108729206409305
2024-12-07 19:55:54.778163200,6.2991630859375,-0.3515969309091568,-0.3075093673795461,-1.5840885155811906
2024-12-07 19:55:54.788176400,6.30917626953125,-0.2384438683293759,-0.2662339386612177,-0.8529132986426353
2024-12-07 19:55:54.798189000,6.31918896484375,-0.2404534545861184,0.0375707289814949,0.1866591744258999
2024-12-07 19:55:54.808203300,6.329203369140625,-0.3073684976041317,0.4263765698224306,1.1398305443704129
2024-12-07 19:55:54.818216200,6.33921630859375,-0.4576349007867276,0.5351899957627058,1.851461541274935
2024-12-07 19:55:54.828230100,6.349230224609375,-0.5664043414548039,0.2837152348160743,2.269845504908264
2024-12-07 19:55:54.838243300,6.359243408203125,-0.457704020500183,-0.1800157908886671,2.436082069030404
2024-12-07 19:55:54.848256000,6.369256103515625,-0.1716929298318922,-0.6739736125528812,2.3657773835740983
2024-12-07 19:55:54.858270200,6.379270263671875,0.1675814028598368,-1.0013666610538958,2.1784236510127784
2024-12-07 19:55:54.868283400,6.389283447265625,0.3770573892496526,-1.0776911913216114,2.015799432168901
2024-12-07 19:55:54.878297000,6.399297119140625,0.1626779948577284,-0.9529793545037508,1.7863683068566023
2024-12-07 19:55:54.888310300,6.409310302734375,-0.3852079624794423,-0.7837947542309761,1.4424223290920255
2024-12-07 19:55:54.898323200,6.4193232421875,-0.9174151430390776,-0.6644815615862607,1.0105828176885845
2024-12-07 19:55:54.908337200,6.429337158203125,-1.1461667616546154,-0.6553460689723491,0.6139777012735604
2024-12-07 19:55:54.918350300,6.439350341796875,-0.927755627528578,-0.5758768109381198,0.3699858434282243
2024-12-07 19:55:54.928364300,6.4493642578125,-0.3622048341631889,-0.3466916232109069,0.3520015661872923
2024-12-07 19:55:54.938377200,6.459377197265625,0.0150223586954176,-0.0926315219461917,0.3877725522704422
2024-12-07 19:55:54.948390100,6.46939013671875,0.1162343697212636,-0.0872013135910034,0.2751622182652354
2024-12-07 19:55:54.958404400,6.479404296875,0.1278757076762616,-0.2940998507082462,0.149257226140052
2024-12-07 19:55:54.968417300,6.489417236328125,0.0358453664936125,-0.5413233839511871,0.0789189306750893
2024-12-07 19:55:54.978431200,6.49943115234375,-0.1875708824433386,-0.8111556393653154,-0.0521685786545276
2024-12-07 19:55:54.988444200,6.509444091796875,-0.4194141834639012,-0.9830115046739578,-0.2282616431415081
2024-12-07 19:55:54.998457000,6.51945703125,-0.6130829443909227,-0.9025199178546668,-0.3250025731679052
2024-12-07 19:55:55.008471300,6.52947119140625,-0.7269770345963538,-0.6262117444247007,-0.2872166670657694
2024-12-07 19:55:55.018484200,6.539484130859375,-0.674913816012442,-0.3612742753148079,0.1303088531073182
2024-12-07 19:55:55.028498200,6.549498291015625,-0.5256827472269535,-0.3107072866380214,0.8199985787734388
2024-12-07 19:55:55.038511400,6.559511474609375,-0.186617965632677,-0.4777396773129701,1.3971357650361955
2024-12-07 19:55:55.048524000,6.56952392578125,0.1187190261438488,-0.7389981656491756,1.736373565109819
2024-12-07 19:55:55.058538200,6.579538330078125,0.3489887942373752,-0.9628548518300056,1.8638462449431417
2024-12-07 19:55:55.068551400,6.589551513671875,0.5326163458824157,-0.9740934542030096,1.7450285807304082
2024-12-07 19:55:55.078565000,6.599565185546875,0.5164274276256561,-0.8615876034855842,1.4490601596713066
2024-12-07 19:55:55.088578300,6.609578369140625,0.1030550085440278,-0.7179840191930532,1.0039640571359545
2024-12-07 19:55:55.098591000,6.619591064453125,-0.522125347006321,-0.4927835171878337,0.5219991633433848
2024-12-07 19:55:55.108605200,6.629605224609375,-1.0893509417161344,-0.1891886929035186,0.2823718573831021
2024-12-07 19:55:55.118618400,6.639618408203125,-1.60442724699378,-0.1279787296593189,0.365415868631564
2024-12-07 19:55:55.128632300,6.64963232421875,-1.596445308329165,-0.2205073757529258,0.912446195520088
2024-12-07 19:55:55.138645200,6.659645263671875,-1.040393726323545,-0.3595575345247984,1.7035983998417854
2024-12-07 19:55:55.148658200,6.669658203125,-0.174605456277728,-0.3326233503699302,2.3478961283162234
2024-12-07 19:55:55.158672100,6.679672119140625,0.8839606172047555,0.0929348888069391,3.009928250923753
2024-12-07 19:55:55.168685300,6.689685302734375,1.88549313634485,1.133388528624177,3.742774908205867
2024-12-07 19:55:55.178699300,6.69969921875,2.439587739063799,2.530522101703286,4.253669836145639
2024-12-07 19:55:55.188712200,6.709712158203125,2.229196683655679,3.822883048665523,4.231816316255927
2024-12-07 19:55:55.198725000,6.71972509765625,1.1404781946241855,4.67036672347486,3.46436976249665
2024-12-07 19:55:55.208739300,6.7297392578125,-0.5460355071648955,5.258998386567831,2.152572147528082
2024-12-07 19:55:55.218752300,6.739752197265625,-2.226824693827331,5.742759223866463,0.682407678899169
2024-12-07 19:55:55.228766200,6.74976611328125,-3.715797177170217,6.045892860379815,-0.4194388064485043
2024-12-07 19:55:55.238779400,6.759779296875,-4.756390809980035,5.69541178175807,-0.8281543396349996
2024-12-07 19:55:55.248792000,6.7697919921875,-4.786923018626869,4.837766193896532,-0.5822529949065297
2024-12-07 19:55:55.258806300,6.77980615234375,-3.955767086023092,4.012567416131496,-0.0910236483581364
2024-12-07 19:55:55.268819200,6.789819091796875,-2.928316720163822,3.2613866452574727,0.3660317720402032
2024-12-07 19:55:55.278833200,6.799833251953125,-2.0930019143149257,2.392550970339775,0.7568046021051704
2024-12-07 19:55:55.288846300,6.809846435546875,-1.6000059234201909,1.368444654211402,1.056313472250104
2024-12-07 19:55:55.298859000,6.81985888671875,-1.533624110496044,0.2645703893631697,1.2227598066654055
2024-12-07 19:55:55.308873200,6.829873291015625,-1.88606158388257,-0.9217202928870916,1.2175796275485309
2024-12-07 19:55:55.318886400,6.839886474609375,-2.1440822593413293,-2.085304053288698,1.126745145086944
2024-12-07 19:55:55.328900000,6.849900146484375,-1.394402540680021,-2.72067057954967,1.0001095005996523
2024-12-07 19:55:55.338913300,6.859913330078125,0.7184580664455891,-2.681173850941658,0.8881845185101032
2024-12-07 19:55:55.348926200,6.86992626953125,3.081445088648796,-2.1323779391527173,0.5554387108042835
2024-12-07 19:55:55.358940200,6.879940185546875,3.998437183970213,-1.2889718890458344,-0.1680059118822217
2024-12-07 19:55:55.368953300,6.889953369140625,3.7677041822791097,-0.4000058647692203,-0.8586486274242401
2024-12-07 19:55:55.378967300,6.89996728515625,2.9862217966437337,0.3912251769423485,-1.1153544939573854
2024-12-07 19:55:55.388980200,6.909980224609375,2.104599120867252,0.8432897302508354,-1.1316565171997994
2024-12-07 19:55:55.398993200,6.9199931640625,1.2646131083369254,0.8056073575884103,-1.1412779666997492
2024-12-07 19:55:55.409007400,6.93000732421875,0.7472153743743896,0.3821814542651176,-1.1681937384150922
2024-12-07 19:55:55.419020300,6.940020263671875,0.2239244907200336,-0.0337982247054576,-1.2916384779065846
2024-12-07 19:55:55.429034200,6.9500341796875,-0.5468600118229165,-0.2983458177149296,-1.3426751299217343
2024-12-07 19:55:55.439047200,6.960047119140625,-1.3153975391566752,-0.4329454268187284,-1.17388099027127
2024-12-07 19:55:55.449061000,6.97006103515625,-1.7287269958794116,-0.4112678480178117,-0.8792381187275051
2024-12-07 19:55:55.459074300,6.98007421875,-1.631982777917385,-0.1190682779729366,-0.4992011291451751
2024-12-07 19:55:55.469087200,6.990087158203125,-1.2854022138655186,0.3956552683442831,0.023101766385138
2024-12-07 19:55:55.479101200,7.00010107421875,-0.8641361189246177,0.9490145425260066,0.5073210149757563
2024-12-07 19:55:55.489114400,7.0101142578125,-0.4568307447969913,1.3085539568722246,0.6908534356832504
2024-12-07 19:55:55.499128000,7.020128173828125,-0.131890359278256,1.4699369434833525,0.7245734805859625
2024-12-07 19:55:55.509141200,7.030141357421875,0.1351730250775814,1.5490022968918085,0.9779480838045476
2024-12-07 19:55:55.519154400,7.040154541015625,0.396826650211215,1.2370371191471814,1.2878949074640869
2024-12-07 19:55:55.529168100,7.050168212890625,0.9607488194614648,0.3975000194281339,1.234623043742776
2024-12-07 19:55:55.539181300,7.060181396484375,1.8798036925315853,-0.4622627067178487,1.1000246036827563
2024-12-07 19:55:55.549195300,7.0701953125,2.2667139288842675,-1.2171651284635066,0.9070385643228888
2024-12-07 19:55:55.559208200,7.080208251953125,1.5810615689754486,-1.764717177671194,0.3107093324646353
2024-12-07 19:55:55.569221400,7.090221435546875,0.1698421873986721,-1.965522658610344,-0.7092462937250733
2024-12-07 19:55:55.579235000,7.100235107421875,-0.631972207647562,-2.0031793123096224,-1.3436948283582926
2024-12-07 19:55:55.589248300,7.110248291015625,-0.6211001004993916,-1.9008125782907008,-1.485443724694848
2024-12-07 19:55:55.599262200,7.12026220703125,-0.7178022328853607,-1.6648843460440634,-1.2217960031345485
2024-12-07 19:55:55.609275100,7.130275146484375,-1.131484156307578,-1.3212088557839392,-0.8457327394887805
2024-12-07 19:55:55.619288300,7.140288330078125,-0.8286006951630115,-1.1146721377164124,-0.7258204119071364
2024-12-07 19:55:55.629302300,7.15030224609375,0.870217484664917,-1.4854150831222532,-0.8435977732867002
2024-12-07 19:55:55.639315200,7.160315185546875,2.662814602908492,-2.1917431513130663,-1.0881251993134615
2024-12-07 19:55:55.649329200,7.1703291015625,3.814460672757029,-2.763931629127264,-1.192289045882225
2024-12-07 19:55:55.659342300,7.18034228515625,4.029861080759764,-2.9970342825591563,-1.0973200208991765
2024-12-07 19:55:55.669355300,7.190355224609375,3.632672026976943,-2.982347001037001,-0.5065568987354636
2024-12-07 19:55:55.679369200,7.200369140625,2.6538796013027426,-2.661110137078166,0.5202323728665709
2024-12-07 19:55:55.689382400,7.21038232421875,0.9471043249905108,-2.0479811615884302,1.2813657979562878
2024-12-07 19:55:55.699396000,7.22039599609375,-0.3951432271689176,-1.518137203028798,1.0932520408079027
2024-12-07 19:55:55.709409300,7.2304091796875,-0.5042483295321464,-1.2861346197932957,-0.2791778836473822
2024-12-07 19:55:55.719423200,7.24042333984375,-0.1792915682673454,-1.3528431804537773,-1.8207701965436336
2024-12-07 19:55:55.729436200,7.250436279296875,0.4558557622849941,-1.816770020991564,-2.6736118912547826
2024-12-07 19:55:55.739449300,7.260449462890625,1.5824807881236076,-2.543814129474759,-3.302410437302292
2024-12-07 19:55:55.749463000,7.270463134765625,2.3144652756184336,-2.987408960601688,-3.962046020162105
2024-12-07 19:55:55.759476200,7.280476318359375,2.499029231330752,-3.005231033018231,-4.472074394400417
2024-12-07 19:55:55.769490200,7.290490234375,2.204391620483994,-2.4763836842805147,-4.821772213689982
2024-12-07 19:55:55.779503000,7.300503173828125,1.2670932347148656,-0.8448036419451236,-4.707304122988879
2024-12-07 19:55:55.789516300,7.310516357421875,0.0527115994900465,2.2342969294041395,-4.107262884870171
2024-12-07 19:55:55.799530200,7.3205302734375,-0.0097708313753828,5.673538388124108,-2.9218291117101907
2024-12-07 19:55:55.809543200,7.330543212890625,1.7806559205591677,8.787820162969828,-0.6938093628793954
2024-12-07 19:55:55.819557000,7.34055712890625,3.466427571809292,11.358749678385257,1.3666712147980928
2024-12-07 19:55:55.829570300,7.3505703125,2.826115990361571,13.231934245038032,1.9899960056096315
2024-12-07 19:55:55.839583200,7.360583251953125,-0.574140196403861,9.385264662593602,-1.0723892855212092
2024-12-07 19:55:55.849597200,7.37059716796875,-3.092573216384649,2.3487463154047727,-5.088018719571829
2024-12-07 19:55:55.859610000,7.380610107421875,-3.277570887339115,-0.8793588224977255,-6.64751493794918
2024-12-07 19:55:55.869624000,7.3906240234375,-1.319150169688463,-2.7220067965894934,-7.0585501462548965
2024-12-07 19:55:55.879637200,7.40063720703125,0.7124784075140953,-3.847196236667037,-6.687000560641288
2024-12-07 19:55:55.889651200,7.410651123046875,1.6967255914628503,-4.334252608379721,-5.37291468860507
2024-12-07 19:55:55.899664100,7.4206640625,1.767203733789921,-4.113088230022788,-3.3038293641895056
2024-12-07 19:55:55.909677300,7.43067724609375,1.485818403226137,-3.2039006709724664,-0.830695913876593
2024-12-07 19:55:55.919691000,7.44069091796875,1.2549965542078017,-2.028295048865676,1.505172945906967
2024-12-07 19:55:55.929704200,7.4507041015625,0.686372490876913,-0.7827782706648111,3.3533675943404435
2024-12-07 19:55:55.939718100,7.46071826171875,-0.3767745902528986,0.4496522314697503,4.7681303476125
2024-12-07 19:55:55.949731000,7.47073095703125,-0.9295441183805464,1.3925187727600334,5.17175557192266
2024-12-07 19:55:55.959744300,7.480744140625,-0.919468056980893,1.635112308114767,4.175945668213069
2024-12-07 19:55:55.969758200,7.49075830078125,-1.0884206751286982,1.392424664735794,2.653500831118226
2024-12-07 19:55:55.979771100,7.500771240234375,-0.9661118077993393,1.014863856008649,1.1108195539414882
2024-12-07 19:55:55.989785000,7.51078515625,-0.4207599355170503,0.6392530123054981,-0.2000626997478306
2024-12-07 19:55:55.999798300,7.52079833984375,0.1425286485373973,0.5063514392912387,-1.1899405830599368
2024-12-07 19:55:56.009812200,7.530812255859375,0.4983750170519575,0.5146978273540735,-1.85216603628248
2024-12-07 19:55:56.019825200,7.5408251953125,0.519162880471535,0.5019833072096109,-2.2135335428386926
2024-12-07 19:55:56.029838000,7.550838134765625,0.5272152905564755,0.4369195911467075,-2.275905243338644
2024-12-07 19:55:56.039852000,7.56085205078125,0.5783564258594066,0.28687516015172,-2.07010546124354
2024-12-07 19:55:56.049865200,7.570865234375,0.3888391585886478,0.0585071340262889,-1.6823999828599392
2024-12-07 19:55:56.059879400,7.58087939453125,0.1447883370976895,-0.1265624331206083,-1.256137833197415
2024-12-07 19:55:56.069892000,7.59089208984375,0.1323662240285426,-0.2956301290154457,-0.8946585368297993
2024-12-07 19:55:56.079906300,7.60090625,0.2710743644297123,-0.4295557843804359,-0.5255182043150067
2024-12-07 19:55:56.089919000,7.6109189453125,0.4318097007870674,-0.4975935478180646,-0.1784412350483238
2024-12-07 19:55:56.099932200,7.62093212890625,0.6287046572189777,-0.5069979205012322,0.1226512510262429
2024-12-07 19:55:56.109946400,7.6309462890625,0.743526968185231,-0.4308154290527105,0.34116555326581
2024-12-07 19:55:56.119959000,7.640958984375,0.71989942436032,-0.2677864288002252,0.4428203396230936
2024-12-07 19:55:56.129973200,7.65097314453125,0.504946175603196,-0.0350076004952192,0.4503256006866693
2024-12-07 19:55:56.139986200,7.660986083984375,0.195631220106408,0.1490899067491292,0.3356169792279601
2024-12-07 19:55:56.149999000,7.6709990234375,-0.2587878604389726,0.2638034966439008,0.1541669177524745
2024-12-07 19:55:56.160013300,7.681013427734375,-0.7343091310501099,0.3264782717436552,0.0494566893473267
2024-12-07 19:55:56.170026200,7.691026123046875,-1.0551065806783737,0.3343962052613496,-0.0658604193985462
2024-12-07 19:55:56.180040200,7.701040283203125,-1.3706477172136309,0.2547849084079265,-0.2583830790303647
2024-12-07 19:55:56.190053000,7.71105322265625,-1.522875921988487,0.1131914948940277,-0.3602753274053335
2024-12-07 19:55:56.200067300,7.7210673828125,-1.398668527561426,-0.1451706874787807,-0.3413157753914594
2024-12-07 19:55:56.210080300,7.731080322265625,-1.12591548932977,-0.31598785738945,-0.2504375268533825
2024-12-07 19:55:56.220093200,7.74109326171875,-0.6368459511637687,-0.4119476469755172,0.0718951695181429
2024-12-07 19:55:56.230107400,7.751107421875,-0.075558806592226,-0.3816477857798337,0.5099076704680919
2024-12-07 19:55:56.240120000,7.7611201171875,0.4254991294007748,-0.2841109561353921,0.9321863034524024
2024-12-07 19:55:56.250134300,7.77113427734375,0.6575089460946619,-0.2646224118113517,1.263661214439571
2024-12-07 19:55:56.260147200,7.781147216796875,0.6240262170791626,-0.3428969071030616,1.5394979709655046
2024-12-07 19:55:56.270160100,7.79116015625,0.4687608365654945,-0.53452948602736,1.7397212681025265
2024-12-07 19:55:56.280174300,7.80117431640625,0.2725461905479431,-0.6990133612632751,1.920849988669157
2024-12-07 19:55:56.290187000,7.81118701171875,0.1190505961857736,-0.8547849377334117,2.0035259337902067
2024-12-07 19:55:56.300201200,7.821201171875,-0.0045193771205842,-1.0571306338518858,1.929089701487124
2024-12-07 19:55:56.310214400,7.83121435546875,-0.1009632969617843,-1.284976097407937,1.745466533756256
2024-12-07 19:55:56.320228000,7.84122802734375,-0.1706955893576145,-1.3458645736128092,1.4572503342591223
2024-12-07 19:55:56.330241300,7.8512412109375,-0.1581061568975448,-1.30598907482028,1.0462203866504132
2024-12-07 19:55:56.340254200,7.861254150390625,0.0716578536309301,-1.081474216991663,0.7499341318137943
2024-12-07 19:55:56.350268200,7.87126806640625,0.4795208616413176,-0.7098351995289325,0.5247191628918051
2024-12-07 19:55:56.360281300,7.88128125,0.9455109183192252,-0.2726853067576885,0.4104683682031929
2024-12-07 19:55:56.370295300,7.89129541015625,1.1565171830162406,0.0047504093974828,0.282589445656538
2024-12-07 19:55:56.380308200,7.90130810546875,0.9993163043953478,0.0600631312966346,0.2076103386484086
2024-12-07 19:55:56.390322200,7.911322265625,0.4792429214827716,-0.0178378545075654,0.0900415054529905
2024-12-07 19:55:56.400335400,7.92133544921875,-0.1160417697586119,-0.210113407510519,-0.1658418657161295
2024-12-07 19:55:56.410348300,7.931348388671875,-0.5588973268255591,-0.325036840763688,-0.3684126758273691
2024-12-07 19:55:56.420362200,7.9413623046875,-0.6694011900708079,-0.3298264131277799,-0.480985965757817
2024-12-07 19:55:56.430375200,7.951375244140625,-0.662026861910522,-0.3862988264560699,-0.6450452589061111
2024-12-07 19:55:56.440389000,7.96138916015625,-0.5836306399352849,-0.4107002772629261,-0.7257196549464017
2024-12-07 19:55:56.450402300,7.97140234375,-0.4731786530077457,-0.4201157558619975,-0.6604154081258923
2024-12-07 19:55:56.460416000,7.981416015625,-0.2469368252560496,-0.3798620714068412,-0.3840175105858594
2024-12-07 19:55:56.470429200,7.99142919921875,-0.182149588046968,-0.3519716094404458,0.1046760338746011
2024-12-07 19:55:56.480442400,8.0014423828125,-0.4111822155609727,-0.3997369846999645,0.7193238164294511
2024-12-07 19:55:56.490456000,8.0114560546875,-0.7297872697114944,-0.3410141620963812,1.379152364578098
2024-12-07 19:55:56.500469200,8.02146923828125,-0.8312588084563612,-0.2358078207373619,1.688639607901871
2024-12-07 19:55:56.510483700,8.031483642578126,-0.4451297856092452,-0.0869347716093063,1.532244054314494
2024-12-07 19:55:56.520497000,8.041496826171874,-0.1111722640261054,0.0991904420703649,1.1118561304476111
2024-12-07 19:55:56.530509800,8.051509765625,-0.1696729683116078,0.3660533262848854,0.7534001274239271
2024-12-07 19:55:56.540523800,8.061523681640624,-0.3161889329195022,0.5254343254238367,0.5876251163989306
2024-12-07 19:55:56.550536700,8.07153662109375,-0.4067956710398197,0.6279471899151802,0.7347714147996157
2024-12-07 19:55:56.560550700,8.081550537109376,-0.5907900101706385,0.741864076474309,1.1943830224867908
2024-12-07 19:55:56.570563800,8.091563720703125,-0.644381899626553,0.9140928667485714,1.808442776020616
2024-12-07 19:55:56.580577800,8.101577880859375,-0.3396598248779773,1.053683708268404,2.419121143487841
2024-12-07 19:55:56.590590700,8.1115908203125,0.4909723761126399,1.3174088789790868,2.924913049200177
2024-12-07 19:55:56.600604000,8.12160400390625,1.4357593640714883,2.0308207679510115,3.246669845379889
2024-12-07 19:55:56.610617600,8.13161767578125,1.7782970824733375,3.04928469427824,3.4238100808322427
2024-12-07 19:55:56.620630800,8.141630859375,1.3081027059733867,3.81080331929326,3.2236259466618296
2024-12-07 19:55:56.630644700,8.151644775390626,0.187466691416502,3.92096991340816,2.365946748791635
2024-12-07 19:55:56.640657700,8.16165771484375,-1.212121581338346,3.56124812823236,1.0445653129197656
2024-12-07 19:55:56.650671600,8.171671630859375,-2.459531041418016,3.107325379836559,-0.0435221390660386
2024-12-07 19:55:56.660684800,8.181684814453124,-3.038799832881987,2.836220620268583,-0.5863427484381943
2024-12-07 19:55:56.670697700,8.19169775390625,-2.9091993472397326,2.673829917919635,-0.7160936754018068
2024-12-07 19:55:56.680711700,8.201711669921876,-2.5989573400259016,2.451840194654465,-0.5915037844631821
2024-12-07 19:55:56.690724900,8.211724853515625,-2.504878249619901,2.0235797107815743,-0.3052978288099169
2024-12-07 19:55:56.700738600,8.221738525390625,-2.7154700882971285,1.3774024521708488,0.0223989518780261
2024-12-07 19:55:56.710751700,8.231751708984374,-2.2960765092298385,0.6862035640507936,0.3505635692734271
2024-12-07 19:55:56.720766000,8.241765869140625,-1.036437682174146,-0.0570692101776599,0.6803694510698318
2024-12-07 19:55:56.730778600,8.251778564453126,-0.0351835415840148,-0.9055448186337948,0.9356003496795892
2024-12-07 19:55:56.740791800,8.261791748046875,0.3141794927932322,-1.8017554072111843,0.9748184074766932
2024-12-07 19:55:56.750805800,8.2718056640625,0.2999555909991264,-2.4792507641494272,0.9884441972471774
2024-12-07 19:55:56.760818700,8.281818603515624,-0.0069618018366396,-2.621480722001195,1.1148926485992967
2024-12-07 19:55:56.770833000,8.2918330078125,-0.5554945326447487,-2.201696974572539,1.1997811552032829
2024-12-07 19:55:56.780845600,8.301845458984374,-0.5962954026538878,-1.2755541890680788,1.0276294487532227
2024-12-07 19:55:56.790859800,8.31185986328125,-0.1046785180926322,-0.4229617929428815,0.632561040386185
2024-12-07 19:55:56.800872700,8.321872802734376,-0.072968205577135,0.3480892150491476,0.2772897318132221
2024-12-07 19:55:56.810885600,8.3318857421875,-0.82363101699166,1.2476730794519186,0.1549300841446965
2024-12-07 19:55:56.820899800,8.34189990234375,-1.4509329678058625,2.0067846433252097,0.0089599899165332
2024-12-07 19:55:56.830912800,8.351912841796874,-1.2331237450957298,2.381925531429052,-0.3733636492982506
2024-12-07 19:55:56.840926700,8.3619267578125,-0.4392635604569688,2.325931841528416,-0.9027079877726734
2024-12-07 19:55:56.850939600,8.371939697265624,0.2852139489412307,2.027847305098176,-1.2694229928366838
2024-12-07 19:55:56.860953900,8.381953857421875,0.7154197216629982,1.6069745933890345,-1.2510282350987196
2024-12-07 19:55:56.870966800,8.391966796875,0.965067851704359,0.9877087225794792,-1.0002199752368033
2024-12-07 19:55:56.880979700,8.401979736328125,1.2266226926386357,0.3930290114939213,-0.5793173067808151
2024-12-07 19:55:56.890994000,8.411993896484375,1.3261194241791965,-0.0345177711516618,0.0422552335359156
2024-12-07 19:55:56.901006600,8.422006591796874,1.1556728411465882,-0.3589882102042436,0.7757998099543154
2024-12-07 19:55:56.911020800,8.432020751953125,0.997582466340065,-0.5107961437404156,1.6237259678341447
2024-12-07 19:55:56.921033700,8.44203369140625,1.3278688981950282,-0.514791935378313,2.612719907918572
2024-12-07 19:55:56.931047700,8.452047607421875,1.1085738208413125,-0.4020908543497323,3.96747418269068
2024-12-07 19:55:56.941060900,8.462060791015626,0.3486094395309686,-0.4853489832729101,4.790469897453487
2024-12-07 19:55:56.951073500,8.472073486328124,0.1828594898819923,-0.8064338715404271,3.685654260101914
2024-12-07 19:55:56.961087700,8.482087646484375,0.7610755574226379,-0.9112070821791888,1.3451406432524322
2024-12-07 19:55:56.971101000,8.492100830078124,1.3079904777705669,-0.7644418189853429,-0.1872887045010924
2024-12-07 19:55:56.981114600,8.502114501953125,1.5752701260924338,-0.6385042397648095,-0.7520718744948506
2024-12-07 19:55:56.991127800,8.5121279296875,1.3560054438769815,-0.5568325032502413,-1.1573013191312551
2024-12-07 19:55:57.001141800,8.522141845703125,0.9958990432977676,-0.6044032327204942,-1.614858040115237
2024-12-07 19:55:57.011154700,8.53215478515625,1.0349684133391828,-0.8468442078620195,-2.179751684746146
2024-12-07 19:55:57.021167900,8.54216796875,1.27743576503098,-1.0563199019908904,-2.606577751901745
2024-12-07 19:55:57.031181800,8.552181884765625,1.3905407506853342,-1.3908943864285943,-2.7115789260774847
2024-12-07 19:55:57.041194800,8.56219482421875,0.8275719366371631,-1.8510130668550728,-2.536252754309773
2024-12-07 19:55:57.051208700,8.572208740234375,0.4195108487714081,-2.333958496117592,-2.040741857984662
2024-12-07 19:55:57.061222000,8.582221923828126,0.3033914837319403,-2.837515336254239,-1.1705720118537544
2024-12-07 19:55:57.071235600,8.592235595703125,-0.4951145904839039,-3.2499709327518937,-0.5013450093060732
2024-12-07 19:55:57.081248800,8.602248779296875,-1.5631652622789145,-3.336067499971389,0.0914572174698114
2024-12-07 19:55:57.091261700,8.61226171875,-2.059343682602048,-3.016846652010083,0.4630608713582158
2024-12-07 19:55:57.101275600,8.622275634765625,-1.740084256196022,-2.4255302798777816,0.3389057916402817
2024-12-07 19:55:57.111288800,8.632288818359376,-0.86594806371741,-1.4808978979587557,0.0322755451828241
2024-12-07 19:55:57.121302800,8.642302734375,0.3199077342469245,-0.5151555079936981,-0.0108928576752543
2024-12-07 19:55:57.131315700,8.652315673828125,1.1558570386070757,-0.2250350823104381,0.0883440538853406
2024-12-07 19:55:57.141329700,8.66232958984375,1.5599819560676813,-0.7746621842265129,0.103048871064186
2024-12-07 19:55:57.151342600,8.672342529296875,1.5778969674646854,-1.7879694584429262,-0.1266924892410635
2024-12-07 19:55:57.161356800,8.682356689453124,1.55008132430017,-2.7761685948878525,-0.9104048258855938
2024-12-07 19:55:57.171369700,8.69236962890625,1.5872008023828268,-3.340011269161105,-1.979518742997944
2024-12-07 19:55:57.181382700,8.702382568359376,1.5506787056714295,-3.5627047567814585,-3.0192849850729107
2024-12-07 19:55:57.191396600,8.712396728515625,1.4897545736312865,-3.5989275782853363,-3.867561271564662
2024-12-07 19:55:57.201409800,8.722409912109375,0.5018593885689974,-2.138815278723836,-4.432919318836928
2024-12-07 19:55:57.211423700,8.732423828125,-1.3435101194411516,3.0736937438696623,-3.8019764542371033
2024-12-07 19:55:57.221436700,8.742436767578125,-1.850276569274068,9.27426454026401,-0.8851450046837329
2024-12-07 19:55:57.231451000,8.752450927734374,0.5636035317551344,11.91820726944208,3.128909435135126
2024-12-07 19:55:57.241463600,8.762463623046875,4.129036325260997,12.877543299496171,4.557567735029757
2024-12-07 19:55:57.251476700,8.772476806640626,3.632607729569077,10.526923591434954,0.5475175624161959
2024-12-07 19:55:57.261491000,8.782490966796875,-1.2961065632313489,3.9934319230288255,-4.970785840332508
2024-12-07 19:55:57.271503600,8.792503662109375,-2.206654889240861,0.389403806734085,-6.130154028865695
2024-12-07 19:55:57.281517800,8.802517822265624,0.2247223630994558,-1.3241641984581949,-6.398990258979797
2024-12-07 19:55:57.291530800,8.81253076171875,1.929865069773793,-2.4828514189898967,-6.520476119488477
2024-12-07 19:55:57.301544700,8.822544677734374,2.784606752887368,-2.9384084905892607,-6.350982307136058
2024-12-07 19:55:57.311558000,8.832557861328125,2.54030582909286,-2.758666840466857,-5.758838252007961
2024-12-07 19:55:57.321570600,8.842570556640625,2.03520702021122,-2.065554812201857,-4.122043105372787
2024-12-07 19:55:57.331584800,8.852584716796875,1.6303519618451594,-1.2730430830299853,-1.9935212571263312
2024-12-07 19:55:57.341597700,8.86259765625,0.9035708882123232,-0.6259703368842602,-0.0823395527735352
2024-12-07 19:55:57.351612000,8.87261181640625,-0.2076695214897394,-0.1474339562356472,1.5577245325297115
2024-12-07 19:55:57.361624800,8.882624755859375,-0.7386182264208794,0.0593622895509004,2.561855397599935
2024-12-07 19:55:57.371638800,8.892638671875,-0.1024327849924564,0.0008294365614652,2.7348163015410303
2024-12-07 19:55:57.381651700,8.902651611328125,0.5365758606305345,9.9368721246e-06,2.592990832836926
2024-12-07 19:55:57.391665700,8.912665771484376,0.4335363784492015,0.1727899312883615,2.3012309693835675
2024-12-07 19:55:57.401678800,8.922678955078124,0.1733189235985279,0.4198346008330583,1.5889324484810232
2024-12-07 19:55:57.411691800,8.93269189453125,0.0398246453881263,0.5864952355861663,0.4740478370577096
2024-12-07 19:55:57.421705700,8.942705810546874,0.1342880589365959,0.6620581338316202,-0.4976423553958535
2024-12-07 19:55:57.431719000,8.952718994140625,0.2520295087525621,0.6247405028283596,-1.3664464661315083
2024-12-07 19:55:57.441732600,8.962732666015626,0.3315665347933769,0.4540606955617666,-2.1311199019156395
2024-12-07 19:55:57.451745800,8.972745849609375,0.4722106847584247,0.250662275519967,-2.393691226416081
2024-12-07 19:55:57.461759700,8.982759765625,0.5643255258867517,0.1333119073808193,-2.1446933769769965
2024-12-07 19:55:57.471772700,8.992772705078124,0.7132453002333641,0.0289309109300374,-1.7570682703532277
2024-12-07 19:55:57.481785900,9.002785888671875,0.9349415935099123,-0.0728068775355815,-1.378177820457518
2024-12-07 19:55:57.491799800,9.0127998046875,1.153171671980619,-0.0477653752595186,-1.043914593926072
2024-12-07 19:55:57.501812700,9.022812744140625,1.3335340843498706,0.0013350479960441,-0.6927820656582713
2024-12-07 19:55:57.511826200,9.032826171875,1.4685960502684114,0.1446861188322305,-0.3538401797913014
2024-12-07 19:55:57.521839000,9.042839111328124,1.4834487514853476,0.304473360684514,-0.1032841411247849
2024-12-07 19:55:57.531853300,9.052853271484375,1.280260759323835,0.3322206147879362,0.0186608613282442
2024-12-07 19:55:57.541866200,9.0628662109375,0.8871370552837848,0.1684083552032709,-0.0708501905098557
2024-12-07 19:55:57.551879200,9.072879150390625,0.2238250489335507,-0.0544271712362766,-0.3508313533641398
2024-12-07 19:55:57.561893000,9.08289306640625,-0.5941174010276794,-0.2087310132414102,-0.7531538245126604
2024-12-07 19:55:57.571906000,9.092906005859374,-1.2767559660732746,-0.3081628628522157,-1.0696874792166051
2024-12-07 19:55:57.581920300,9.102920166015624,-1.624448290759325,-0.383954309156537,-1.1192822618603706
2024-12-07 19:55:57.591933200,9.11293310546875,-1.4115747708857058,-0.3281318841695785,-0.836944599007815
2024-12-07 19:55:57.601947400,9.122947509765623,-0.7759002746541053,-0.2502121936649084,-0.3771729784533381
2024-12-07 19:55:57.611960000,9.1329599609375,-0.0542844017647206,-0.1561591144829988,0.1601943613484501
2024-12-07 19:55:57.621973200,9.14297314453125,0.3904664675295353,-0.0770277101010084,0.6160945472970605
2024-12-07 19:55:57.631987200,9.1529873046875,0.5783949312388896,-0.1371218210577964,0.9771116329804064
2024-12-07 19:55:57.642000100,9.163000244140624,0.7244179977633058,-0.2555681677401065,1.2638963383696973
2024-12-07 19:55:57.652014300,9.173014404296875,0.8063805339179932,-0.4753273554742336,1.431972246748209
2024-12-07 19:55:57.662027000,9.183027099609374,0.7218411330126225,-0.7092951013028621,1.4584865980558095
2024-12-07 19:55:57.672041200,9.193041259765623,0.4617103335320949,-0.8504793494939804,1.4025158506393431
2024-12-07 19:55:57.682054400,9.203054443359376,0.131614309682697,-0.8613631470799445,1.2470945489116012
2024-12-07 19:55:57.692068000,9.213068115234377,-0.3191489517688751,-0.8135732219010591,0.9021081221833824
2024-12-07 19:55:57.702081300,9.223081298828124,-0.7045932072222233,-0.6551818183213473,0.5384447597749531
2024-12-07 19:55:57.712094200,9.23309423828125,-0.864906664905697,-0.480729506778717,0.2939357461877167
2024-12-07 19:55:57.722108200,9.243108154296875,-0.7468379193641245,-0.3660685238540172,0.0942161607891321
2024-12-07 19:55:57.732121300,9.253121337890626,-0.409626948942989,-0.4153437191545963,-0.0737093793332576
2024-12-07 19:55:57.742135300,9.26313525390625,0.0004711246430873,-0.546318123498559,-0.0545537202253937
2024-12-07 19:55:57.752148200,9.273148193359376,0.5185642935238778,-0.6417886682629584,0.2245359006166458
2024-12-07 19:55:57.762162200,9.283162109375,0.8766727982841431,-0.7395926244109868,0.4781839139491319
2024-12-07 19:55:57.772175400,9.29317529296875,0.928217253690958,-0.7271785485178232,0.783191673771292
2024-12-07 19:55:57.782189000,9.30318896484375,0.6453766097523271,-0.6662082392483949,1.1406699178040027
2024-12-07 19:55:57.792202200,9.3132021484375,0.1050317154444754,-0.4431389040529728,1.496804346012324
2024-12-07 19:55:57.802215200,9.323215087890626,-0.4603413832664489,-0.2370814939349889,1.7162645507998764
2024-12-07 19:55:57.812229000,9.33322900390625,-0.7617031878016889,-0.2927963668942451,1.676600064409524
2024-12-07 19:55:57.822242300,9.3432421875,-0.7018976845279336,-0.5252326653718948,1.4646458513379097
2024-12-07 19:55:57.832256000,9.353256103515625,-0.4803519056379794,-0.7023176635056734,1.2590339930303394
2024-12-07 19:55:57.842269200,9.363269287109375,-0.3006102555155754,-0.7169342178791761,1.1476109691135583
2024-12-07 19:55:57.852283100,9.373283203125,-0.0906850640535354,-0.6668968060344457,1.0127142036940902
2024-12-07 19:55:57.862296000,9.383296142578123,-0.0722442752167582,-0.526314030867815,0.931522213520482
2024-12-07 19:55:57.872309200,9.393309326171876,-0.3802129306711256,-0.3735053958564996,0.7909579238586127
2024-12-07 19:55:57.882323200,9.4033232421875,-1.0645197211898862,-0.2586409993141889,0.5341036618307232
2024-12-07 19:55:57.892336000,9.413336181640624,-1.7946096271097658,-0.172805713379383,0.2537602415353059
2024-12-07 19:55:57.902350000,9.42335009765625,-1.995439804098755,-0.1435480547130107,0.0514915561757981
2024-12-07 19:55:57.912363300,9.43336328125,-1.5133958537206054,-0.3034545390307903,-0.0104628687601536
2024-12-07 19:55:57.922377200,9.443377197265624,-0.6605576661407947,-0.6734533880710601,0.1257443216707557
2024-12-07 19:55:57.932390100,9.45339013671875,-0.0481993827626109,-1.041732573711872,0.4450810876293107
2024-12-07 19:55:57.942404400,9.463404296875,-0.0539084080591797,-1.375797939583659,0.9889134221941231
2024-12-07 19:55:57.952417000,9.4734169921875,-0.4695419039405882,-1.5469243215739723,1.795705605652928
2024-12-07 19:55:57.962430200,9.48343017578125,-0.7192530162155628,-1.389246619221568,2.536050509735942
2024-12-07 19:55:57.972444400,9.4934443359375,-0.247825590789318,-0.8193629112184048,3.0255607043415305
2024-12-07 19:55:57.982457000,9.50345703125,0.8711594416901469,0.1212818623691797,3.197880972291529
2024-12-07 19:55:57.992471300,9.51347119140625,1.935988228829205,1.4389187048852443,3.40890506490618
2024-12-07 19:55:58.002484000,9.52348388671875,2.636765384894609,3.0457436606705186,3.6804493849352
2024-12-07 19:55:58.012498200,9.533498291015626,2.579441030912101,4.578658161592483,3.700913788554072
2024-12-07 19:55:58.022511400,9.543511474609376,1.460495745921135,5.41137213729322,3.034427901408076
2024-12-07 19:55:58.032524000,9.55352392578125,-0.3972559815391898,5.099871654450893,1.2406459572941064
2024-12-07 19:55:58.042538200,9.563538330078124,-2.178894191133976,4.194146218553185,-0.8520802088193595
2024-12-07 19:55:58.052551200,9.57355126953125,-3.438243095332384,3.544523787924647,-2.105803674351424
2024-12-07 19:55:58.062565000,9.583565185546876,-3.826481073157489,3.435797455745935,-2.368745001208037
2024-12-07 19:55:58.072578300,9.593578369140625,-3.535271098671853,3.664824238041043,-1.855797816913575
2024-12-07 19:55:58.082592300,9.60359228515625,-3.2527833598241207,3.662362231841683,-0.7724815522518008
2024-12-07 19:55:58.092605200,9.613605224609374,-3.28378172467798,3.009409195485711,0.2990142915610224
2024-12-07 19:55:58.102619100,9.623619140625,-3.183607240006328,2.0749264516592025,1.175983223247528
2024-12-07 19:55:58.112632300,9.63363232421875,-2.721985169279576,1.1859265251129865,1.9723447597153485
2024-12-07 19:55:58.122645200,9.643645263671877,-2.1019208415687083,0.2824579282313585,2.431107933879644
2024-12-07 19:55:58.132659200,9.6536591796875,-1.5288028278194368,-0.6011755028456449,2.462325932833552
2024-12-07 19:55:58.142672400,9.66367236328125,-1.0030348865270613,-1.3425678701549768,2.2618622510693966
2024-12-07 19:55:58.152686000,9.67368603515625,-0.4913282038129866,-1.9237229137569665,1.9640825428046285
2024-12-07 19:55:58.162699300,9.68369921875,-0.2491805125296115,-2.1567086628109213,1.7217536497354506
2024-12-07 19:55:58.172713200,9.693713134765623,-0.0747428870994597,-1.880769322693348,1.6343781486213207
2024-12-07 19:55:58.182726100,9.70372607421875,0.1767373537398874,-1.0137088407546282,1.73125709887892
2024-12-07 19:55:58.192740000,9.713739990234377,0.5177637177307158,0.0479378092169761,1.4558958509102462
2024-12-07 19:55:58.202753300,9.723753173828126,1.0306910282809287,0.830140325820446,0.8849833843812346
2024-12-07 19:55:58.212766200,9.73376611328125,1.4373556933522225,1.5362082817703484,0.3769119163643568
2024-12-07 19:55:58.222780200,9.7437802734375,1.4530688107907772,1.9972849935740231,-0.22227358170785
2024-12-07 19:55:58.232793000,9.75379296875,1.0364181006908415,2.313522441810369,-0.6758925979167223
2024-12-07 19:55:58.242807000,9.76380712890625,0.4353881803283467,2.1727122876286504,-0.9868423150084912
2024-12-07 19:55:58.252820200,9.7738203125,0.169437698251009,1.2771850051403044,-1.153448443095386
2024-12-07 19:55:58.262834400,9.78383447265625,0.340498065800406,0.2343704814106225,-1.157684034838527
2024-12-07 19:55:58.272847000,9.79384716796875,0.5543851100981235,-0.3782242410719394,-1.0159484363749622
2024-12-07 19:55:58.282860300,9.8038603515625,0.4418120393633842,-0.5727069487303496,-0.7206881635852158
2024-12-07 19:55:58.292874000,9.8138740234375,0.2854571100473403,-0.4978080673515796,-0.3959226871088147
2024-12-07 19:55:58.302887200,9.82388720703125,0.2904921816051006,-0.2184849300146102,-0.1724022471450269
2024-12-07 19:55:58.312901400,9.8339013671875,0.2840063267171382,0.1517296076029539,-0.0408536961749196
2024-12-07 19:55:58.322914000,9.8439140625,0.1719412055045366,0.5104962840110063,0.0590755815640091
2024-12-07 19:55:58.332928300,9.85392822265625,0.1403308462321758,0.7772773351609706,0.1331654846474528
2024-12-07 19:55:58.342941200,9.863941162109375,0.1830529666274785,1.0311235014140605,0.2137970644593238
2024-12-07 19:55:58.352955100,9.873955078125,0.066173147742683,1.2412743183255197,0.3360838660873472
2024-12-07 19:55:58.362968300,9.88396826171875,-0.1646977919812314,1.3315426182717085,0.2685205882936716
2024-12-07 19:55:58.372981200,9.893981201171876,-0.0611456567031797,1.2050894907444716,-0.0006219312906265
2024-12-07 19:55:58.382995200,9.9039951171875,0.8785738095998763,1.2776783416152,-0.1707417665868997
2024-12-07 19:55:58.393008000,9.914008056640624,2.0163637880533933,1.258252341133356,-0.8121195159614085
2024-12-07 19:55:58.403022300,9.924022216796876,1.755710864394903,0.9600333646684884,-1.997255182957649
2024-12-07 19:55:58.413035300,9.93403515625,0.6814174988180398,0.5107406141608953,-2.932004468765854
2024-12-07 19:55:58.423049200,9.94404931640625,0.0439654349872842,-0.1151747776657342,-3.3411817742452024
2024-12-07 19:55:58.433062400,9.9540625,0.0062122255783528,-0.6112982529312372,-3.302203224292397
2024-12-07 19:55:58.443076000,9.964076171875,-0.4146784601788967,-1.029841060388088,-2.9753739471539853
2024-12-07 19:55:58.453089300,9.97408935546875,-1.0076998826634138,-1.4197802891731262,-2.664009950172901
2024-12-07 19:55:58.463102200,9.984102294921875,-0.8049765854042022,-1.7096517085313796,-2.480227207966149
2024-12-07 19:55:58.473116200,9.9941162109375,-0.0542382976006716,-1.871810940212012,-2.285542547994852
2024-12-07 19:55:58.483129300,10.00412939453125,0.6052187138218432,-2.062767227309942,-1.5814187118500471
2024-12-07 19:55:58.493143000,10.01414306640625,1.580358973664045,-2.4577485419154166,-0.5982715980976819
2024-12-07 19:55:58.503156200,10.02415625,2.7580893328398464,-2.8300135823220014,0.1720247921347618
2024-12-07 19:55:58.513169700,10.034169677734376,3.310545520702004,-3.060935384583473,0.7416948573872446
2024-12-07 19:55:58.523182600,10.0441826171875,3.946284971928596,-3.5884640519380566,0.9957356694296002
2024-12-07 19:55:58.533196800,10.05419677734375,4.349785693076253,-4.297131376731396,0.5752814753934741
2024-12-07 19:55:58.543209700,10.064209716796874,3.671601769351959,-4.587396763843298,-0.32939737406075
2024-12-07 19:55:58.553222700,10.07422265625,1.8681798902332785,-4.059882709535956,-1.0654998182684183
2024-12-07 19:55:58.563236600,10.084236572265626,0.3173598033297807,-3.2763165033638475,-1.5146557906538247
2024-12-07 19:55:58.573249500,10.09424951171875,-0.5079289908062666,-2.6097803473353385,-1.7919073824137448
2024-12-07 19:55:58.583263700,10.104263671875,-0.8908416819553822,-2.140264308488369,-1.8021581427931783
2024-12-07 19:55:58.593276700,10.114276611328124,-0.937944793913886,-1.906282534134388,-2.0846356525078416
2024-12-07 19:55:58.603291000,10.124290771484375,-1.5523007539153098,-1.382049401193857,-2.988260024473071
2024-12-07 19:55:58.613303600,10.134303466796876,-2.4014479780226945,0.8866624235093593,-3.220572112049162
2024-12-07 19:55:58.623317800,10.14431787109375,-1.778773760074377,5.587431299510598,-2.054152835960686
2024-12-07 19:55:58.633330700,10.15433056640625,1.19530108717978,8.45923702790141,0.148133628937602
2024-12-07 19:55:58.643343600,10.164343505859376,4.039456007578969,8.989452742382884,1.947014065234363
2024-12-07 19:55:58.653357800,10.17435791015625,3.844761702996492,9.834394916015864,1.5755506965994834
2024-12-07 19:55:58.663370500,10.18437060546875,0.3971113489041105,7.038856434747577,-1.5366393666639924
2024-12-07 19:55:58.673384700,10.194384765625,-2.3264900599330662,2.40473825173974,-3.5275317365914582
2024-12-07 19:55:58.683398000,10.20439794921875,-2.0043197145164013,-0.1000759927332401,-3.772931561538577
2024-12-07 19:55:58.693411600,10.21441162109375,-0.8161854502260685,-1.90685770367384,-3.894019947162272
2024-12-07 19:55:58.703424800,10.2244248046875,0.8851005810201168,-2.985529722726345,-3.8350761752843856
2024-12-07 19:55:58.713438700,10.234438720703125,2.352563827866316,-3.282145940169692,-3.368687620808184
2024-12-07 19:55:58.723451600,10.24445166015625,2.5115058510661123,-2.9823434939056632,-2.3701681658789515
2024-12-07 19:55:58.733464800,10.25446484375,2.0421505557388064,-2.283433008494973,-1.1450947485089302
2024-12-07 19:55:58.743478800,10.264478759765623,1.4238754495322703,-1.3953402599215508,-0.0699172935739159
2024-12-07 19:55:58.753491700,10.27449169921875,0.5044628490656614,-0.4138128563255071,0.5295502363100648
2024-12-07 19:55:58.763505700,10.284505615234377,-0.5003168353021145,0.5099193609058856,0.5774678795218467
2024-12-07 19:55:58.773518800,10.294518798828124,-0.878776054173708,1.0616945807665583,0.4259253189235925
2024-12-07 19:55:58.783532500,10.304532470703125,-0.5319242719650268,1.1041706174463033,0.356801806075871
2024-12-07 19:55:58.793545700,10.314545654296875,-0.1993219643831253,0.6166729317069053,0.4427048965498805
2024-12-07 19:55:58.803559700,10.3245595703125,-0.0560241033052094,0.0293090965926647,0.42460123071298
2024-12-07 19:55:58.813572600,10.334572509765623,0.1805283983196131,-0.0708083971947431,0.1948211458325386
2024-12-07 19:55:58.823585800,10.344585693359376,0.3672878365159034,0.1197965922474861,-0.265891993355751
2024-12-07 19:55:58.833599700,10.354599853515625,0.3313432108988985,0.276026433879137,-0.8119222398236393
2024-12-07 19:55:58.843612700,10.36461279296875,0.22583700981047,0.1930804396450519,-1.3194529520273208
2024-12-07 19:55:58.853626600,10.374626708984374,0.3874597234616055,0.023644494959712,-1.563407692732662
2024-12-07 19:55:58.863639600,10.3846396484375,0.9487292958438396,0.0328150588870048,-1.6069548657752573
2024-12-07 19:55:58.873653800,10.39465380859375,1.401255621445179,0.1245645373016595,-1.6605179675281048
2024-12-07 19:55:58.883666700,10.404666748046877,1.454691443556547,0.2149608475416898,-1.7280458817474542
2024-12-07 19:55:58.893681000,10.414680908203126,1.1375322773654013,0.2551192549288272,-1.807291414028406
2024-12-07 19:55:58.903693600,10.424693603515625,0.7273872228324413,0.2409071897029876,-1.8587554976753888
2024-12-07 19:55:58.913706800,10.434706787109375,0.4784077858328819,0.0644838703483343,-1.851422962830216
2024-12-07 19:55:58.923720700,10.444720703125,0.550783359279111,-0.1691512825250625,-1.7258382887005803
2024-12-07 19:55:58.933733600,10.454733642578123,0.8360277033586054,-0.2204167748600244,-1.4741542689174414
2024-12-07 19:55:58.943747800,10.464747802734376,1.2109108173090963,-0.0145113404333591,-0.9492175177522004
2024-12-07 19:55:58.953760500,10.474760498046876,1.5557026713132858,0.2488333065271377,-0.3136518156573176
2024-12-07 19:55:58.963774700,10.484774658203126,1.7285574845314025,0.4178250145763159,0.2698250950209796
2024-12-07 19:55:58.973788000,10.494787841796876,1.7381997576236723,0.434878440707922,0.6435409187577664
2024-12-07 19:55:58.983801600,10.504801513671875,1.6174515637397766,0.3088800712108612,0.8905892415642738
2024-12-07 19:55:58.993814800,10.514814697265624,1.3513935661673544,0.1448088684290647,1.0164278904549775
2024-12-07 19:55:59.003827700,10.52482763671875,0.9063619802355766,-0.0392366163671016,0.9541004674881696
2024-12-07 19:55:59.013841700,10.534841552734376,0.1452127730548381,-0.2420452538222074,0.631629093298316
2024-12-07 19:55:59.023854800,10.544854736328125,-0.7917525083024054,-0.3611784137248993,0.1866948302611708
2024-12-07 19:55:59.033868800,10.554868896484376,-1.5233493847191333,-0.4892173491388559,-0.2095908449411392
2024-12-07 19:55:59.043881700,10.5648818359375,-1.530440804284811,-0.5698217486828565,-0.4680573644712567
2024-12-07 19:55:59.053895700,10.574895751953123,-0.9594352526448666,-0.3413683823615312,-0.4927426006555557
2024-12-07 19:55:59.063908600,10.58490869140625,-0.2524162795804441,-0.0420236167371273,-0.488006804305315
2024-12-07 19:55:59.073922600,10.594922607421877,0.3895630889490246,0.3044780368596315,-0.2710517142064869
2024-12-07 19:55:59.083935700,10.604935791015626,0.6107762748837471,0.5862713637024164,0.089071637507528
2024-12-07 19:55:59.093948700,10.61494873046875,0.3257809371292591,0.6650579001694917,0.4331995477102696
2024-12-07 19:55:59.103962600,10.624962646484375,-0.1005808735154569,0.3609200550496578,0.6543370380602777
2024-12-07 19:55:59.113975800,10.634975830078124,-0.5339290359161794,-0.0681008918017149,0.8577912799425422
2024-12-07 19:55:59.123989500,10.644989501953123,-0.6780395468175411,-0.3739928871124983,0.973134984434396
2024-12-07 19:55:59.134002700,10.655002685546876,-0.451215827524662,-0.6584259148091077,1.0674164655447005
2024-12-07 19:55:59.144016600,10.6650166015625,-0.338137583746761,-0.5848971527397632,1.3010548332884906
2024-12-07 19:55:59.154029600,10.675029541015626,-0.3666447163067758,-0.4494143310606479,1.6012354652151464
2024-12-07 19:55:59.164043800,10.685043701171876,-0.4806861060284078,-0.3530611582428217,1.7744316392168402
2024-12-07 19:55:59.174056700,10.695056640625,-0.648738633531332,-0.3190074974715709,1.8366021180562675
2024-12-07 19:55:59.184070700,10.705070556640624,-0.7864812168359756,-0.3727086925208568,1.7726598072387276
2024-12-07 19:55:59.194083600,10.71508349609375,-0.8850514811813831,-0.5705050547719002,1.7168335828594865
2024-12-07 19:55:59.204096800,10.7250966796875,-0.9549909865871072,-0.8825473894059658,1.674926139847934
2024-12-07 19:55:59.214110700,10.73511083984375,-0.7506012174203991,-1.0570336032181975,1.558866249910742
2024-12-07 19:55:59.224123600,10.74512353515625,-0.4312709177352488,-0.8813204779595136,1.4489543612092732
2024-12-07 19:55:59.234137900,10.755137939453125,-0.4104866345122456,-0.5592366417825222,1.386788704675436
2024-12-07 19:55:59.244150500,10.765150634765623,-0.6546084023475647,-0.4032669123917818,1.3442743818119167
2024-12-07 19:55:59.254164700,10.775164794921874,-1.0032216412708164,-0.3285901493310928,1.2705860452666875
2024-12-07 19:55:59.264178000,10.785177978515623,-1.4298403492860494,-0.4042021474152803,1.1500249714527278
2024-12-07 19:55:59.274191600,10.795191650390626,-1.8542077712431548,-0.5066629894584417,1.077694917648658
2024-12-07 19:55:59.284204800,10.805204833984376,-2.225332409442961,-0.5061351661920547,1.1400284780953078
2024-12-07 19:55:59.294217500,10.815217529296875,-2.1314882968366144,-0.3997065895617008,1.2366063265144824
2024-12-07 19:55:59.304231700,10.825231689453124,-1.700855823135376,-0.2865630254626274,1.186028743378445
2024-12-07 19:55:59.314244900,10.835244873046875,-1.1776679614640773,-0.3551584227830171,1.007205961666629
2024-12-07 19:55:59.324258800,10.8452587890625,-0.6841388866059481,-0.4843827685892581,0.8549202545508742
2024-12-07 19:55:59.334271700,10.855271728515625,-0.3732391461357474,-0.5791086324661969,0.7324610920306295
2024-12-07 19:55:59.344285700,10.86528564453125,-0.3786711080566048,-0.6433288834422827,0.7435729992840439
2024-12-07 19:55:59.354298600,10.875298583984376,-0.5021291454210877,-0.7202706688255072,0.8102879896853119
2024-12-07 19:55:59.364312600,10.8853125,-0.5534608348600566,-0.92856796682477,0.8818386566147207
2024-12-07 19:55:59.374325800,10.89532568359375,-0.2653422505185008,-0.9320756826847792,1.213892536533624
2024-12-07 19:55:59.384339700,10.905339599609375,0.2842170468583703,-0.4405886350482701,1.886973730291426
2024-12-07 19:55:59.394352600,10.9153525390625,0.926932182316482,0.6234773510247469,2.9122417836755514
2024-12-07 19:55:59.404365800,10.92536572265625,1.8031049221239983,2.1545395020782947,3.899288827475905
2024-12-07 19:55:59.414379500,10.935379638671876,2.6983292761430144,3.915087869632244,4.687824931015074
2024-12-07 19:55:59.424392700,10.945392822265624,2.6935680530905723,5.286925088891387,4.920458505630493
2024-12-07 19:55:59.434406700,10.95540673828125,1.5121464381814005,5.756124316874146,4.256548606452346
2024-12-07 19:55:59.444419600,10.965419677734374,-0.5829705685913562,5.296091561165452,2.801460564793646
2024-12-07 19:55:59.454433800,10.975433837890623,-2.3884575635463,4.140484186470508,0.9823504834819584
2024-12-07 19:55:59.464446700,10.98544677734375,-3.222020265030861,2.8974165549874304,-0.5723690220128744
2024-12-07 19:55:59.474460700,10.995460693359377,-3.411391328763961,1.9703847116887567,-1.4692515915676951
2024-12-07 19:55:59.484473600,11.0054736328125,-2.8612369881033897,1.3203133682489394,-1.924283324118704
2024-12-07 19:55:59.494486800,11.01548681640625,-2.029146697258949,0.8951087648153304,-1.3527427888192236
2024-12-07 19:55:59.504500700,11.025500732421875,-1.341306033525616,0.5663140328228473,-0.5462689871272072
2024-12-07 19:55:59.514514700,11.0355146484375,-1.1661819602012633,0.0998170495361089,-0.0365991805355995
2024-12-07 19:55:59.524528400,11.0455283203125,-1.5097268098190426,-0.493532874250412,0.1683282391717657
2024-12-07 19:55:59.534541600,11.05554150390625,-1.984614312571287,-1.2009791328161954,0.2368880171895027
2024-12-07 19:55:59.544555800,11.0655556640625,-1.994258923751116,-1.8380109619408844,0.4084308344935998
2024-12-07 19:55:59.554568400,11.075568359375,-1.1550316936988383,-2.2735358838588,0.6021733547765761
2024-12-07 19:55:59.564582700,11.085582763671876,0.0313899945199489,-2.4229887787014244,0.7468484407581388
2024-12-07 19:55:59.574595600,11.095595703125,0.999408512723446,-2.109028043225408,0.8771540789950638
2024-12-07 19:55:59.584609500,11.105609619140624,1.3445698576271534,-1.2815525527000426,1.0769316051259636
2024-12-07 19:55:59.594622700,11.115622802734377,1.2352689404308794,-0.1829267098993063,1.2897662542939186
2024-12-07 19:55:59.604635400,11.125635498046876,1.4373475100457669,0.7128396420419216,1.1860257477037608
2024-12-07 19:55:59.614649600,11.135649658203125,1.982023711556196,1.1777128235191106,0.8003991944860667
2024-12-07 19:55:59.624662500,11.14566259765625,2.405798574447632,1.447102595862746,0.4600931075938045
2024-12-07 19:55:59.634676500,11.155676513671876,2.3005776200413703,1.6171359219193455,0.1396586460590362
2024-12-07 19:55:59.644689700,11.165689697265623,1.6991022574663162,1.574672744721174,-0.1937223908104002
2024-12-07 19:55:59.654703600,11.17570361328125,0.930820714187622,1.0738321778059006,-0.5705480171307921
2024-12-07 19:55:59.664716500,11.185716552734377,0.4893740010052919,0.3520598722457885,-0.959070072594285
2024-12-07 19:55:59.674730500,11.19573046875,0.3339250806182622,0.0229167652070522,-1.1307399138115346
2024-12-07 19:55:59.684743700,11.20574365234375,0.2609475044245831,-0.0775783297210931,-1.054422543936968
2024-12-07 19:55:59.694756600,11.215756591796875,0.1768985539172776,-0.01730710863173,-0.6903048618897796
2024-12-07 19:55:59.704770600,11.2257705078125,0.0855740046501159,0.1051455510824918,-0.2124234380185604
2024-12-07 19:55:59.714783700,11.23578369140625,0.0313608049580827,0.1997662010192871,0.1820895284228026
2024-12-07 19:55:59.724797400,11.24579736328125,0.0509855428824201,0.3032552170664072,0.4591840299248695
2024-12-07 19:55:59.734810600,11.255810546875,0.1451975937520153,0.4502016820460557,0.7650032522603869
2024-12-07 19:55:59.744824600,11.265824462890626,0.1140408234660513,0.5921253504276275,1.0589603334970772
2024-12-07 19:55:59.754837500,11.27583740234375,-0.2338514259725809,0.6616939766943455,1.604201621544361
2024-12-07 19:55:59.764851500,11.2858515625,-0.5634732199063525,0.8205944988399744,1.9282021049976348
2024-12-07 19:55:59.774864600,11.29586474609375,-0.5090635843267663,0.804558140796423,2.0243638468965885
2024-12-07 19:55:59.784878600,11.305878662109375,-0.06839658681266,0.7252478727161884,1.8057485685005783
2024-12-07 19:55:59.794891500,11.3158916015625,0.4078875944623723,0.7852548899114131,1.5754852301478386
2024-12-07 19:55:59.804904400,11.325904541015625,0.9408686454713344,0.5302011014342308,0.7119207736313342
2024-12-07 19:55:59.814918400,11.33591845703125,1.5855343304753302,0.2630558931469917,-0.5666773131772875
2024-12-07 19:55:59.824931600,11.345931640625,1.976788733512163,0.160047354093194,-1.344462013338506
2024-12-07 19:55:59.834945800,11.35594580078125,1.926329296863079,-0.0380301631867885,-1.7951292670696972
2024-12-07 19:55:59.844958500,11.36595849609375,1.544146673554182,-0.2996510550945997,-2.3955919454708696
2024-12-07 19:55:59.854972700,11.37597265625,0.9190256469756364,-0.718359282246232,-2.916744648052752
2024-12-07 19:55:59.864985300,11.3859853515625,0.4802589666575193,-1.124904193395376,-3.054256345210969
2024-12-07 19:55:59.874999600,11.39599951171875,0.4010666989337653,-1.403273391008377,-3.017475889824331
2024-12-07 19:55:59.885012700,11.4060126953125,0.8618137403916567,-1.608815252819657,-3.042936494295299
2024-12-07 19:55:59.895026700,11.416026611328125,1.224234993784502,-1.845824266040325,-3.133683809930086
2024-12-07 19:55:59.905039600,11.42603955078125,1.1431255673278122,-2.111822057858109,-3.0650600632980463
2024-12-07 19:55:59.915052500,11.436052490234376,1.3956500565230845,-2.4472902762651443,-2.822812564902008
2024-12-07 19:55:59.925066500,11.44606640625,1.9658353778213264,-2.877785971844196,-2.4522186725780366
2024-12-07 19:55:59.935079700,11.45607958984375,1.7180325833857055,-3.157242380172014,-2.106328721138835
2024-12-07 19:55:59.945093600,11.46609375,1.1026806711494923,-3.277209068289399,-1.8092948628053067
2024-12-07 19:55:59.955106600,11.4761064453125,0.8459394410420209,-3.2341695525079963,-1.6256614659413695
2024-12-07 19:55:59.965120500,11.48612060546875,0.7248708560973406,-2.963185788971185,-1.4335133387103676
