time,seconds_elapsed,z,y,x
2024-12-07 20:18:19.508819500,0.0158193359375,-0.0283761996567249,-0.236751239067316,-0.2314256601303815
2024-12-07 20:18:19.518833400,0.02583349609375,-0.034338322931528,-0.2203945630282163,-0.2787070512652397
2024-12-07 20:18:19.528847400,0.035847412109375,-0.1072796405017375,-0.0299842193752527,-0.2072474966853857
2024-12-07 20:18:19.538861600,0.045861572265625,-0.0063362172842025,-0.0916337430804967,-0.3618956220835447
2024-12-07 20:18:19.548875500,0.05587548828125,0.1198538753926753,-0.1884767452418804,-0.3958393927395343
2024-12-07 20:18:19.558889500,0.065889404296875,0.1659644691824913,-0.3150391783624887,-0.2226432187378406
2024-12-07 20:18:19.568903400,0.0759033203125,0.2183177567541599,-0.5615431651592254,-0.0104798929601907
2024-12-07 20:18:19.578917400,0.08591748046875,0.1185702653229236,-0.7807172464817762,0.0552396566629409
2024-12-07 20:18:19.588931600,0.095931640625,0.0303051173261133,-0.5997352409094572,0.1311257955133914
2024-12-07 20:18:19.598945300,0.1059453125,0.0394973039967473,-0.5640016642272472,0.3456248707622289
2024-12-07 20:18:19.608959500,0.11595947265625,0.1863560998260974,-0.5162099854826927,0.2307937919676303
2024-12-07 20:18:19.618973400,0.125973388671875,0.2406511691153049,-0.472413513854146,0.1053220766931772
2024-12-07 20:18:19.628987600,0.135987548828125,0.2402162848293781,-0.6578600976198912,0.0756079064309597
2024-12-07 20:18:19.639001600,0.146001708984375,0.2008663077482953,-1.1303221267908812,0.0056058571830391
2024-12-07 20:18:19.649015600,0.156015625,0.1359948628544807,-1.6795336336433886,-0.1927136521592736
2024-12-07 20:18:19.659029500,0.166029541015625,0.1969535182187333,-2.1478964108020064,-0.4217518326312303
2024-12-07 20:18:19.669043500,0.17604345703125,0.2083832592496648,-3.0048066701263187,-0.9724392572551964
2024-12-07 20:18:19.679057700,0.1860576171875,0.1301391590962186,-3.061615768063068,-1.3806278439581394
2024-12-07 20:18:19.689071400,0.1960712890625,0.0557084432184696,-2.12066236691773,-1.4408631169512869
2024-12-07 20:18:19.699085600,0.20608544921875,0.2169874579984694,-1.2880442528069018,-1.5530182545349
2024-12-07 20:18:19.709099500,0.216099609375,0.5261738186795264,-0.4450964678615331,-1.5574243805393575
2024-12-07 20:18:19.719113500,0.226113525390625,0.524023874104023,0.2994628390461206,-1.0916685710087417
2024-12-07 20:18:19.729127400,0.23612744140625,0.2553822897791862,0.3365314637243747,-0.6147504392117261
2024-12-07 20:18:19.739141400,0.246141357421875,-0.0844599789936095,0.6870172185212373,-0.3300073226526379
2024-12-07 20:18:19.749155600,0.256155517578125,-0.2816590329386294,0.7640045966118574,-0.0797679487198591
2024-12-07 20:18:19.759169500,0.26616943359375,-0.2837818703114986,0.5368079523533582,0.2005678727909922
2024-12-07 20:18:19.769183500,0.27618359375,-0.5196808764636516,0.65060735001266,0.3256087954327464
2024-12-07 20:18:19.779197400,0.286197509765625,-0.6622141281109303,1.0436492209881545,0.3651709904924035
2024-12-07 20:18:19.789211400,0.29621142578125,-0.5005529090803116,0.9641729486912488,0.6014248014315963
2024-12-07 20:18:19.799225600,0.3062255859375,-0.3985247593659907,0.8090583748251199,0.9227388222798704
2024-12-07 20:18:19.809239300,0.3162392578125,-0.7662427309274673,-0.1160334403216838,1.4899614943802355
2024-12-07 20:18:19.819253500,0.32625341796875,-0.3123976508777588,0.0407160412698984,0.8685968977257609
2024-12-07 20:18:19.829267500,0.336267333984375,0.2448796004652977,0.774488581225276,0.3104100572571158
2024-12-07 20:18:19.839281700,0.34628173828125,0.5823742101334035,1.181587619125843,0.192725927118957
2024-12-07 20:18:19.849295400,0.35629541015625,0.5702407778125256,1.2981810314178466,-0.1148424769714474
2024-12-07 20:18:19.859309300,0.366309326171875,0.190976087776944,1.3992360983163117,-0.3980953549727797
2024-12-07 20:18:19.869323500,0.376323486328125,-0.1742040358699858,1.5653735859781504,-0.4270812109604477
2024-12-07 20:18:19.879337500,0.38633740234375,-0.4246176703911274,1.5018267042189837,-0.1992456842765212
2024-12-07 20:18:19.889351700,0.3963515625,-0.4986322432160377,1.478218449616432,-0.129418407073617
2024-12-07 20:18:19.899365400,0.406365478515625,-0.2402760521925985,1.611040527653694,-0.2563943894311785
2024-12-07 20:18:19.909379600,0.416379638671875,0.1340964088220149,1.8170049987912176,-0.4150841914355754
2024-12-07 20:18:19.919393500,0.4263935546875,0.2675753433328122,1.6718711361914873,-0.2781909184366464
2024-12-07 20:18:19.929407500,0.436407470703125,0.1193125350575894,0.2836830861121416,-0.2258738712221384
2024-12-07 20:18:19.939421400,0.44642138671875,0.102934158643335,-1.5246177972197532,-0.5042915841519833
2024-12-07 20:18:19.949435400,0.456435302734375,-0.0944365986067801,-2.435143911397457,-0.7058499292850494
2024-12-07 20:18:19.959449600,0.46644970703125,-0.1276701021015644,-3.35928587847352,-0.1883142481565475
2024-12-07 20:18:19.969467000,0.476466796875,-0.680367112982273,-2.729650589340925,0.6573156154796481
2024-12-07 20:18:19.979481000,0.486481201171875,-0.5317186663903296,-2.306501164871454,1.0019321859821675
2024-12-07 20:18:19.989494800,0.496494873046875,-0.0877098476350307,-2.0649334654331204,0.9015133711606264
2024-12-07 20:18:19.999508700,0.5065087890625,0.1247800066832452,-1.4578168821007012,0.5179042221799492
2024-12-07 20:18:20.009523000,0.51652294921875,0.031305823367834,-0.6370902813136577,0.054292146679759
2024-12-07 20:18:20.019537000,0.526536865234375,-0.1019875254429876,0.0013572598278522,-0.2898252421289682
2024-12-07 20:18:20.029550800,0.53655078125,-0.1901403676051646,0.1464525439828634,-0.5566434104189276
2024-12-07 20:18:20.039564800,0.546564697265625,-0.0482418336648493,-0.3791366797417402,-0.8382774550467729
2024-12-07 20:18:20.049579000,0.5565791015625,0.2525066612776369,-0.937227074098587,-0.5575495654784143
2024-12-07 20:18:20.059593000,0.566593017578125,0.4425450298130512,-0.6531780772835016,0.1607622243642807
2024-12-07 20:18:20.069606700,0.576606689453125,0.5835292253874242,0.1046364325165748,0.646169513695687
2024-12-07 20:18:20.079620900,0.586620849609375,0.6626501814406365,0.4001496571540832,0.691492025847733
2024-12-07 20:18:20.089634800,0.596634765625,0.8069628638505936,0.262781167858839,0.7771030015073717
2024-12-07 20:18:20.099649000,0.60664892578125,0.5974269639670848,0.1177729774653911,0.8918290124922991
2024-12-07 20:18:20.109662700,0.616662841796875,0.2288461650311946,-0.2182324165582656,0.7197136194646359
2024-12-07 20:18:20.119677000,0.626677001953125,-0.3362392027795314,-0.2204787341803312,0.7814245179682969
2024-12-07 20:18:20.129691000,0.63669091796875,-0.9920482861537486,0.1497504164844751,0.2791789065606892
2024-12-07 20:18:20.139704800,0.646704833984375,-1.203599617512897,-0.0645867462009191,-0.441351728375256
2024-12-07 20:18:20.149718800,0.65671875,-1.1088123057723045,-0.0199345345258712,-0.3478215770889073
2024-12-07 20:18:20.159732700,0.666732666015625,-0.6743650960884988,0.9626952773541212,-0.2202844537172466
2024-12-07 20:18:20.169747000,0.676746826171875,-0.0639116964835673,1.6446978825837373,-0.2176533014960587
2024-12-07 20:18:20.179761000,0.686760986328125,0.4831341567676514,1.7589666513204574,-0.2267581067107617
2024-12-07 20:18:20.189775000,0.696775146484375,0.6292798998236656,1.9376649298697708,-0.3748947313230484
2024-12-07 20:18:20.199788800,0.706788818359375,0.1739782642900943,2.033889507871866,-0.2005800381528213
2024-12-07 20:18:20.209802800,0.716802734375,-0.3998163335464894,1.7863070781886576,0.1607542785198427
2024-12-07 20:18:20.219817000,0.72681689453125,-0.8529903094016015,1.6051076304733751,0.5618043733786792
2024-12-07 20:18:20.229831000,0.736830810546875,-1.0314495915632695,1.7110563146322966,0.5462952906122431
2024-12-07 20:18:20.239843800,0.74684375,-0.9242845173519104,1.7863620232462882,0.2681773460802622
2024-12-07 20:18:20.249857800,0.75685791015625,-0.6308347280502319,1.5750854171752928,-0.0744763177182991
2024-12-07 20:18:20.259872000,0.7668720703125,-0.2171826152443885,1.1499760908097028,-0.5493000984514131
2024-12-07 20:18:20.269885700,0.7768857421875,0.0635538960218429,0.4744312834173441,-1.2736409027926625
2024-12-07 20:18:20.279900000,0.78689990234375,-0.131083709937334,0.0868465088039636,-1.9550128089033063
2024-12-07 20:18:20.289913900,0.796913818359375,-0.3883657689232379,-0.3712228378772735,-2.071840468342602
2024-12-07 20:18:20.299928000,0.806927978515625,-0.3374913947977125,-0.9729472067773342,-1.9435345525555312
2024-12-07 20:18:20.309941800,0.816941650390625,0.0917711057245731,-2.221208899772168,-1.693678332721442
2024-12-07 20:18:20.319955700,0.826955810546875,0.1256873307865113,-1.736248039034009,-0.1891889303655363
2024-12-07 20:18:20.329970000,0.836969970703125,-0.049475174852088,-0.6655979983955621,1.0248398180346936
2024-12-07 20:18:20.339984000,0.84698388671875,-0.273466301067546,-0.0267383693218231,1.2200574889041482
2024-12-07 20:18:20.349997800,0.856997802734375,-0.3033318624991923,0.2489467037737369,0.6856404502753168
2024-12-07 20:18:20.360011800,0.86701171875,-0.0865874925415962,0.2903080572098493,0.3108841775748878
2024-12-07 20:18:20.370026000,0.87702587890625,0.0120820674598217,0.3458949198752641,0.4204767346614971
2024-12-07 20:18:20.380040000,0.8870400390625,-0.1629588576257228,0.4117939177185297,0.3113385337462648
2024-12-07 20:18:20.390054000,0.897053955078125,-0.2954547724485397,0.3023041999518871,-0.0817467927784658
2024-12-07 20:18:20.400067800,0.90706787109375,-0.0706125092964619,0.0847358002603054,-0.3425464131649583
2024-12-07 20:18:20.410081800,0.917081787109375,0.2505867991309612,-0.1983037272512912,-0.399496307811886
2024-12-07 20:18:20.420096000,0.927095947265625,0.1949813048303127,-0.3248620687186718,-0.5339915066931397
2024-12-07 20:18:20.430110000,0.93710986328125,0.0323334128499031,-0.4652092815637588,-0.6033990606466307
2024-12-07 20:18:20.440124000,0.9471240234375,-0.0684942019682377,-0.4645324052155017,-0.5833123312337324
2024-12-07 20:18:20.450137900,0.957137939453125,-0.0994855525594204,-0.5836947912126779,-0.6688391722738742
2024-12-07 20:18:20.460151800,0.96715185546875,-0.1422118376731872,-0.4885737905383109,-0.7171655424170196
2024-12-07 20:18:20.470166000,0.977166015625,0.0110696755468845,-0.4132727580994367,-0.5745035498235375
2024-12-07 20:18:20.480179700,0.9871796875,0.1547719709735363,-0.0833054751962423,-0.6455610994737595
2024-12-07 20:18:20.490194000,0.99719384765625,0.0686671473823487,0.3071171531915664,-0.517287916912511
2024-12-07 20:18:20.500207900,1.007207763671875,-0.0834416687965393,0.625478169453144,-0.0468280030778609
2024-12-07 20:18:20.510222000,1.01722216796875,-0.0470890834331512,0.7085282085835933,0.3841170985028147
2024-12-07 20:18:20.520235800,1.02723583984375,0.2546681501604616,0.3845055132985114,0.6258975639089942
2024-12-07 20:18:20.530249700,1.037249755859375,0.5870118798714131,-0.1647235292106866,0.539453242697753
2024-12-07 20:18:20.540264000,1.047263916015625,0.4906641138810664,-0.5204138669133186,0.2136831374897621
2024-12-07 20:18:20.550278000,1.05727783203125,-0.0079998396474868,-0.4799807342380285,-0.0133066682181786
2024-12-07 20:18:20.560291800,1.067291748046875,-0.3645709057074039,-0.2588070035308599,-0.0858283812699839
2024-12-07 20:18:20.570305800,1.077305908203125,-0.3809878605663776,-0.0184457572728395,-0.0433221960471477
2024-12-07 20:18:20.580320000,1.087320068359375,-0.1752840861916542,0.2489496263831853,0.1075332864692434
2024-12-07 20:18:20.590334000,1.097333984375,0.1120388907928019,0.4310743722498417,0.2650524372590706
2024-12-07 20:18:20.600347600,1.10734765625,0.3064076166827231,0.4981996970176696,0.3643843701593577
2024-12-07 20:18:20.610361900,1.11736181640625,0.2812474564630538,0.3912497268617153,0.4176844735944643
2024-12-07 20:18:20.620375800,1.127375732421875,0.0974655179738998,0.1486100142776966,0.4703120845954865
2024-12-07 20:18:20.630390000,1.13739013671875,-0.0743230542521923,-0.1425128664463758,0.4993564658373594
2024-12-07 20:18:20.640404000,1.147404052734375,-0.1425111128807067,-0.358892348614335,0.5101657734150067
2024-12-07 20:18:20.650418000,1.15741796875,-0.0462882884442806,-0.4734451949894428,0.4888713121801614
2024-12-07 20:18:20.660432000,1.167431884765625,0.2309410914838313,-0.3851110779762268,0.3631292555317282
2024-12-07 20:18:20.670445800,1.17744580078125,0.40978601196222,-0.1487187353491783,0.1783633475065231
2024-12-07 20:18:20.680460000,1.1874599609375,0.3318425021905452,0.0522194320589303,0.105859544570744
2024-12-07 20:18:20.690473700,1.1974736328125,0.0679424133043736,0.162318806156516,0.1516190781668759
2024-12-07 20:18:20.700488000,1.207488037109375,-0.2290215946633368,0.1626853013813495,0.2298563284544274
2024-12-07 20:18:20.710502000,1.217501953125,-0.2774013024289161,0.0801017107188701,0.3313285978516563
2024-12-07 20:18:20.720515800,1.227515869140625,-0.0884055017489939,-0.0270791455835104,0.4057630400564521
2024-12-07 20:18:20.730529800,1.23752978515625,0.2762871306419372,-0.0865057325422763,0.4147562746554613
2024-12-07 20:18:20.740543700,1.247543701171875,0.5938228019952774,-0.1109855092823505,0.3337482627466321
2024-12-07 20:18:20.750557000,1.257556884765625,0.7186730974357575,-0.0495206944942474,0.2462979793632403
2024-12-07 20:18:20.760571000,1.26757080078125,0.6865992123048752,-0.020358312895894,0.213432194935996
2024-12-07 20:18:20.770584800,1.277584716796875,0.6463607254188507,-0.0497124176740646,0.2548712715171277
2024-12-07 20:18:20.780598800,1.287598876953125,0.6550584111373872,-0.0704945089399814,0.2942402638259344
2024-12-07 20:18:20.790613000,1.297613037109375,0.6334405266344547,-0.110197573775053,0.2081994636479765
2024-12-07 20:18:20.800626700,1.307626708984375,0.6591338438827544,-0.1471212370246648,0.0764783143236301
2024-12-07 20:18:20.810641000,1.317640869140625,0.6929787572741508,-0.1964443631201982,-0.040428602630645
2024-12-07 20:18:20.820654800,1.32765478515625,0.6766190855603664,-0.1622206064790487,-0.1183360364419408
2024-12-07 20:18:20.830668800,1.337668701171875,0.6774515908617526,-0.1142570782989263,-0.1821178960007615
2024-12-07 20:18:20.840683000,1.34768310546875,0.7678104917008429,-0.0587590629607439,-0.2223036845851689
2024-12-07 20:18:20.850696700,1.35769677734375,0.9582360329229384,0.0335205768078565,-0.2119796580401249
2024-12-07 20:18:20.860711000,1.3677109375,1.1040133079927414,0.101989717400074,-0.1700422400154173
2024-12-07 20:18:20.870724900,1.377724853515625,1.026551298127696,0.0784101043701171,-0.1456351266527548
2024-12-07 20:18:20.880739000,1.387739013671875,0.8338005288284271,-0.0002858312040567,-0.1435352682966738
2024-12-07 20:18:20.890752800,1.397752685546875,0.6706009212493896,-0.0259212077200412,-0.1338381871440913
2024-12-07 20:18:20.900767000,1.40776708984375,0.5604022514957935,0.0116939449250698,-0.1315276086467783
2024-12-07 20:18:20.910781000,1.417781005859375,0.4443278946418315,0.0896644888341426,-0.1242227198603563
2024-12-07 20:18:20.920795000,1.427794921875,0.307611585645005,0.133597738584876,-0.0818720357264857
2024-12-07 20:18:20.930808800,1.437808837890625,0.1399484958510845,0.1072317097067832,-0.0888667169194202
2024-12-07 20:18:20.940822800,1.44782275390625,-0.0665630877751857,0.0410381128311157,-0.106298666640371
2024-12-07 20:18:20.950837000,1.4578369140625,-0.3668998601116239,-0.0318365692436695,-0.0796020723673514
2024-12-07 20:18:20.960851000,1.467850830078125,-0.6586147884447128,-0.0508832150191068,-0.0097545697937486
2024-12-07 20:18:20.970862300,1.4778623046875,-0.8441127370715141,-0.0781423933446407,0.1122325502013787
2024-12-07 20:18:20.980876500,1.48787646484375,-0.7456324890971183,-0.1002303065121173,0.2449817273992113
2024-12-07 20:18:20.990890200,1.49789013671875,-0.3396727574247866,-0.1159796643078327,0.2957482207034714
2024-12-07 20:18:21.000904400,1.507904541015625,0.0362555547297,-0.0797878224641084,0.2528828741788864
2024-12-07 20:18:21.010918400,1.51791845703125,0.2702665551781654,-0.0439402640134096,0.1946791252796538
2024-12-07 20:18:21.020932400,1.527932373046875,0.376142247166112,-0.0166278941959142,0.1435944146053865
2024-12-07 20:18:21.030946300,1.5379462890625,0.3052829965669661,-0.0340934082597494,0.1077369923477992
2024-12-07 20:18:21.040960300,1.547960205078125,0.0755564685046672,-0.0490846411645412,0.083744487668015
2024-12-07 20:18:21.050974500,1.557974365234375,-0.1577262176692485,-0.0047714521855115,0.1668657654037699
2024-12-07 20:18:21.060988400,1.567988525390625,-0.225623184396699,0.0467617511749267,0.3738757635388523
2024-12-07 20:18:21.071002400,1.57800244140625,-0.1697615233778953,0.022098434561491,0.5414309359788895
2024-12-07 20:18:21.081016300,1.588016357421875,-0.1127179590981453,-0.0751461341381072,0.6643884764753282
2024-12-07 20:18:21.091030300,1.5980302734375,-0.1080219102364033,-0.114824649053812,0.812022266132012
2024-12-07 20:18:21.101044500,1.60804443359375,-0.0907470233738422,-0.0871504601866006,0.9234954128008336
2024-12-07 20:18:21.111058200,1.61805810546875,-0.0133340402822941,0.0188613523364067,0.9907139688100666
2024-12-07 20:18:21.121072400,1.628072265625,0.1308884796261787,0.1807978811770677,1.00354320137538
2024-12-07 20:18:21.131086300,1.63808642578125,0.306909063398838,0.3113958534240722,1.0190488866083325
2024-12-07 20:18:21.141100300,1.648100341796875,0.452616341972351,0.3655646659851074,1.0575473248939962
2024-12-07 20:18:21.151113200,1.65811328125,0.5653109932601451,0.4218354192614555,1.0972709210604428
2024-12-07 20:18:21.161127400,1.66812744140625,0.6179916130900382,0.5580529849559068,1.0600105732023717
2024-12-07 20:18:21.171141400,1.678141357421875,0.4736322054615244,0.7684557308018207,1.0219494303554295
2024-12-07 20:18:21.181155300,1.6881552734375,0.0845428349714726,0.9239449831992388,0.9395201534718276
2024-12-07 20:18:21.191169300,1.698169189453125,-0.4152338290393352,1.0011252535134554,0.8435613867990672
2024-12-07 20:18:21.201183200,1.708183349609375,-0.8465455171763896,0.918778394216299,0.7703292695887386
2024-12-07 20:18:21.211197400,1.718197509765625,-1.2431623240292071,0.663861968383193,0.6673035602044314
2024-12-07 20:18:21.221211400,1.72821142578125,-1.7649755363464354,0.397531583610177,0.4909861489096656
2024-12-07 20:18:21.231225300,1.738225341796875,-2.30805599309802,0.3272983559548855,0.0071594889663625
2024-12-07 20:18:21.241239300,1.7482392578125,-2.464509122091532,0.5600894592195749,-0.609555281721428
2024-12-07 20:18:21.251253200,1.758253173828125,-2.306647295343876,0.9277835384488106,-1.1724755073875188
2024-12-07 20:18:21.261267500,1.768267333984375,-2.311832004505396,1.1117565425306557,-1.6990053729631005
2024-12-07 20:18:21.271281200,1.77828125,-1.8773276578068727,1.0193331103771923,-1.925169020912051
2024-12-07 20:18:21.281295400,1.78829541015625,-1.1834779629170893,0.7483177826583385,-1.6994368962481616
2024-12-07 20:18:21.291309300,1.798309326171875,-0.2713829919874668,0.3961082728087902,-1.0888269909072668
2024-12-07 20:18:21.301323500,1.808323486328125,0.8901976118981838,0.0265787948459386,-0.4166638618424534
2024-12-07 20:18:21.311337200,1.818337158203125,1.664939291101694,-0.3027361616283655,0.1019822008138988
2024-12-07 20:18:21.321351200,1.82835107421875,1.7548598005235194,-0.6033510933190583,0.3441979797642678
2024-12-07 20:18:21.331365400,1.838365478515625,1.4646926130890845,-0.920253727465868,0.1610530970696359
2024-12-07 20:18:21.341379300,1.84837939453125,1.1848691250145436,-1.1653864259094,-0.2695315006355754
2024-12-07 20:18:21.351393300,1.858393310546875,1.0619394954383372,-1.247901627510786,-0.6524064353238791
2024-12-07 20:18:21.361407200,1.8684072265625,0.9051648794054984,-1.1877063942670822,-0.8489143651995807
2024-12-07 20:18:21.371421400,1.87842138671875,0.729638801151514,-1.1586141552954912,-0.8506162737466394
2024-12-07 20:18:21.381435400,1.888435302734375,0.584752191311121,-1.176843054947257,-0.5841127243638038
2024-12-07 20:18:21.391449000,1.898448974609375,0.5232242481589316,-1.2438029600203035,-0.2504192605443299
2024-12-07 20:18:21.401463300,1.90846337890625,0.3826396828940138,-1.3321949447005987,-0.1048466960000805
2024-12-07 20:18:21.411477200,1.918477294921875,-0.036095413998235,-1.3396107739150522,-0.1040786433701869
2024-12-07 20:18:21.421491500,1.928491455078125,-0.8285223692297935,-1.2666232791155576,-0.0920835874735377
2024-12-07 20:18:21.431505400,1.93850537109375,-1.779870323139429,-1.050337904971838,0.0268031781863421
2024-12-07 20:18:21.441519400,1.948519287109375,-2.619585117512941,-0.6336971317440271,0.2553915325315669
2024-12-07 20:18:21.451533300,1.958533203125,-3.2217630753993984,-0.1735948179304599,0.64913859263435
2024-12-07 20:18:21.461547300,1.96854736328125,-3.258411428838968,0.2097568491578102,1.1882311487935482
2024-12-07 20:18:21.471561500,1.9785615234375,-2.5634125639140604,0.2834159596085548,1.6857742815986274
2024-12-07 20:18:21.481575200,1.9885751953125,-1.3442729205071926,0.0205646491229534,2.084471547987312
2024-12-07 20:18:21.491588400,1.99858837890625,-0.1461246272027492,-0.4401788852035999,2.2102749794341623
2024-12-07 20:18:21.501602300,2.008602294921875,0.4573042075276374,-0.8587707924991845,1.8088116093330084
2024-12-07 20:18:21.511616300,2.0186162109375,0.2526455217590555,-1.0831260758519172,0.9792109433472156
2024-12-07 20:18:21.521630200,2.028630126953125,-0.2987199482569471,-1.1658739171653985,0.0083036814322695
2024-12-07 20:18:21.531644400,2.03864453125,-0.6838496944010257,-1.1765741748780012,-1.0028075075119731
2024-12-07 20:18:21.541658400,2.048658447265625,-0.680238518166542,-1.355126322954893,-1.7458429658532142
2024-12-07 20:18:21.551672300,2.05867236328125,-0.3425614280709996,-1.8001976563751696,-2.0926535392686723
2024-12-07 20:18:21.561686300,2.068686279296875,0.0662848188230767,-2.235291201138496,-2.2038535680845377
2024-12-07 20:18:21.571700200,2.0787001953125,0.3774211079955101,-1.810214607998729,-2.2836263391099867
2024-12-07 20:18:21.581714400,2.08871435546875,0.4619277756750583,-0.36091596339643,-2.515176940794289
2024-12-07 20:18:21.591728000,2.09872802734375,0.3804489679167047,1.4351345101714132,-2.60721166589111
2024-12-07 20:18:21.601742300,2.108742431640625,0.7179214753508567,3.1205501875907182,-2.125912104139477
2024-12-07 20:18:21.611756300,2.11875634765625,1.701805086684227,4.189222206154465,-1.1670653919722884
2024-12-07 20:18:21.621770500,2.1287705078125,2.824164271771908,4.164571749022603,-0.1141403565840795
2024-12-07 20:18:21.631784400,2.138784423828125,3.428441832286119,3.1125480829209087,0.7930009009283036
2024-12-07 20:18:21.641798100,2.148798095703125,2.9227357051610947,1.4894915387809275,1.4058230754911898
2024-12-07 20:18:21.651812400,2.158812255859375,1.2965490463018416,-0.0695183573842048,1.4284253679215908
2024-12-07 20:18:21.661826300,2.168826416015625,-0.3956617711503058,-1.142051727551222,1.00154340586029
2024-12-07 20:18:21.671840500,2.178840576171875,-1.2051029347479345,-1.695613246306777,0.3361542279098182
2024-12-07 20:18:21.681854200,2.188854248046875,-0.6112403852641582,-1.706753064480424,-0.5390806465256959
2024-12-07 20:18:21.691868400,2.198868408203125,0.507076209901832,-1.3521809171527623,-1.314502636143565
2024-12-07 20:18:21.701882400,2.20888232421875,1.1974959668755532,-0.8009235836863517,-1.7273308653458952
2024-12-07 20:18:21.711896300,2.218896240234375,1.4625053321778774,-0.1646206533581018,-1.698998943222314
2024-12-07 20:18:21.721910300,2.22891015625,1.3493255277216434,0.3482248241275549,-1.355080584117025
2024-12-07 20:18:21.731924200,2.23892431640625,0.9998866516292094,0.6144084939062595,-0.8304113978467881
2024-12-07 20:18:21.741938400,2.2489384765625,0.6597744068086147,0.7030845562249421,-0.2441725481744855
2024-12-07 20:18:21.751952400,2.258952392578125,0.5027637535301969,0.5999328093081713,0.3642971667999401
2024-12-07 20:18:21.761966300,2.26896630859375,0.6342611953675746,0.3175345023095607,0.8236158924877643
2024-12-07 20:18:21.771980300,2.278980224609375,0.8658136967480182,-0.0252729729443788,1.0734472701415418
2024-12-07 20:18:21.781994200,2.288994140625,0.8606184661924838,-0.2585918994754552,1.1689510595884174
2024-12-07 20:18:21.792008400,2.299008544921875,0.5996340820899233,-0.2682984699755907,1.162123843916878
2024-12-07 20:18:21.802021400,2.309021484375,0.1666471542170271,-0.1264689096182584,1.0059699901308865
2024-12-07 20:18:21.812035300,2.319035400390625,-0.3665233184168115,0.0595563508182764,0.7147037554133683
2024-12-07 20:18:21.822049300,2.32904931640625,-0.9379495431542396,0.0998871921628713,0.2901356780513189
2024-12-07 20:18:21.832063500,2.3390634765625,-1.3812778322994708,-0.0010223287850618,-0.1096573659511283
2024-12-07 20:18:21.842077200,2.3490771484375,-1.5816086814641952,-0.1162748478621244,-0.3394605394462123
2024-12-07 20:18:21.852091400,2.35909130859375,-1.3302946640372275,-0.2326876428902149,-0.3900254092311486
2024-12-07 20:18:21.862105300,2.369105224609375,-0.8422761692941189,-0.3182493725806474,-0.1975597222172655
2024-12-07 20:18:21.872119600,2.37911962890625,-0.4789163564095273,-0.4163730622023344,0.0524678355957381
2024-12-07 20:18:21.882133200,2.38913330078125,-0.3157984722971916,-0.4645651384413242,0.2271230127667076
2024-12-07 20:18:21.892147200,2.399147216796875,-0.2797545144915581,-0.4411638045877218,0.3816153448149562
2024-12-07 20:18:21.902161400,2.409161376953125,-0.3967150430629029,-0.3291647343486547,0.5243695822691544
2024-12-07 20:18:21.912175400,2.41917529296875,-0.663481444633007,-0.1413911689400672,0.8205089394483714
2024-12-07 20:18:21.922189300,2.429189208984375,-0.8583984520554542,0.0853068781465292,1.3049775596901774
2024-12-07 20:18:21.932203300,2.439203369140625,-0.9288988062143324,0.2589893743604421,1.772584403914958
2024-12-07 20:18:21.942217500,2.449217529296875,-0.918430019170046,0.4141676611125469,2.229002768518776
2024-12-07 20:18:21.952231400,2.4592314453125,-0.8380911386944353,0.5221902289360761,2.672109669998288
2024-12-07 20:18:21.962245000,2.4692451171875,-0.7964099056541919,0.6183195298701525,3.0628061468914147
2024-12-07 20:18:21.972258800,2.4792587890625,-0.7244411594431847,0.6516343549728393,3.368194868855178
2024-12-07 20:18:21.982272800,2.489272705078125,-0.5402058511633425,0.4600333402305841,3.500233395299315
2024-12-07 20:18:21.992287000,2.499286865234375,-0.3045711219705641,0.0815039787322282,3.517591941857338
2024-12-07 20:18:22.002300700,2.50930078125,-0.3038099283397197,-0.4310521604180335,3.3919434087112545
2024-12-07 20:18:22.012315000,2.51931494140625,-1.3833645754456518,-1.0248591803222895,2.9211379145756364
2024-12-07 20:18:22.022328800,2.529328857421875,-3.029178310316801,-1.4704051455169915,2.0499271810896693
2024-12-07 20:18:22.032342800,2.5393427734375,-4.028969100356102,-1.473236569550633,1.1592339676942676
2024-12-07 20:18:22.042356700,2.549356689453125,-3.4331764595925804,-0.974058967411518,0.4548550608098506
2024-12-07 20:18:22.052370700,2.55937060546875,-1.5382628762125967,0.2157148807793855,0.0241503986552357
2024-12-07 20:18:22.062385000,2.569385009765625,-0.0022352117061614,1.6824340312600137,-0.4339462744243443
2024-12-07 20:18:22.072398800,2.57939892578125,0.2866624672491103,2.7857898251920936,-0.9768621882639824
2024-12-07 20:18:22.082412800,2.589412841796875,-0.2034113160559907,3.5336107642441985,-1.362482677067071
2024-12-07 20:18:22.092425700,2.59942578125,-0.8205810548365116,3.7588907612264153,-1.8055422322735188
2024-12-07 20:18:22.102440000,2.60943994140625,-1.1323872426271435,3.471925000181794,-2.359155042824894
2024-12-07 20:18:22.112454000,2.619453857421875,-1.0314590169787403,2.9008167188197373,-2.85084886507988
2024-12-07 20:18:22.122467800,2.6294677734375,-0.6595604717969894,2.27588507733345,-3.0534526276126503
2024-12-07 20:18:22.132481800,2.639481689453125,-0.1675602139413356,1.6160674159049986,-2.909616403608024
2024-12-07 20:18:22.142495700,2.649495849609375,0.2700222250282764,1.0467249751716852,-2.41556023613587
2024-12-07 20:18:22.152510000,2.659510009765625,0.6033078386992216,0.6570031885296106,-1.7511413645222782
2024-12-07 20:18:22.162523600,2.669523681640625,0.7335165193676948,0.4270195439010858,-1.0833045742239802
2024-12-07 20:18:22.172537900,2.679537841796875,0.9420639927357436,0.2376607551276683,-0.5784767643034457
2024-12-07 20:18:22.182551800,2.6895517578125,1.317860129877925,-0.0334404973089694,0.0011430964873638
2024-12-07 20:18:22.192566000,2.69956591796875,1.7646376826941963,-0.2633896551460027,0.8510119220007211
2024-12-07 20:18:22.202579700,2.709579833984375,2.0831565198659896,-0.4680892209142446,1.599537136864662
2024-12-07 20:18:22.212594000,2.719593994140625,2.160586381027102,-0.5635241098433733,2.134076852025092
2024-12-07 20:18:22.222608000,2.72960791015625,1.7784288921594618,-0.5471154113560914,2.620632288478314
2024-12-07 20:18:22.232621800,2.739621826171875,1.2164706433933228,-0.6108206985473632,2.6278675004288554
2024-12-07 20:18:22.242635800,2.7496357421875,0.5614584094852209,-0.767220636048913,2.05444816564545
2024-12-07 20:18:22.252649700,2.759649658203125,-0.0420720955213531,-0.9284621683627368,1.2785564396239817
2024-12-07 20:18:22.262664000,2.769663818359375,-0.1699386335104704,-0.9528156883746384,0.7235008829183877
2024-12-07 20:18:22.272678000,2.779677978515625,-0.1521697525858879,-0.8251800730645656,0.3893059723827988
2024-12-07 20:18:22.282691800,2.78969189453125,-0.0983346837575547,-0.6175906310737133,0.1104188153102993
2024-12-07 20:18:22.292705800,2.799705810546875,-0.2247223265668377,-0.4464098885476589,-0.2384814969260245
2024-12-07 20:18:22.302719700,2.8097197265625,-0.2378752381285652,-0.3333066564589738,-0.4995364255141467
2024-12-07 20:18:22.312734000,2.81973388671875,0.0706453886527568,-0.4120055146425962,-0.7031685812465847
2024-12-07 20:18:22.322748000,2.829747802734375,0.3601888181656599,-0.7319996850639581,-0.9898805136606096
2024-12-07 20:18:22.332761900,2.839761962890625,0.3265186037540435,-1.2500064908355473,-1.415071380829811
2024-12-07 20:18:22.342775800,2.84977587890625,0.2114168913245201,-1.8840075739622115,-1.880328154797107
2024-12-07 20:18:22.352789800,2.859789794921875,0.7173767740149051,-2.620988554570079,-2.255787315069884
2024-12-07 20:18:22.362804000,2.869803955078125,1.4180278925478458,-3.325792189672589,-2.593017428582906
2024-12-07 20:18:22.372817000,2.87981689453125,1.5068980161339045,-3.673647595965862,-2.8674235677838324
2024-12-07 20:18:22.382830800,2.889830810546875,1.0414525877267122,-3.5092969917207952,-2.877816074721515
2024-12-07 20:18:22.392844800,2.8998447265625,-0.0261474176913499,-2.952159952566028,-2.610194773355126
2024-12-07 20:18:22.402858800,2.909858642578125,-2.0840046611279246,-2.3726246191203595,-1.9119794306017457
2024-12-07 20:18:22.412872700,2.919872802734375,-3.233257698360086,-1.713149487519264,-0.2297486668288707
2024-12-07 20:18:22.422887000,2.929886962890625,-1.8579419893354177,-1.222464988437295,1.8007500295609236
2024-12-07 20:18:22.432900900,2.93990087890625,0.8603923292864114,-1.3421803321421146,2.799223307260871
2024-12-07 20:18:22.442914800,2.949914794921875,3.127697721257805,-2.4686539668112992,2.001121064605564
2024-12-07 20:18:22.452928800,2.9599287109375,3.553468726402521,-3.70910527831614,0.725064040581882
2024-12-07 20:18:22.462942700,2.969942626953125,2.238255311641097,-3.2552900819480417,0.2470389704562723
2024-12-07 20:18:22.472957000,2.97995703125,0.3284562572857364,-0.6785065798074007,0.0849064806520938
2024-12-07 20:18:22.482970600,2.989970703125,-1.0581231520205736,2.903070635226369,-0.5369700110472738
2024-12-07 20:18:22.492984800,2.99998486328125,-1.045878587475419,6.976242449924349,-1.0657450252011418
2024-12-07 20:18:22.502998800,3.009998779296875,0.0331324725394137,10.458908624351023,-0.9450297106735408
2024-12-07 20:18:22.513013000,3.020012939453125,0.648516515213251,11.815006422686576,-0.2391181143291294
2024-12-07 20:18:22.523027000,3.03002685546875,-0.6199754803836345,9.160650436043738,0.2891702853515744
2024-12-07 20:18:22.533040600,3.04004052734375,-2.422515315970778,3.261220056518912,-1.0528364437893032
2024-12-07 20:18:22.543054800,3.050054931640625,-1.943582629480958,-0.8491396253228187,-2.337913371223211
2024-12-07 20:18:22.553068800,3.06006884765625,-0.8005529968082904,-3.596927344378829,-2.605956405133009
2024-12-07 20:18:22.563083000,3.0700830078125,-0.229138462508656,-5.73136747675836,-2.3992333707131444
2024-12-07 20:18:22.573096700,3.0800966796875,0.4972258835494518,-6.875235313820839,-1.7423571695640685
2024-12-07 20:18:22.583111000,3.09011083984375,1.669137911835313,-6.260233530196548,-0.893112038040161
2024-12-07 20:18:22.593124900,3.100124755859375,2.478085812023282,-4.050813267895579,-0.2352867925379425
2024-12-07 20:18:22.603138800,3.110138916015625,2.073966666716337,-1.496934256002307,0.2449745852723717
2024-12-07 20:18:22.613152800,3.12015283203125,0.824927559608221,0.5650397751033306,0.8311107782877981
2024-12-07 20:18:22.623166700,3.130166748046875,-0.6129612177073955,2.166668915811181,1.5445964631482958
2024-12-07 20:18:22.633180000,3.140179931640625,-1.4647487271904944,3.0930963634759188,1.997694597288221
2024-12-07 20:18:22.643193600,3.150193603515625,-1.5419710830807685,3.165274879980087,2.3150712786875665
2024-12-07 20:18:22.653207800,3.160207763671875,-0.9088485363543032,2.266291904079914,2.305830864394456
2024-12-07 20:18:22.663221800,3.1702216796875,-0.1837163989722728,0.66974225859344,1.7608160785794258
2024-12-07 20:18:22.673236000,3.180236083984375,-0.0848433705543167,-0.5755214216291904,1.0802399990215896
2024-12-07 20:18:22.683249700,3.190249755859375,-0.0317979907989501,-1.3535364234149456,0.1537181510716676
2024-12-07 20:18:22.693264000,3.200263916015625,-0.0835164875984191,-1.8297668652087449,-0.7860800886891782
2024-12-07 20:18:22.703277800,3.21027783203125,-0.044763855355978,-1.7869956449747084,-1.516440043722093
2024-12-07 20:18:22.713291800,3.220291748046875,0.2325952884316444,-1.2126795074820518,-1.905203945117444
2024-12-07 20:18:22.723306000,3.230305908203125,0.6217185977239161,-0.3356792308092117,-1.9325269824594256
2024-12-07 20:18:22.733319700,3.240319580078125,0.9225859698057174,0.5360632714658975,-1.6291674282357096
2024-12-07 20:18:22.743334000,3.250333984375,1.0065116227269173,1.2054758597135544,-1.1756149013917891
2024-12-07 20:18:22.753347800,3.260347900390625,0.9451239648282528,1.4491963532716037,-0.8246493271887302
2024-12-07 20:18:22.763362000,3.270362060546875,0.8838988040149212,1.031148635855317,-0.4524431773625314
2024-12-07 20:18:22.773375700,3.280375732421875,0.5570165545802563,0.3079296386182308,-0.1949905841153115
2024-12-07 20:18:22.783389700,3.2903896484375,-0.2323205631434917,-0.2306932542026042,-0.0856345757309347
2024-12-07 20:18:22.793404000,3.30040380859375,-0.777416451370716,-0.3944564139485359,0.1416202284555882
2024-12-07 20:18:22.803417900,3.31041796875,-0.5426596009910106,-0.3261415871351957,0.2772410703659057
2024-12-07 20:18:22.813431800,3.320431884765625,0.1025227282982319,-0.1772340512156486,0.2404369053101167
2024-12-07 20:18:22.823445800,3.33044580078125,0.6678326255798339,0.0519815316498279,0.2978466725537553
2024-12-07 20:18:22.833460000,3.3404599609375,0.9101976128757,0.2328232519686222,0.323887962989509
2024-12-07 20:18:22.843474000,3.350473876953125,0.6752888598699123,0.3617494916111231,0.3648832595922052
2024-12-07 20:18:22.853487600,3.360487548828125,0.1135411851145327,0.4421469704061746,0.3371218673655763
2024-12-07 20:18:22.863501800,3.370501708984375,-0.382667849542573,0.4846463879615068,0.2688496741175651
2024-12-07 20:18:22.873515800,3.380515869140625,-0.572691166639328,0.5061982945561408,0.1958106683265417
2024-12-07 20:18:22.883530000,3.390530029296875,-0.400840635092929,0.4105605765312909,0.1711604669230058
2024-12-07 20:18:22.893542700,3.400542724609375,-0.0293302124459296,0.0926262612491846,0.0478874307366088
2024-12-07 20:18:22.903556900,3.410556884765625,0.2194586704175919,-0.3478454694211483,-0.1919947267675772
2024-12-07 20:18:22.913570800,3.42057080078125,0.2347228750448673,-0.6747773301512002,-0.3789753882328048
2024-12-07 20:18:22.923585000,3.4305849609375,0.0500035095751285,-0.75510349727571,-0.4194997793881222
2024-12-07 20:18:22.933598700,3.4405986328125,-0.1536976928055286,-0.6799421655684709,-0.2671241654992103
2024-12-07 20:18:22.943613000,3.450613037109375,-0.1766120468597859,-0.6395733303010463,-0.1461287919212132
2024-12-07 20:18:22.953627000,3.460626953125,-0.0788134975392371,-0.3802963711708784,0.0770704897968098
2024-12-07 20:18:22.963640800,3.470640869140625,-0.0239023421783,-0.0634387452095747,0.3555024139150977
2024-12-07 20:18:22.973655600,3.480655517578125,-0.0178138891100883,0.1119803655385971,0.5429219782542437
2024-12-07 20:18:22.983669500,3.49066943359375,-0.0250982739645987,0.207060449680686,0.6361174176935106
2024-12-07 20:18:22.993683500,3.500683349609375,-0.0729660136200487,0.2749059054166078,0.5792343412050976
2024-12-07 20:18:23.003697700,3.51069775390625,-0.1010604006607085,0.3026800475269556,0.5081465425470844
2024-12-07 20:18:23.013711600,3.520711669921875,-0.1688999381124973,0.2717565014749765,0.4585432478033006
2024-12-07 20:18:23.023725600,3.5307255859375,-0.3484825982809066,0.2122714623272419,0.3466135164733976
2024-12-07 20:18:23.033739500,3.540739501953125,-0.5526479841072112,0.1733124938577413,0.3151110014896839
2024-12-07 20:18:23.043753700,3.550753662109375,-0.6170879422485828,0.1455629016667604,0.396519922349602
2024-12-07 20:18:23.053767700,3.560767578125,-0.4066822737932205,0.0449123239159584,0.4879579967275261
2024-12-07 20:18:23.063781400,3.570781494140625,-0.183717494950816,-0.0035614918738603,0.560197595769167
2024-12-07 20:18:23.073795600,3.580795654296875,-0.1060182422637939,0.0231149181276559,0.6934408948931843
2024-12-07 20:18:23.083809500,3.5908095703125,-0.0002700491130352,-0.2618576232731342,0.5711231501376256
2024-12-07 20:18:23.093823700,3.60082373046875,0.0323835356019437,-0.4601163423389196,0.3739354578368365
2024-12-07 20:18:23.103837400,3.61083740234375,-0.0529565141618251,-0.5013385795652866,0.2275876163374632
2024-12-07 20:18:23.113851600,3.6208515625,-0.1524141558010131,-0.4293091161429881,0.031547029978875
2024-12-07 20:18:23.123865600,3.630865478515625,-0.1332219640750438,-0.358989379248023,-0.2504548067817464
2024-12-07 20:18:23.133879600,3.640879638671875,-0.1034475149929523,-0.3906903394132852,-0.5829685227647423
2024-12-07 20:18:23.143892500,3.650892578125,-0.2608124981343746,-0.4243044397234916,-0.8265046727318316
2024-12-07 20:18:23.153906700,3.66090673828125,-0.4746294363379478,-0.4850847793787717,-0.8984855477720498
2024-12-07 20:18:23.163920600,3.670920654296875,-0.664226198585704,-0.3927905265629291,-0.8722964828960597
2024-12-07 20:18:23.173934600,3.6809345703125,-0.8847286789678037,-0.025287585991621,-0.7741339956339448
2024-12-07 20:18:23.183948500,3.690948486328125,-0.8756254811882972,0.2607610602080822,-0.8154693378459662
2024-12-07 20:18:23.193962500,3.70096240234375,-0.4516227278251201,0.4259650664120912,-0.7007138085056096
2024-12-07 20:18:23.203976700,3.710976806640625,-0.0922889921188354,0.3846691794276237,-0.4938584529429674
2024-12-07 20:18:23.213990700,3.72099072265625,0.0537504410184919,0.1625543684780597,-0.1709611084260046
2024-12-07 20:18:23.224004600,3.731004638671875,-0.0672353610135614,-0.1014770917028188,0.3080902725400403
2024-12-07 20:18:23.234018600,3.7410185546875,-0.4926129098612815,-0.4083160124748945,0.8161635306552052
2024-12-07 20:18:23.244032500,3.751032470703125,-0.7345335874557495,-0.657809828737378,1.316095750553906
2024-12-07 20:18:23.254046700,3.761046630859375,-0.6875228299558163,-0.7733557778030633,1.706928713308275
2024-12-07 20:18:23.264060400,3.771060302734375,-0.7845626698635518,-0.5632195739388466,1.9714454727880653
2024-12-07 20:18:23.274074600,3.78107470703125,-1.0132150658883154,0.2730243294537067,2.192636008499562
2024-12-07 20:18:23.284088600,3.791088623046875,-1.0625029745399952,1.5895827290832996,2.151222194223851
2024-12-07 20:18:23.294102800,3.801102783203125,-0.792791715157032,3.111584206324816,1.9309588563598687
2024-12-07 20:18:23.304116500,3.811116455078125,-0.5187735523603856,4.37921987735331,1.7086913390666243
2024-12-07 20:18:23.314130400,3.82113037109375,-0.5740121861100197,4.89372013630867,1.4298101002782582
2024-12-07 20:18:23.324144600,3.83114453125,-1.1186018783807754,4.36489792201221,1.1500424340441822
2024-12-07 20:18:23.334158600,3.84115869140625,-1.8885646527446804,3.074402184399962,0.6011092326764017
2024-12-07 20:18:23.344172500,3.851172607421875,-2.560330964511633,1.8635913933992383,-0.2928560611922294
2024-12-07 20:18:23.354186500,3.8611865234375,-2.421988807878644,0.7974152833044529,-0.918682021169737
2024-12-07 20:18:23.364200700,3.87120068359375,-1.5665338619291782,-0.1062017821371555,-0.9839148101892322
2024-12-07 20:18:23.374213600,3.881213623046875,-0.4684042782127857,-0.8400631694197654,-0.8527556969281286
2024-12-07 20:18:23.384227600,3.8912275390625,0.146151588274911,-1.45815473575294,-0.7871683223173022
2024-12-07 20:18:23.394241500,3.901241455078125,0.7848749506831169,-1.856901540371776,-0.7888461924016476
2024-12-07 20:18:23.404255700,3.911255859375,1.2893547508835792,-1.8014456106096504,-0.6533413050211966
2024-12-07 20:18:23.414269700,3.921269775390625,1.1315630667626857,-1.2014327218025922,-0.3502062072031199
2024-12-07 20:18:23.424283400,3.931283447265625,0.8220388524293899,-0.1722486640185117,-0.3788599816922098
2024-12-07 20:18:23.434297600,3.941297607421875,0.824213273859024,0.7977204037308693,-0.610726334794797
2024-12-07 20:18:23.444311600,3.9513115234375,1.0307587597548962,1.38831021515429,-0.5361394785072654
2024-12-07 20:18:23.454325800,3.96132568359375,0.9784650934159757,1.5779636029601096,-0.3841634949278086
2024-12-07 20:18:23.464339500,3.97133935546875,0.7972831813573836,1.42633804025352,-0.3665016911068931
2024-12-07 20:18:23.474353700,3.981353759765625,0.6801110923945903,0.9841963305443524,-0.2601239678809419
2024-12-07 20:18:23.484367600,3.99136767578125,0.7239362055957317,0.4312982441335916,-0.0349147893789224
2024-12-07 20:18:23.494381600,4.001381591796875,0.94856095353961,-0.0483136567920446,0.1335015847340226
2024-12-07 20:18:23.504395500,4.0113955078125,0.9995563967615364,-0.355595060634613,0.3876894040316343
2024-12-07 20:18:23.514409500,4.021409423828125,0.9928197819828988,-0.53188101734519,0.6268510652415454
2024-12-07 20:18:23.524423700,4.031423583984375,1.0065151298582553,-0.6315425840586424,0.6256332138843834
2024-12-07 20:18:23.534437600,4.041437744140625,0.9765139593482016,-0.6802601454764604,0.3833496212616563
2024-12-07 20:18:23.544451600,4.05145166015625,0.2739800410096533,-0.5728729529470205,0.0145331869389861
2024-12-07 20:18:23.554465500,4.061465576171875,-0.3978582948138937,-0.4377922823280096,-0.3481630840029567
2024-12-07 20:18:23.564479500,4.0714794921875,-0.2578589090257883,-0.4336626351773738,-0.4818902211211621
2024-12-07 20:18:23.574493700,4.08149365234375,0.289829333782196,-0.5015507610112429,-0.4900299076307565
2024-12-07 20:18:23.584507400,4.09150732421875,0.8528641988039016,-0.7475619958549737,-0.5032650175832212
2024-12-07 20:18:23.594520600,4.1015205078125,1.1247989794552329,-1.1614163532346486,-0.5640630390256643
2024-12-07 20:18:23.604534500,4.111534423828125,1.0933517017900942,-1.7040455590873955,-0.7252274144500493
2024-12-07 20:18:23.614548700,4.121548828125,0.9699602999210356,-2.107963628864288,-1.001109179161489
2024-12-07 20:18:23.624562400,4.1315625,0.868203222233057,-2.2162428017973896,-1.3428539936199784
2024-12-07 20:18:23.634576600,4.14157666015625,1.0280196901798249,-2.3103332903802394,-1.8372933151908213
2024-12-07 20:18:23.644590600,4.151590576171875,1.1978437573999166,-2.37338858923018,-2.350496227812022
2024-12-07 20:18:23.654604800,4.161604736328125,0.9804442845344544,-2.206529801556468,-2.539570500555634
2024-12-07 20:18:23.664618500,4.171618408203125,0.1647258307656273,-1.883409608069062,-2.186941450119764
2024-12-07 20:18:23.674632400,4.181632568359375,-1.0993623403817414,-1.52040923961401,-1.161672227691859
2024-12-07 20:18:23.684646700,4.191646728515625,-1.7509189539432524,-1.202846680253744,0.2594799343563616
2024-12-07 20:18:23.694660600,4.20166064453125,-1.2450561749517917,-1.134586213976145,1.487401873025298
2024-12-07 20:18:23.704674600,4.211674560546875,-0.6481394985944032,-1.599757501617074,1.6763995734013617
2024-12-07 20:18:23.714688500,4.2216884765625,-0.8166267642527818,-2.477091540288925,0.9819419757463036
2024-12-07 20:18:23.724702700,4.23170263671875,-1.062673070409894,-2.892994062370062,1.135543953092396
2024-12-07 20:18:23.734716700,4.241716552734375,-0.6768214031994343,-2.9704776995450257,1.4590570914201435
2024-12-07 20:18:23.744730400,4.25173046875,0.3047878517274744,-2.7273481576174494,1.6078699347935617
2024-12-07 20:18:23.754744600,4.26174462890625,1.1588368581354618,-1.9638304677397007,1.4365021452628075
2024-12-07 20:18:23.764758500,4.271758544921875,1.5012123717129229,0.1490741246581077,0.4201918898381293
2024-12-07 20:18:23.774772700,4.281772705078125,0.8768477164596319,3.4189930359393355,-1.1443319474428892
2024-12-07 20:18:23.784786400,4.291786376953125,0.5446183338433503,6.555490149724483,-1.9383730781391264
2024-12-07 20:18:23.794800600,4.301800537109375,-0.3338999461770057,8.357604453375934,-2.213573144196719
2024-12-07 20:18:23.804813600,4.3118134765625,-2.1443939556390044,9.194732738387584,-2.827456883576512
2024-12-07 20:18:23.814827800,4.321827880859375,-2.131899800246954,7.387581025090813,-3.1602105823278426
2024-12-07 20:18:23.824841500,4.331841552734375,-0.5729343642780557,2.6719337289094924,-3.5615035642981527
2024-12-07 20:18:23.834855700,4.341855712890625,0.505127413921617,-1.5953823552727695,-4.1753742980659005
2024-12-07 20:18:23.844869600,4.35186962890625,1.937981156212092,-4.04965533003211,-3.446724215690792
2024-12-07 20:18:23.854883600,4.361883544921875,2.8400673588246104,-4.86382417973876,-2.2413274125628173
2024-12-07 20:18:23.864897500,4.3718974609375,2.6516724466472863,-4.160123537442088,-1.602645770404488
2024-12-07 20:18:23.874911500,4.381911376953125,1.8430220681011675,-2.4320710798233747,-1.050071070729196
2024-12-07 20:18:23.884925700,4.39192578125,1.1919207970917225,-0.3507394372969865,0.1244046705648303
2024-12-07 20:18:23.894939600,4.401939697265625,0.5023252525150775,1.085588082051277,1.0858286858741193
2024-12-07 20:18:23.904953600,4.41195361328125,-0.1734580398082733,1.6355162127405405,1.5650167353644966
2024-12-07 20:18:23.914967600,4.421967529296875,-0.6445242307066917,1.469714240643382,1.77158764796257
2024-12-07 20:18:23.924981500,4.4319814453125,-0.8084919731140137,0.9085393242746592,1.7324267271801828
2024-12-07 20:18:23.934995700,4.44199560546875,-0.8714940804719924,0.1226677637696266,1.569497387909889
2024-12-07 20:18:23.945009400,4.452009521484375,-0.9408452645957468,-0.5387865589499473,1.4177730410039424
2024-12-07 20:18:23.955023600,4.462023681640625,-0.9563877016425132,-0.8874731553703546,1.0980278038423508
2024-12-07 20:18:23.965037600,4.47203759765625,-0.8189771267712116,-0.99460783444345,0.5716211993202567
2024-12-07 20:18:23.975051300,4.48205126953125,-0.2993103153655305,-0.937124198246002,-0.0110744978524744
2024-12-07 20:18:23.985065000,4.49206494140625,-0.1250339083790779,-0.8204056982696056,-0.4900577454857528
2024-12-07 20:18:23.995079200,4.5020791015625,-0.2671955137023702,-0.6019593466997146,-0.8318506368696689
2024-12-07 20:18:24.005093000,4.512093017578125,-0.1792705985445529,-0.2266582995980978,-0.9942198580391703
2024-12-07 20:18:24.015107000,4.522107177734375,0.145516651372239,0.1562298416316509,-0.9784462425850332
2024-12-07 20:18:24.025120000,4.5321201171875,0.4984522104740143,0.35091947003901,-0.935658509607613
2024-12-07 20:18:24.035134000,4.542134033203125,0.8826444931048899,0.3229378226578235,-0.8877424007657915
2024-12-07 20:18:24.045148200,4.552148193359375,1.1279682571411132,0.0873731630265712,-0.650962593191117
2024-12-07 20:18:24.055162000,4.562162109375,1.1672481281280518,-0.2007388454437255,-0.2932460103578865
2024-12-07 20:18:24.065176000,4.572176025390625,1.1273695605956018,-0.3945616278886795,0.2114992358457297
2024-12-07 20:18:24.075190000,4.58218994140625,0.9214601806461812,-0.4453606717556714,0.7635898783311247
2024-12-07 20:18:24.085204200,4.592204345703125,0.4668612134892493,-0.3263251270085573,1.1466263419903815
2024-12-07 20:18:24.095218200,4.60221826171875,-0.0430359355848282,0.0987766005724668,1.347211896568537
2024-12-07 20:18:24.105232100,4.612232177734375,-0.2613268773972988,0.6648463032454252,1.547977337758243
2024-12-07 20:18:24.115246000,4.62224609375,-0.392908673049882,1.1987480127632617,1.695200866113603
2024-12-07 20:18:24.125260000,4.632260009765625,-0.4925521926499903,1.4121113619804382,1.611872740694135
2024-12-07 20:18:24.135274200,4.642274169921875,-0.3814858732163906,1.2703870155632495,1.4556925834231078
2024-12-07 20:18:24.145288000,4.652287841796875,-0.1274082362949848,0.8591372877240181,1.3262106095939874
2024-12-07 20:18:24.155302100,4.66230224609375,0.1483716024119407,0.2622504219830036,1.1178776557594536
2024-12-07 20:18:24.165316000,4.672316162109375,0.2826128265321254,-0.4321715198367833,0.7527555459100752
2024-12-07 20:18:24.175330000,4.682330078125,0.1247463966745883,-1.004794297415018,0.2445758500120602
2024-12-07 20:18:24.185344000,4.692343994140625,-0.1394892077762633,-1.2767448601573703,-0.2630909279277548
2024-12-07 20:18:24.195358000,4.70235791015625,-0.2316390106201172,-1.236823184135556,-0.7098610646225512
2024-12-07 20:18:24.205372200,4.7123720703125,-0.1783295183021575,-0.9738847798883914,-1.095765484933555
2024-12-07 20:18:24.215386000,4.72238623046875,-0.0538847349226474,-0.6123065531909465,-1.4074047917246817
2024-12-07 20:18:24.225400000,4.732400146484375,0.0334849940378218,-0.2350795064628124,-1.555606809723377
2024-12-07 20:18:24.235413000,4.7424130859375,0.0261374808192253,0.0508709400594234,-1.5879988208927214
2024-12-07 20:18:24.245427200,4.75242724609375,-0.0419769280511885,0.2119026290148496,-1.420974905785173
2024-12-07 20:18:24.255441200,4.762441162109375,-0.0761924283206462,0.2349737080007791,-1.1309027762230486
2024-12-07 20:18:24.265455000,4.772455078125,-0.0313806421697139,0.1572737977266311,-0.7728744970921426
2024-12-07 20:18:24.275469000,4.782468994140625,0.1018997740942984,0.1143763207644224,-0.3130096452962607
2024-12-07 20:18:24.285483000,4.79248291015625,0.2609083597242832,0.1680249088436365,0.1237098019021563
2024-12-07 20:18:24.295497200,4.802497314453125,0.4939361212890595,0.2140583457440137,0.5445858563458547
2024-12-07 20:18:24.305511000,4.812510986328125,0.7897135498207062,0.2085480578899383,0.9668241207871584
2024-12-07 20:18:24.315525000,4.822525146484375,0.930197613853216,0.1538987683355808,1.2606783992365005
2024-12-07 20:18:24.325539000,4.8325390625,0.924490195991844,0.0142301854044198,1.3412733002997934
2024-12-07 20:18:24.335553300,4.84255322265625,0.7991442259889096,-0.1498608911216259,1.196022021865472
2024-12-07 20:18:24.345567000,4.85256689453125,0.5021322141610086,-0.2864607341319322,0.9378036318775266
2024-12-07 20:18:24.355581000,4.862580810546875,0.0276817876517772,-0.4254588704556226,0.5928188125845044
2024-12-07 20:18:24.365595100,4.87259521484375,-0.4048234211187809,-0.4859159695059061,0.2697083550398237
2024-12-07 20:18:24.375609000,4.882609130859375,-0.8173544940054416,-0.4114695080697536,-0.0219600398709531
2024-12-07 20:18:24.385623000,4.892623046875,-0.9315116921264678,-0.3601128303200006,-0.1346074179509188
2024-12-07 20:18:24.395637000,4.902636962890625,-0.6629974605083465,0.041156770774722,0.18529820653731
2024-12-07 20:18:24.405651200,4.912651123046875,-0.1772293750405311,0.2258247713834047,0.5011837177971378
2024-12-07 20:18:24.415664000,4.9226640625,0.3140646342419088,0.2364163080245256,0.6854322874173522
2024-12-07 20:18:24.425678000,4.932677978515625,0.6698270142674446,0.0911719707876443,0.68138703061454
2024-12-07 20:18:24.435692000,4.942692138671875,0.8647968478556722,-0.1155564704596996,0.4780046849247067
2024-12-07 20:18:24.445706200,4.952706298828125,0.698382223752886,-0.2629278828531503,0.2734856633551418
2024-12-07 20:18:24.455720200,4.96272021484375,0.1840296296399086,-0.4093956244051456,0.1333638750300742
2024-12-07 20:18:24.465734000,4.97273388671875,-0.5141944078765809,-0.580186490830779,0.0106230277579277
2024-12-07 20:18:24.475748000,4.982748046875,-1.3451555485606193,-0.5508119277864695,0.0336978696035221
2024-12-07 20:18:24.485762000,4.992761962890625,-2.292466794300079,-0.5081611190617085,0.2072008810646831
2024-12-07 20:18:24.495776300,5.0027763671875,-3.198983088314533,-0.5762210943311452,0.3629039588758722
2024-12-07 20:18:24.505790000,5.0127900390625,-3.9076901605963705,-0.7587596816956996,0.5144061143985018
2024-12-07 20:18:24.515804200,5.02280419921875,-4.092359330248833,-0.7464753696620464,0.7470289118915796
2024-12-07 20:18:24.525818000,5.032818115234375,-3.299350172948837,-0.6101017366230488,1.2196195358783006
2024-12-07 20:18:24.535832000,5.04283203125,-0.9048315557979046,-0.0375707289814949,1.4509228848032651
2024-12-07 20:18:24.545846000,5.052845947265625,0.1939713971354067,1.1922580662220716,1.721309120838344
2024-12-07 20:18:24.555860000,5.06285986328125,1.7929763268195091,3.00403977740705,2.26092833122015
2024-12-07 20:18:24.565874200,5.072874267578125,2.547479666244984,4.405239284750819,2.304994559700787
2024-12-07 20:18:24.575888100,5.08288818359375,1.3195616730988025,5.361044218069314,1.840607992696762
2024-12-07 20:18:24.585902000,5.092902099609375,-1.0954816995561123,4.932734634357691,1.068945282547176
2024-12-07 20:18:24.595916000,5.102916015625,-3.0385879436969754,4.113173570218682,0.8162922716014087
2024-12-07 20:18:24.605930000,5.112929931640625,-3.649970952302217,3.3415614212125537,1.0146509439103304
2024-12-07 20:18:24.615943200,5.122943115234375,-3.166633308851719,2.3015175312399863,0.7097877071253955
2024-12-07 20:18:24.625957000,5.13295703125,-2.37185889544487,1.032696449819207,-0.3567498566929251
2024-12-07 20:18:24.635971000,5.14297119140625,-1.8554747224390504,-0.1087321773976087,-1.5052952571123837
2024-12-07 20:18:24.645985000,5.152985107421875,-1.1910627189576626,-0.8775310225486754,-2.353352055634558
2024-12-07 20:18:24.655999200,5.162999267578125,0.36351178857591,-1.3122148174673318,-2.748101899571717
2024-12-07 20:18:24.666013000,5.173012939453125,2.1555016251087187,-1.4407681321442127,-2.7036218295931813
2024-12-07 20:18:24.676027100,5.183027099609375,3.0480525221347805,-1.258712944382429,-2.276255079689622
2024-12-07 20:18:24.686041000,5.193041015625,2.9927842238992453,-0.746677614235878,-1.8568952567614607
2024-12-07 20:18:24.696055300,5.20305517578125,2.392284428358078,-0.039774961027503,-1.54664959628582
2024-12-07 20:18:24.706069000,5.213069091796875,1.5140876353770494,0.6183581083148717,-1.1936064851563424
2024-12-07 20:18:24.716083000,5.2230830078125,0.838689542979002,1.1055769771128892,-0.745375883987546
2024-12-07 20:18:24.726097200,5.23309716796875,0.7142372338801622,1.2916741337418556,-0.314909304905124
2024-12-07 20:18:24.736111000,5.243111083984375,0.7174374912261963,1.1759878994226456,0.294155928277038
2024-12-07 20:18:24.746125000,5.253125,0.6916776115477085,0.737054045844078,0.7028604651454836
2024-12-07 20:18:24.756139000,5.263138916015625,0.6534224074333905,0.0389063614994287,0.5315866375084967
2024-12-07 20:18:24.766153200,5.2731533203125,0.4328600866228342,-0.6340437532246113,0.1457819877775386
2024-12-07 20:18:24.776167200,5.283167236328125,0.6289630889594554,-1.1219921053409576,-0.1822808132112026
2024-12-07 20:18:24.786180900,5.293180908203125,0.6670423519849776,-1.344327865564823,-0.4203214710345491
2024-12-07 20:18:24.796195000,5.303195068359375,0.6359031173557043,-1.323098615053296,-0.4729452826432883
2024-12-07 20:18:24.806208300,5.313208251953125,0.6102157549241557,-1.1998287937372922,-0.4110774034796282
2024-12-07 20:18:24.816222200,5.32322216796875,0.4367448191016912,-1.0979226629674437,-0.3360094126116484
2024-12-07 20:18:24.826236000,5.33323583984375,0.3050924424309283,-1.0347884536623957,-0.2636546627577394
2024-12-07 20:18:24.836250000,5.34325,0.2237702865390106,-0.9879226575911044,-0.2178237626921385
2024-12-07 20:18:24.846264000,5.35326416015625,0.2518471013903617,-0.9042080170720816,-0.197668717283383
2024-12-07 20:18:24.856278300,5.3632783203125,0.3727660487312823,-0.7575386154681444,-0.3067465663135051
2024-12-07 20:18:24.866292000,5.3732919921875,0.5009587134022265,-0.7416752759039401,-0.6359789590708911
2024-12-07 20:18:24.876306200,5.38330615234375,0.5747709685880691,-0.7646820574820041,-0.9661766897290944
2024-12-07 20:18:24.886320000,5.393320068359375,0.5772896734107286,-0.8345493744343518,-1.151807763216272
2024-12-07 20:18:24.896334000,5.403333984375,0.478077530965209,-1.0570827030569314,-1.1236199988037348
2024-12-07 20:18:24.906348000,5.41334814453125,0.3513702094811946,-1.3264882574915886,-0.9264915989421308
2024-12-07 20:18:24.916362000,5.423362060546875,0.254948647602275,-1.6028835246831177,-0.6834365835554898
2024-12-07 20:18:24.926376200,5.433376220703125,0.1253875441223383,-1.806491203561425,-0.5525979344204068
2024-12-07 20:18:24.936390100,5.44339013671875,-0.075123849241063,-1.882449238604307,-0.3871325008012354
2024-12-07 20:18:24.946404000,5.453404052734375,-0.4028237717341631,-1.7633832987189293,-0.1359098149195313
2024-12-07 20:18:24.956418000,5.46341796875,-0.6284422068905084,-1.4775392351806165,0.2039209826111793
2024-12-07 20:18:24.966432000,5.473431884765625,-0.7926279759626835,-1.1547416977763176,0.5089307882599532
2024-12-07 20:18:24.976446500,5.483446533203125,-0.8973591740906238,-0.7757944031268358,0.923239465278387
2024-12-07 20:18:24.986459100,5.493459228515625,-0.7560889281164854,-0.4423123901009559,1.2776288033850491
2024-12-07 20:18:24.996473300,5.503473388671875,-0.4288105189710855,-0.318608269020915,1.3942090639345348
2024-12-07 20:18:25.006487300,5.5134873046875,-0.2487847912102937,-0.5532236651033162,1.2283822496570649
2024-12-07 20:18:25.016501500,5.52350146484375,0.0593113630812615,-0.9544412437498568,1.2294818814620374
2024-12-07 20:18:25.026515200,5.53351513671875,0.5015350519854576,-1.2305880891382694,1.3037246370196345
2024-12-07 20:18:25.036529400,5.543529296875,0.6656559391278773,-1.38377841694355,1.2272061916150152
2024-12-07 20:18:25.046543400,5.55354345703125,0.5316191515386104,-1.4809551811039448,1.014548214188218
2024-12-07 20:18:25.056557300,5.563557373046875,0.3852016788691282,-1.5334142671376465,0.9299654125325382
2024-12-07 20:18:25.066571300,5.5735712890625,-0.1476863966267556,-1.448393804717064,0.9672985333658756
2024-12-07 20:18:25.076585200,5.583585205078125,-0.6874252148002385,-0.995325627323985,0.917705065896362
2024-12-07 20:18:25.086599400,5.593599365234375,-0.585836990873143,0.3469605032801628,0.3062808484978974
2024-12-07 20:18:25.096613400,5.60361328125,-0.4053752828478812,3.076157503634691,-0.664242199872434
2024-12-07 20:18:25.106627300,5.61362744140625,0.4335276106208562,6.24875761193633,-1.1976231003865598
2024-12-07 20:18:25.116641300,5.623641357421875,2.146027109798789,8.064830298313497,-0.8837510661073028
2024-12-07 20:18:25.126655200,5.6336552734375,1.5935241601854562,8.568920222413539,-1.5501318854436277
2024-12-07 20:18:25.136669400,5.64366943359375,-3.15741773673892,5.986334171473979,-3.9480002514138817
2024-12-07 20:18:25.146683100,5.65368310546875,-5.591133661159873,1.3764701397567989,-4.603003206036985
2024-12-07 20:18:25.156697300,5.663697265625,-2.577581959041953,-1.5288754546642302,-3.690765027244389
2024-12-07 20:18:25.166710300,5.673710205078125,0.7037864939492195,-3.630704526296258,-3.3693726804628965
2024-12-07 20:18:25.176724500,5.683724365234375,2.640747732529044,-4.74535854383409,-3.045024698746204
2024-12-07 20:18:25.186738200,5.69373828125,2.955715599220991,-4.570996833184362,-2.458276949703693
2024-12-07 20:18:25.196752400,5.70375244140625,2.34981365237534,-3.224676917019486,-1.5477164948649704
2024-12-07 20:18:25.206766300,5.713766357421875,2.2702724981486795,-1.2680395756542682,-0.5222796607851982
2024-12-07 20:18:25.216780500,5.723780517578125,1.761369036287069,0.2646457926869392,0.492684148466587
2024-12-07 20:18:25.226794200,5.733794189453125,0.816105955249071,1.0975532451331615,1.1416630935598164
2024-12-07 20:18:25.236808200,5.74380810546875,-0.0243412450522184,1.2257014861404896,0.965859732734412
2024-12-07 20:18:25.246822400,5.753822509765625,-0.1876870561689138,0.7829694093227386,0.3940559433888643
2024-12-07 20:18:25.256836400,5.76383642578125,-0.1799655402724631,0.2751420522600412,0.1972355865631252
2024-12-07 20:18:25.266850300,5.773850341796875,-0.2476736333643086,0.0347732072174549,0.0402864907462149
2024-12-07 20:18:25.276864300,5.7838642578125,-0.2297252859532833,-0.0921902079194784,-0.5864294038083404
2024-12-07 20:18:25.286878500,5.79387841796875,-0.3604267185747623,-0.1817518209010362,-1.1077231222961097
2024-12-07 20:18:25.296892400,5.803892333984375,-0.5472416680842638,-0.2939192334443331,-1.319480424556136
2024-12-07 20:18:25.306906000,5.813906005859375,-0.2358107433468103,-0.4275982205718755,-1.3291395026527344
2024-12-07 20:18:25.316920300,5.82392041015625,0.2542483173131942,-0.5077887786179781,-1.3401830208450556
2024-12-07 20:18:25.326934300,5.833934326171875,0.2363841593205928,-0.4929448452293872,-1.2940639514878391
2024-12-07 20:18:25.336948500,5.843948486328125,0.1380967944366391,-0.442041756466031,-0.967652972826734
2024-12-07 20:18:25.346961200,5.853961181640625,0.2643125786771997,-0.3981535149008035,-0.7295465197581797
2024-12-07 20:18:25.356975400,5.863975341796875,0.3181728002130985,-0.3887608326554298,-0.6932774479597806
2024-12-07 20:18:25.366989300,5.8739892578125,0.2892377976298332,-0.4355974026322364,-0.5955316517397761
2024-12-07 20:18:25.377003500,5.88400341796875,0.4640659567475318,-0.4718897822409868,-0.3644459641534835
2024-12-07 20:18:25.387017200,5.894017333984375,0.6190238787472248,-0.5031289701133966,-0.1940645553115755
2024-12-07 20:18:25.397031400,5.904031494140625,0.5522890146017074,-0.2479483403861522,0.0318149419337511
2024-12-07 20:18:25.407045400,5.91404541015625,0.5936907365808263,0.2660147429525852,0.3705778179720044
2024-12-07 20:18:25.417059300,5.924059326171875,0.7327145553350448,0.7571388024955987,0.4930025302333757
2024-12-07 20:18:25.427073300,5.9340732421875,0.959472808176279,0.9919131885319948,0.3075390683980658
2024-12-07 20:18:25.437087200,5.944087158203125,1.097757900859788,0.8946686198323964,0.0002156885772943
2024-12-07 20:18:25.447101400,5.954101318359375,1.0517525210101155,0.6106225456267594,-0.1773127424750477
2024-12-07 20:18:25.457115400,5.964115478515625,0.8678302972674369,0.2574713710129261,-0.2554297091174871
2024-12-07 20:18:25.467129300,5.97412939453125,0.7074316455185413,-0.1608914037019014,-0.2641355416098609
2024-12-07 20:18:25.477143300,5.984143310546875,0.6517874997079373,-0.5398375293076038,-0.3220244706725702
2024-12-07 20:18:25.487157200,5.9941572265625,0.5931939295072108,-0.7731435963571072,-0.539149620108679
2024-12-07 20:18:25.497171500,6.00417138671875,0.4266320789534598,-0.7964531602740287,-0.7437474060028791
2024-12-07 20:18:25.507185200,6.01418505859375,0.2598679107606411,-0.5523176561743021,-0.6842436621546745
2024-12-07 20:18:25.517199400,6.024199462890625,0.1409503663700073,0.0110123924016952,-0.2868084698573686
2024-12-07 20:18:25.527212300,6.03421240234375,-0.0800796450175344,0.6760492497831583,0.1851618485402315
2024-12-07 20:18:25.537226500,6.0442265625,-0.2977227904457599,1.14157008151412,0.5080472103584558
2024-12-07 20:18:25.547240200,6.054240234375,-0.4163035040974617,1.2222077988058329,0.6106098322756588
2024-12-07 20:18:25.557254400,6.06425439453125,-0.4043197093803435,0.947415875157714,0.5849534495042636
2024-12-07 20:18:25.567268400,6.074268310546875,-0.1969699213642627,0.4666232400149107,0.5262258045950904
2024-12-07 20:18:25.577282300,6.0842822265625,-0.0336498292107135,-0.1822369740694761,0.3573804096814245
2024-12-07 20:18:25.587296300,6.094296142578125,0.0990122359592467,-0.7231471010446548,0.1510693535959348
2024-12-07 20:18:25.597310200,6.104310302734375,0.244740411190316,-1.0360247174590826,-0.0101334861087379
2024-12-07 20:18:25.607324400,6.114324462890625,0.396655458362773,-1.0530430722773074,0.0179768793857656
2024-12-07 20:18:25.617338400,6.12433837890625,0.5014402863740921,-0.822726834693551,0.2093418386161327
2024-12-07 20:18:25.627352300,6.134352294921875,0.4963958624660968,-0.312121829611063,0.516873783153668
2024-12-07 20:18:25.637366300,6.1443662109375,0.4135154077488929,0.2851969978064298,0.8285152088366449
2024-12-07 20:18:25.647380500,6.15438037109375,0.3296246800106018,0.6963280677020549,1.0726787699870766
2024-12-07 20:18:25.657394400,6.16439453125,0.2784487656552344,0.8181231402903795,1.1544615656606851
2024-12-07 20:18:25.667408100,6.174408203125,0.3332359293103218,0.7169044072628021,1.1878540591094642
2024-12-07 20:18:25.677422300,6.18442236328125,0.3161574418026954,0.4534253202676773,1.1017340379491447
2024-12-07 20:18:25.687436300,6.194436279296875,0.0942798736751079,0.082945994234085,0.8609003518737852
2024-12-07 20:18:25.697449500,6.204449462890625,-0.1307189682781696,-0.3005617401987314,0.6428501600146294
2024-12-07 20:18:25.707463200,6.214463134765625,-0.147806808136031,-0.5402589695900678,0.4968937289856374
2024-12-07 20:18:25.717477400,6.224477294921875,0.0213876559436321,-0.4928144968479871,0.4569178385585546
2024-12-07 20:18:25.727491300,6.2344912109375,0.2310334459424018,-0.2236883438766002,0.4101226600380614
2024-12-07 20:18:25.737505500,6.244505615234375,0.3878887259960174,0.0975403367757797,0.2601455951908603
2024-12-07 20:18:25.747519200,6.254519287109375,0.386173738771677,0.28646482578516,0.1512982304483652
2024-12-07 20:18:25.757533200,6.264533203125,0.3158510062020271,0.3634609717041254,0.1440879702759906
2024-12-07 20:18:25.767547400,6.27454736328125,0.313935089578107,0.3242015589833259,0.2901543644854799
2024-12-07 20:18:25.777561300,6.284561279296875,0.3597041033886373,0.1452291396677494,0.4212943346546962
2024-12-07 20:18:25.787575300,6.2945751953125,0.3385737101417034,-0.2113297975629568,0.3363342971844598
2024-12-07 20:18:25.797589200,6.30458935546875,0.2879259843789041,-0.5273351906090975,0.185464557813853
2024-12-07 20:18:25.807603500,6.314603515625,0.1522937442917376,-0.7131342410743237,0.0383375851681455
2024-12-07 20:18:25.817617400,6.324617431640625,-0.1065022263884544,-0.7972481100440025,-0.1460402368549257
2024-12-07 20:18:25.827631400,6.33463134765625,-0.4063105178713798,-0.8130383843719958,-0.3076348569227382
2024-12-07 20:18:25.837645300,6.344645263671875,-0.7499884192842989,-0.7338385909289121,-0.319293438273482
2024-12-07 20:18:25.847659300,6.3546591796875,-1.0070178186833858,-0.6001227789223194,-0.2586461504133418
2024-12-07 20:18:25.857673500,6.364673583984375,-1.1760358302175995,-0.4102595477581024,-0.1074064817517995
2024-12-07 20:18:25.867686100,6.37468603515625,-1.323598381268978,-0.185970899900794,0.1552094490753486
2024-12-07 20:18:25.877700400,6.384700439453125,-1.426499952816963,-0.0993611224621534,0.438073145096004
2024-12-07 20:18:25.887714300,6.39471435546875,-1.4570413676835596,-0.0473480266302824,0.7704766421701759
2024-12-07 20:18:25.897728500,6.404728515625,-1.3939397454738616,-0.043816345372796,1.1028938755087554
2024-12-07 20:18:25.907742200,6.4147421875,-1.2474303567372262,-0.1764133824825286,1.3935077837973833
2024-12-07 20:18:25.917756400,6.42475634765625,-1.1338448940895498,-0.3251876474112272,1.6120438594773412
2024-12-07 20:18:25.927770400,6.434770263671875,-1.138989855762571,-0.4080138146579265,1.6070862370699643
2024-12-07 20:18:25.937784300,6.444784423828125,-1.3199053719699383,-0.3172404877990484,1.5886799350246783
2024-12-07 20:18:25.947798300,6.45479833984375,-1.5873019246697424,0.0788759683161973,1.6978855751529336
2024-12-07 20:18:25.957812200,6.464812255859375,-1.8409587058305736,0.8830968399822712,2.007442522712052
2024-12-07 20:18:25.967826400,6.474826416015625,-2.000833479835838,2.2020710685819385,2.4549933979883787
2024-12-07 20:18:25.977839400,6.48483935546875,-2.0078936274804176,3.798399764794111,2.802785091395676
2024-12-07 20:18:25.987853600,6.494853515625,-2.0618787540376187,5.181206706357002,2.923840451532602
2024-12-07 20:18:25.997867500,6.504867431640625,-2.2081413284063336,5.701775471571088,2.736739670819044
2024-12-07 20:18:26.007881700,6.5148818359375,-2.248366955810785,4.93965478900969,2.154695861683786
2024-12-07 20:18:26.017895400,6.5248955078125,-2.182217782598734,3.861305426040292,1.659974654431641
2024-12-07 20:18:26.027909600,6.53490966796875,-2.307333524042368,3.117499567848444,1.6288661072015762
2024-12-07 20:18:26.037922600,6.544922607421875,-2.424336101657152,2.268147176557779,1.5015598699763415
2024-12-07 20:18:26.047936800,6.554936767578125,-2.2273393653512,1.343432962551713,1.0121562044851482
2024-12-07 20:18:26.057950500,6.564950439453125,-1.811846008592844,0.1829670419096946,0.2648992559913545
2024-12-07 20:18:26.067964700,6.574964599609375,-2.0097113444268704,-0.8183195396453141,-0.4498043898241594
2024-12-07 20:18:26.077978600,6.584978515625,-2.54260007750988,-1.5243272898405789,-1.2223434809494762
2024-12-07 20:18:26.087992600,6.59499267578125,-1.6591291435182094,-1.9336182848274703,-1.9843172293208533
2024-12-07 20:18:26.098006500,6.605006591796875,1.3595698583602904,-2.133490284308791,-2.697614990393818
2024-12-07 20:18:26.108020500,6.6150205078125,4.538118061411381,-2.049691472637653,-3.1708281301930543
2024-12-07 20:18:26.118034700,6.62503466796875,5.733900794628262,-1.4355916062891485,-3.201589471420645
2024-12-07 20:18:26.128048600,6.635048583984375,5.3310763653069735,-0.3591822714716196,-2.9830931432291865
2024-12-07 20:18:26.138062600,6.6450625,3.386199604362249,0.9893377850860356,-2.314625873007625
2024-12-07 20:18:26.148076500,6.65507666015625,0.915654709237814,1.8792127409011123,-1.5750893626980482
2024-12-07 20:18:26.158090500,6.665090576171875,-0.1626905986109748,1.833332448735833,-1.1481620271250603
2024-12-07 20:18:26.168104700,6.675104736328125,0.3152776632934808,1.3407517606437205,-0.5880575895320623
2024-12-07 20:18:26.178118400,6.685118408203125,0.8567249658852815,0.6636749213784933,-0.1249954029995948
2024-12-07 20:18:26.188132600,6.695132568359375,1.2359119145095347,-0.1410924782544374,-0.3101849067317321
2024-12-07 20:18:26.198145500,6.7051455078125,1.3704963260442018,-0.8636053730487823,-0.5930104261664674
2024-12-07 20:18:26.208159700,6.71515966796875,1.3366121766209602,-1.429459971666336,-0.627039135159552
2024-12-07 20:18:26.218173400,6.72517333984375,1.2303864290863276,-1.7686638694703578,-0.4864800331294536
2024-12-07 20:18:26.228187600,6.735187744140625,1.0689305233694613,-1.8443799124509093,-0.4194247048579156
2024-12-07 20:18:26.238201600,6.74520166015625,0.9087194300819188,-1.7264070284992454,-0.3948756622739136
2024-12-07 20:18:26.248215600,6.755215576171875,0.6949503496080637,-1.546017143601179,-0.4466804491173475
2024-12-07 20:18:26.258229500,6.7652294921875,0.4901549222499132,-1.4853361726671457,-0.5614477419607341
2024-12-07 20:18:26.268243500,6.775243408203125,0.3947423182178288,-1.5163544112652538,-0.605628609796986
2024-12-07 20:18:26.278257700,6.785257568359375,0.4335082483332604,-1.536581791257858,-0.6929002852104604
2024-12-07 20:18:26.288271600,6.795271728515625,0.4882061262696981,-1.5998866809546946,-0.8661164060216396
2024-12-07 20:18:26.298285600,6.80528564453125,0.5131488443464041,-1.6818413260638714,-1.0526454512618482
2024-12-07 20:18:26.308299500,6.815299560546875,0.4057810141045599,-1.7822388058364391,-1.1120479997579007
2024-12-07 20:18:26.318313500,6.8253134765625,-0.0805804341465234,-1.827151714274287,-1.1539010091684758
2024-12-07 20:18:26.328327700,6.83532763671875,-0.39799218685925,-1.7975708150029182,-1.230820582719892
2024-12-07 20:18:26.338341400,6.84534130859375,-0.6433960303943603,-1.5955249786138537,-0.9847956116117536
2024-12-07 20:18:26.348355600,6.85535546875,-1.1779261740088462,-1.2235177123606205,-0.3846504747271537
2024-12-07 20:18:26.358369500,6.86536962890625,-1.521451442143321,-0.7320318337678909,0.6076025402184575
2024-12-07 20:18:26.368382700,6.8753828125,-1.6650322300821545,-0.2650280700027942,1.615555959251523
2024-12-07 20:18:26.378396400,6.885396484375,-1.4748790760606527,0.0181722010284662,2.142270095352828
2024-12-07 20:18:26.388410600,6.89541064453125,-0.8935703032016754,0.0912175634950399,2.4427093782156706
2024-12-07 20:18:26.398424600,6.905424560546875,-0.2050795049965381,0.0395528427094221,2.841430463871359
2024-12-07 20:18:26.408438800,6.915438720703125,0.4661082031648605,-0.2586082660883665,2.819424968290329
2024-12-07 20:18:26.418452500,6.925452392578125,1.314965577480197,-1.1778098541527986,2.013294755871594
2024-12-07 20:18:26.428466400,6.935466552734375,2.67839094222486,-2.621573660981655,0.656507367836684
2024-12-07 20:18:26.438480600,6.945480712890625,3.695146895590424,-4.20745402841568,-1.2826735195539891
2024-12-07 20:18:26.448494600,6.95549462890625,2.468300331068039,-4.852531216830015,-3.566323239539563
2024-12-07 20:18:26.458508500,6.965508544921875,-0.5107125571101904,-2.023095726656914,-5.211229504176974
2024-12-07 20:18:26.468522500,6.9755224609375,-2.440755906060338,3.950811509442329,-5.113927652332187
2024-12-07 20:18:26.478536700,6.98553662109375,-0.0304600201934576,8.650591958928107,-2.5957564981579777
2024-12-07 20:18:26.488550700,6.995550537109375,3.4506969187140464,11.085067177283763,0.3329977366402745
2024-12-07 20:18:26.498564600,7.005564697265625,3.865340965166688,11.628581349277496,-0.2746292804323136
2024-12-07 20:18:26.508578600,7.01557861328125,-1.7838088316321372,6.69235068949759,-4.081053507858514
2024-12-07 20:18:26.518592500,7.025592529296875,-3.4799954939126967,0.2849883234918117,-5.182675609865784
2024-12-07 20:18:26.528605400,7.03560546875,0.0837730927079915,-3.1089053425043818,-4.1528818957507605
2024-12-07 20:18:26.538619400,7.045619384765625,1.7457956195801496,-5.1739013517797,-3.065515698111057
2024-12-07 20:18:26.548633600,7.055633544921875,2.378675589722395,-5.874069728296995,-2.67689076679498
2024-12-07 20:18:26.558647600,7.0656474609375,2.755742477452755,-4.594913715344667,-2.757102659890056
2024-12-07 20:18:26.568661800,7.075661865234375,2.096655468386412,-2.262213110333681,-2.207397232040763
2024-12-07 20:18:26.578675500,7.085675537109375,0.7273398765593767,-0.2769184142827987,-1.0469427095755934
2024-12-07 20:18:26.588689700,7.095689697265625,-0.7631342435181141,1.0972954709798095,0.3057427230332046
2024-12-07 20:18:26.598703600,7.10570361328125,-1.4489432552933692,1.790157323876023,1.2781518043458462
2024-12-07 20:18:26.608717600,7.115717529296875,-1.6207973670363425,1.7518991971522568,1.794083557409048
2024-12-07 20:18:26.618731500,7.1257314453125,-1.7047265270888805,1.13483755838871,2.1485925763726232
2024-12-07 20:18:26.628745500,7.135745361328125,-1.5068343032479286,0.3149655286043882,2.3871038108497857
2024-12-07 20:18:26.638759700,7.145759765625,-1.0255623601555823,-0.3524567626088857,2.5697388443261384
2024-12-07 20:18:26.648773600,7.155773681640625,-0.5734393546581268,-0.6251958453804254,2.432312487363815
2024-12-07 20:18:26.658787600,7.16578759765625,-0.2594914421310648,-0.5383545972734689,1.933485598358512
2024-12-07 20:18:26.668801500,7.175801513671875,-0.0687035338699817,-0.3375613912940025,1.1388257512420414
2024-12-07 20:18:26.678815500,7.1858154296875,-0.1006476551413536,-0.2840098338484764,0.3041600934842601
2024-12-07 20:18:26.688829700,7.19582958984375,-0.2300210905620828,-0.3894289411753416,-0.4490102072391658
2024-12-07 20:18:26.698842600,7.205842529296875,-0.1523135449707508,-0.4952501995623111,-0.8324316516280174
2024-12-07 20:18:26.708856600,7.215856689453125,-0.0259842995515093,-0.4797831658393144,-0.8835260982450097
2024-12-07 20:18:26.718870500,7.22587060546875,-0.0973954118797555,-0.3252887696981429,-0.7731805673666298
2024-12-07 20:18:26.728884700,7.235884765625,-0.3605284253835678,-0.0015320318728685,-0.5718095614992081
2024-12-07 20:18:26.738898400,7.2458984375,-0.5248539317199961,0.2960217586815357,-0.3322453473703936
2024-12-07 20:18:26.748912600,7.25591259765625,-0.5854407946297898,0.4611304878175258,-0.1553742659819312
2024-12-07 20:18:26.758926600,7.265926513671875,-0.3909084026107564,0.4727765019476413,-0.0527992229745723
2024-12-07 20:18:26.768940800,7.27594091796875,-0.1077297223567962,0.3474117541790008,0.1123417461968958
2024-12-07 20:18:26.778954500,7.28595458984375,0.1970353147506713,0.1040004727005958,0.2043775307396426
2024-12-07 20:18:26.788968400,7.295968505859375,0.6174994456589221,-0.1758183391988277,0.1414789020224474
2024-12-07 20:18:26.798982700,7.305982666015625,0.915596183983609,-0.4076578408271074,0.0505165188648737
2024-12-07 20:18:26.808996600,7.31599658203125,0.8979822013597935,-0.5314771127194166,0.0163437800249084
2024-12-07 20:18:26.819010600,7.326010498046875,0.6725263363540173,-0.4966179807841777,0.0668746470755431
2024-12-07 20:18:26.829024500,7.3360244140625,0.3780254305642098,-0.3370154478490352,0.0903509001957252
2024-12-07 20:18:26.839038700,7.346038818359375,0.0238625216245651,-0.1067576624542474,0.1229680070915259
2024-12-07 20:18:26.849052700,7.356052734375,-0.197563722538948,0.1540127501040697,0.2341344258987344
2024-12-07 20:18:26.859065600,7.366065673828125,-0.2480430329322814,0.3517705339103937,0.3408179088719189
2024-12-07 20:18:26.869079600,7.37607958984375,-0.186201712981984,0.4702408459901809,0.4080112573746591
2024-12-07 20:18:26.879093800,7.38609375,-0.1150678832251578,0.4342956723839044,0.3872551773328334
2024-12-07 20:18:26.889107500,7.396107421875,-0.111093134375289,0.3099930008888244,0.2873268129093572
2024-12-07 20:18:26.899121400,7.406121337890625,-0.0762123020648956,0.156458974212408,0.1938105622841976
2024-12-07 20:18:26.909135600,7.416135498046875,-0.0026559944014996,-0.0521574727386236,0.186188561239466
2024-12-07 20:18:26.919149600,7.426149658203125,0.0952783101279288,-0.2536895143866539,0.1130867376116104
2024-12-07 20:18:26.929163800,7.436163818359375,0.1869510700445622,-0.3998685021251439,-0.0200484066965058
2024-12-07 20:18:26.939177500,7.446177490234375,0.2937480415958911,-0.490061983269453,-0.1393201165533624
2024-12-07 20:18:26.949191700,7.456191650390625,0.3679530224263668,-0.4888607907861471,-0.2181055022429674
2024-12-07 20:18:26.959205600,7.46620556640625,0.4142915797531604,-0.4101823908686637,-0.2651232374729588
2024-12-07 20:18:26.969219600,7.476219482421875,0.4015969333529472,-0.2228957321941852,-0.2637374091377482
2024-12-07 20:18:26.979234000,7.486234130859375,0.3256943548243493,0.0894821180045604,-0.1430163224564865
2024-12-07 20:18:26.989248000,7.496248046875,0.3249216899514198,0.4652987134128808,0.0308700257664546
2024-12-07 20:18:26.999262200,7.50626220703125,0.4456300632815808,0.7356412564367055,0.1962341909682378
2024-12-07 20:18:27.009276200,7.516276123046875,0.4723462207715958,0.7520733357995748,0.2972410348108038
2024-12-07 20:18:27.019289000,7.5262890625,0.3297428264975547,0.6131102707892656,0.4621129960488527
2024-12-07 20:18:27.029303000,7.536302978515625,0.2293698966443538,0.3147410721987486,0.6253573926176875
2024-12-07 20:18:27.039317200,7.546317138671875,0.2124420696537941,-0.0990010569781064,0.5831886683214456
2024-12-07 20:18:27.049331200,7.556331298828125,0.281453062037751,-0.4019137442171573,0.4468179578918963
2024-12-07 20:18:27.059345000,7.566344970703125,0.3746748780272901,-0.5311988802999258,0.265631004332006
2024-12-07 20:18:27.069359000,7.576359130859375,0.4013759840786456,-0.4848199909627437,0.0727544532286003
2024-12-07 20:18:27.079373000,7.586373046875,0.4833832361578941,-0.3995926077932119,-0.1557750105362385
2024-12-07 20:18:27.089387300,7.59638720703125,0.616268369494006,-0.2208130807012319,-0.2455600570101291
2024-12-07 20:18:27.099401000,7.60640087890625,0.6245102012038231,0.007025368592143,-0.1710194144845008
2024-12-07 20:18:27.109415200,7.616415283203125,0.5321849687278271,0.1187660801559686,-0.0283512113459408
2024-12-07 20:18:27.119429000,7.62642919921875,0.3109972825605422,0.114423667037487,0.0815931913856417
2024-12-07 20:18:27.129443000,7.636443115234375,0.0056990884244441,-0.0084732293128967,0.1857566726282238
2024-12-07 20:18:27.139457000,7.64645703125,-0.3257353444218635,-0.1759808362841606,0.3449246135383844
2024-12-07 20:18:27.149471000,7.656470947265625,-0.5365501782000065,-0.3230103033721447,0.5536430595591664
2024-12-07 20:18:27.159485200,7.666485107421875,-0.6964625077366828,-0.3875573020845651,0.7827068859290331
2024-12-07 20:18:27.169497900,7.676497802734375,-0.8011364227194339,-0.3789309280365705,0.929869697073102
2024-12-07 20:18:27.179512000,7.686511962890625,-0.8494600163836031,-0.2970084316313267,0.9928452086851
2024-12-07 20:18:27.189526000,7.696526123046875,-0.9049227412126958,-0.1536655441015958,0.9459703525245188
2024-12-07 20:18:27.199540200,7.706540283203125,-0.9338894541084766,0.0060416182518005,0.8850704050775617
2024-12-07 20:18:27.209554200,7.71655419921875,-0.9790179049931466,0.1343681384354829,0.8088958777397871
2024-12-07 20:18:27.219568000,7.726568115234375,-1.0992177442792803,0.2347381456792354,0.8099781930837779
2024-12-07 20:18:27.229582000,7.73658203125,-1.2504022121548652,0.2552121939092874,0.8294688562996685
2024-12-07 20:18:27.239596000,7.746595947265625,-1.4150563293911516,0.2371978137910366,0.8912341153390705
2024-12-07 20:18:27.249610200,7.7566103515625,-1.543417190235853,0.2126104850232601,1.064854067710787
2024-12-07 20:18:27.259624000,7.7666240234375,-1.7225382242418823,0.1318874275356531,1.354180858798325
2024-12-07 20:18:27.269638100,7.77663818359375,-1.955741123177856,-0.1073415998220443,1.7416412763796745
2024-12-07 20:18:27.279652000,7.786652099609375,-2.1082478526331485,-0.2888748095363378,2.205273810146004
2024-12-07 20:18:27.289666000,7.796666015625,-2.080065568113327,-0.0465676899075508,2.783118560156226
2024-12-07 20:18:27.299680000,7.806679931640625,-1.929804864019156,0.7426713012039661,3.366660791155696
2024-12-07 20:18:27.309694000,7.81669384765625,-1.7536099465928972,2.072142958420515,3.797873110571504
2024-12-07 20:18:27.319708200,7.826708251953125,-1.2617851914346216,3.5706793889224526,3.842708569858968
2024-12-07 20:18:27.329721000,7.83672119140625,-0.486941805422306,4.716728077155351,3.370017115846276
2024-12-07 20:18:27.339735000,7.846735107421875,0.3578570872824639,5.0460348503232,2.073569484092295
2024-12-07 20:18:27.349749000,7.8567490234375,0.4943991356909274,4.368804866322875,0.1983165867328643
2024-12-07 20:18:27.359763200,7.86676318359375,-0.3644377077817917,3.3280782547831533,-1.0232353785127402
2024-12-07 20:18:27.369777000,7.87677685546875,-1.513928060901165,2.179152549809217,-1.477240836755931
2024-12-07 20:18:27.379791000,7.886791015625,-2.499326752972603,0.8214654364556073,-1.712269197553396
2024-12-07 20:18:27.389805000,7.89680517578125,-3.239994313138723,-0.4191910422325134,-1.9789254532799123
2024-12-07 20:18:27.399819000,7.906819091796875,-3.428853335696459,-1.3582178592294454,-2.138860140778869
2024-12-07 20:18:27.409833200,7.916833251953125,-2.165221055090427,-1.9729957709699868,-2.069962691771984
2024-12-07 20:18:27.419847000,7.926846923828125,0.6892097601294517,-2.3737761272430418,-2.002708187666536
2024-12-07 20:18:27.429861000,7.936861083984375,3.501145833969116,-2.3781255546242,-2.053076731161773
2024-12-07 20:18:27.439875000,7.946875,4.661130693095922,-1.7611913416326046,-2.158960387260467
2024-12-07 20:18:27.449889300,7.95688916015625,4.500739640131592,-0.7767869212955236,-2.439050855708122
2024-12-07 20:18:27.459903000,7.966903076171875,3.7989737652897833,0.2795592841804027,-2.31681783009395
2024-12-07 20:18:27.469917200,7.976917236328125,2.5404566357404,1.33780635484159,-1.378413528909534
2024-12-07 20:18:27.479930000,7.98693017578125,0.7408850023090839,2.01224816942811,-0.6373847342155874
2024-12-07 20:18:27.489944000,7.996944091796875,-0.593995272485353,2.1216852802246806,-0.5077163344362751
2024-12-07 20:18:27.499958000,8.0069580078125,-0.8666443023532628,1.7201742715895174,-0.4212690540829673
2024-12-07 20:18:27.509972000,8.016971923828125,-0.3464753135791048,1.0144447538137435,-0.2841921681454405
2024-12-07 20:18:27.519986200,8.026986083984376,0.4237404126325622,0.1942050597608089,-0.2312448236707598
2024-12-07 20:18:27.530000000,8.036999755859375,0.8518103058367967,-0.5628893190711737,-0.3414453200552612
2024-12-07 20:18:27.540014000,8.04701416015625,0.9670096334218978,-1.1501309891104698,-0.5330206523669884
2024-12-07 20:18:27.550028000,8.057028076171875,0.9795587338715792,-1.4289578673630952,-0.6035383960520848
2024-12-07 20:18:27.560042200,8.067042236328126,0.8979758446842432,-1.430769300699234,-0.6308906229559331
2024-12-07 20:18:27.570056000,8.077055908203125,0.7642740612030029,-1.2766606890052556,-0.6324598450340331
2024-12-07 20:18:27.580070100,8.087070068359376,0.5267413163691759,-1.0900444769382476,-0.5950983748890459
2024-12-07 20:18:27.590084000,8.097083984375,0.3025362916747108,-0.970174234932661,-0.6060458488283679
2024-12-07 20:18:27.600098000,8.10709814453125,0.1516285583812743,-0.9674106154382228,-0.6386470823016017
2024-12-07 20:18:27.610112300,8.1171123046875,0.1561860024899244,-1.0638742628932,-0.7012082409590482
2024-12-07 20:18:27.620126000,8.1271259765625,0.3201216692585498,-1.2216542565762996,-0.8658189574450254
2024-12-07 20:18:27.630140200,8.13714013671875,0.5124439840126782,-1.3414619547396898,-1.0036337292030453
2024-12-07 20:18:27.640153000,8.147153076171875,0.6454974596530199,-1.418601893043518,-1.0950246034383773
2024-12-07 20:18:27.650167000,8.1571669921875,0.7350368608027696,-1.3617448643118142,-1.1199579691648482
2024-12-07 20:18:27.660181000,8.167180908203125,0.7683201217234135,-1.2458172224521635,-1.102784569915384
2024-12-07 20:18:27.670195200,8.1771953125,0.7031214541692287,-1.012448027038574,-1.002153354452178
2024-12-07 20:18:27.680209200,8.187209228515625,0.5320873535722493,-0.7307640057891607,-0.8399738106358796
2024-12-07 20:18:27.690223000,8.19722314453125,0.0803670836567878,-0.4612953229904175,-0.5101490414759143
2024-12-07 20:18:27.700237000,8.207237060546875,-0.5707738617759197,-0.3311146993726491,-0.1387042679436504
2024-12-07 20:18:27.710251000,8.2172509765625,-0.9752741153549402,-0.2908516625672578,0.2389355973690748
2024-12-07 20:18:27.720265200,8.22726513671875,-1.074645759211108,-0.3654413318663835,0.7373398770481348
2024-12-07 20:18:27.730279000,8.23727880859375,-0.9931558820694684,-0.5857061310350895,1.3455762581907211
2024-12-07 20:18:27.740293000,8.247293212890625,-0.7373637693803757,-0.9098346247822046,1.808320757076144
2024-12-07 20:18:27.750307000,8.25730712890625,-0.2401654314249753,-1.3419190508574246,1.8792592103913424
2024-12-07 20:18:27.760321000,8.267321044921875,0.3236211287468671,-1.6666373271912336,1.7429253248408436
2024-12-07 20:18:27.770335200,8.277335205078124,0.441034625250101,-1.7629308787763118,1.703849159732461
2024-12-07 20:18:27.780349000,8.287348876953125,0.4555249959606677,-1.8600059361279009,1.5833546483486889
2024-12-07 20:18:27.790363100,8.297363037109376,0.6034112990736961,-2.073150089636445,1.3309423142910002
2024-12-07 20:18:27.800376000,8.3073759765625,0.661564212834835,-2.2802146309703586,1.0215288668558
2024-12-07 20:18:27.810390000,8.31739013671875,1.0215214872669427,-2.480183661085367,0.8651406928572803
2024-12-07 20:18:27.820404000,8.327404052734375,1.0923059190642088,-2.709701441767812,0.9531479890689252
2024-12-07 20:18:27.830418200,8.337418212890626,1.346282506763935,-2.993910013058781,0.9075128307711332
2024-12-07 20:18:27.840432000,8.34743212890625,1.5310557213127611,-3.3238223509043454,0.1590575393382459
2024-12-07 20:18:27.850446000,8.357446044921875,0.8543623284071683,-2.039932879689336,-1.96256556237042
2024-12-07 20:18:27.860460000,8.3674599609375,-0.51895318324361,1.7080466114223003,-5.13919185744822
2024-12-07 20:18:27.870474000,8.377473876953125,-0.753615304544568,6.58895344338715,-5.902867952758074
2024-12-07 20:18:27.880488200,8.38748828125,0.8775473891615867,10.664838024175166,-3.6759672710850833
2024-12-07 20:18:27.890502000,8.397501953125,2.347742691320181,13.719294568133352,-0.4860383172439411
2024-12-07 20:18:27.900516000,8.40751611328125,-0.385625457239151,13.656437422204016,0.678534417662397
2024-12-07 20:18:27.910530000,8.417530029296875,-5.326738043841719,6.379230496498942,-3.0222412045300007
2024-12-07 20:18:27.920544300,8.427544189453124,-4.491283829522133,-0.2525263158261775,-4.712654544106125
2024-12-07 20:18:27.930558000,8.437557861328125,-1.4998592035382985,-3.9960803917109966,-4.090492075072229
2024-12-07 20:18:27.940571100,8.447571044921874,0.7240027680259198,-6.639409372904896,-2.7965771766662595
2024-12-07 20:18:27.950585000,8.457585205078125,2.777244699686765,-8.261068909728527,-1.4868281647905706
2024-12-07 20:18:27.960599300,8.467599365234374,5.111597748079896,-8.62807792930305,-0.9101328770764172
2024-12-07 20:18:27.970613000,8.477613037109375,6.110395435428619,-7.206599604040384,-1.4668024448499082
2024-12-07 20:18:27.980627500,8.48762744140625,4.276546269342303,-4.049276559847593,-1.332491005037725
2024-12-07 20:18:27.990641700,8.4976416015625,1.7701485550701617,-0.6289478913903236,-0.0430477538867853
2024-12-07 20:18:28.000655400,8.5076552734375,-0.8916483952283859,2.391640285235644,1.2861366656199096
2024-12-07 20:18:28.010669600,8.517669677734375,-2.3018168064475057,4.519260800728202,2.2682615967176853
2024-12-07 20:18:28.020683500,8.52768359375,-2.0615455765604973,5.286593664979934,2.678402048140764
2024-12-07 20:18:28.030697500,8.537697509765625,-1.2914520154237747,4.4459249308824536,2.869300759832561
2024-12-07 20:18:28.040711400,8.54771142578125,-0.5104197116434573,2.4749814162671564,2.9046660877242685
2024-12-07 20:18:28.050725400,8.557725341796875,-0.1416436823964119,0.5174392350167035,2.160085591898113
2024-12-07 20:18:28.060739600,8.567739501953126,0.0357061224197037,-0.7504886969566344,0.7397519796911627
2024-12-07 20:18:28.070753500,8.57775341796875,0.0634159488558769,-1.4496610481739045,-0.6446547982838005
2024-12-07 20:18:28.080767500,8.587767578125,0.1931657798409461,-1.790170767879486,-1.7551399326391517
2024-12-07 20:18:28.090781400,8.597781494140625,0.4057014460623264,-1.7996008595257995,-2.448225072897225
2024-12-07 20:18:28.100794600,8.607794677734375,0.459054229532741,-1.4014245482712984,-2.477270403987169
2024-12-07 20:18:28.110808600,8.61780859375,0.2125426622177474,-0.7767635404199361,-1.7005024796530603
2024-12-07 20:18:28.120822500,8.627822509765625,-0.0094692546129226,-0.3377016765475273,-0.6205039612371475
2024-12-07 20:18:28.130836500,8.63783642578125,-0.1218190014531835,-0.00652735594213,0.0153372059314046
2024-12-07 20:18:28.140850400,8.647850341796875,-0.0725473132839426,0.2590595169872045,0.0432503637867979
2024-12-07 20:18:28.150864600,8.65786474609375,0.1533271424600854,0.4084615584254265,-0.1429661357723642
2024-12-07 20:18:28.160878300,8.66787841796875,0.3671791154444217,0.5008563490062952,-0.3652793462377041
2024-12-07 20:18:28.170892500,8.677892578125,0.4224059856910258,0.5602677383959292,-0.68460394683443
2024-12-07 20:18:28.180906500,8.687906494140625,0.2536252169787883,0.5357622426927089,-0.9125358465649188
2024-12-07 20:18:28.190920700,8.697920654296874,0.0850455968618393,0.4245318187385797,-0.9061894001476466
2024-12-07 20:18:28.200934400,8.707934326171875,0.1508557108452543,0.2477338208526373,-0.8310005959115921
2024-12-07 20:18:28.210948400,8.7179482421875,0.1671322708528488,0.0118330611348152,-0.806810888159275
2024-12-07 20:18:28.220962600,8.727962646484375,0.1362030257124453,-0.269855051767826,-0.7049743885595351
2024-12-07 20:18:28.230976500,8.7379765625,0.1469733529865741,-0.4077110323190689,-0.429234553069435
2024-12-07 20:18:28.240990500,8.747990478515625,0.139100939111039,-0.3995201270788908,-0.0409135731359943
2024-12-07 20:18:28.251003400,8.75800341796875,0.1294681644994765,-0.3256611101418733,0.3369837375365197
2024-12-07 20:18:28.261017600,8.768017578125,0.1150385840654373,-0.2402314823985099,0.591660728590563
2024-12-07 20:18:28.271031300,8.77803125,0.1463057559233158,-0.1183347030013799,0.696798023301363
2024-12-07 20:18:28.281045500,8.78804541015625,0.1698174913488328,-0.0050958618342876,0.6862186154894531
2024-12-07 20:18:28.291059500,8.7980595703125,0.0918774156432598,0.137667179980874,0.619399287930876
2024-12-07 20:18:28.301073700,8.80807373046875,-0.0573276419181376,0.2421153964489698,0.5736551893658935
2024-12-07 20:18:28.311087600,8.818087646484376,-0.2391385725952684,0.3252764947384595,0.5119229558132589
2024-12-07 20:18:28.321101300,8.828101318359375,-0.4506196882624179,0.2791337522447109,0.3734746353920549
2024-12-07 20:18:28.331115500,8.838115478515626,-0.6013466946940869,0.1695972727268934,0.2170351695977151
2024-12-07 20:18:28.341129500,8.84812939453125,-0.6533422548692673,0.0545230328261852,0.1291023999270051
2024-12-07 20:18:28.351143700,8.858143798828126,-0.5847043335814028,-0.0524585015118122,0.0723532885491848
2024-12-07 20:18:28.361157400,8.868157470703125,-0.4147299711704253,-0.09431319142282,0.0584354570295661
2024-12-07 20:18:28.371171600,8.878171630859375,-0.2541045979935675,-0.0746218180030584,0.1239853491742163
2024-12-07 20:18:28.381185500,8.888185546875,-0.1651402933180332,0.0286906724333763,0.2508902390569448
2024-12-07 20:18:28.391199500,8.898199462890625,-0.0288438902337104,0.1204144318848848,0.3865256209492683
2024-12-07 20:18:28.401212400,8.90821240234375,0.1631423244338482,0.1051660093486308,0.5132311158023775
2024-12-07 20:18:28.411226600,8.9182265625,0.3297533478915691,0.0292944835454225,0.6595170710466802
2024-12-07 20:18:28.421240600,8.928240478515624,0.4947884272694587,-0.0828086315900087,0.8024925865687429
2024-12-07 20:18:28.431254300,8.938254150390625,0.5949708029866219,-0.1734831742495298,0.9127369951602072
2024-12-07 20:18:28.441268500,8.9482685546875,0.5948375319957733,-0.1485369490414858,1.0354786278836428
2024-12-07 20:18:28.451282400,8.958282470703125,0.5832089804571121,-0.0539987166911363,1.1382738164477049
2024-12-07 20:18:28.461296600,8.968296630859374,0.6124550217509269,0.1055184760481119,1.1733948141895234
2024-12-07 20:18:28.471310300,8.978310302734375,0.6524247016329318,0.2741553793102502,1.154203937637806
2024-12-07 20:18:28.481324500,8.988324462890626,0.6939747825741768,0.4618436045229435,1.0378518598210067
2024-12-07 20:18:28.491338500,8.99833837890625,0.749089424617961,0.5777122096717358,0.8384329378694295
2024-12-07 20:18:28.501352400,9.0083525390625,0.6038029287397861,0.4777151273936033,0.5293955572050064
2024-12-07 20:18:28.511366700,9.01836669921875,0.3666566259402781,0.2922872483283281,0.1978437815893441
2024-12-07 20:18:28.521380400,9.02838037109375,0.138178709699586,0.0417582437992095,-0.1531320948120206
2024-12-07 20:18:28.531394600,9.03839453125,-0.0234171890098601,-0.1912088005542755,-0.473318426804617
2024-12-07 20:18:28.541407500,9.048407470703124,-0.1990414669413119,-0.3491238187938928,-0.6866608793642371
2024-12-07 20:18:28.551421400,9.05842138671875,-0.2729717955488711,-0.4755050501286983,-0.7778939326893538
2024-12-07 20:18:28.561435400,9.068435302734375,-0.2127181101161986,-0.4990870012462138,-0.7375279469661414
2024-12-07 20:18:28.571449600,9.07844970703125,-0.208963141496852,-0.4984370129048824,-0.6353250252068042
2024-12-07 20:18:28.581463600,9.088463623046875,-0.3023031039733439,-0.5399643705576658,-0.6393307537168263
2024-12-07 20:18:28.591477500,9.0984775390625,-0.4234042760133743,-0.5308411529034376,-0.5401106471605599
2024-12-07 20:18:28.601491500,9.108491455078124,-0.4938390175901353,-0.1932183868110179,-0.1058799297716468
2024-12-07 20:18:28.611505400,9.11850537109375,-0.3686320907317101,0.0677186144858598,0.496271140107885
2024-12-07 20:18:28.621519600,9.12851953125,-0.1885772830069065,0.2130050372987985,1.008120665358752
2024-12-07 20:18:28.631533300,9.138533203125,-0.0405912458464503,0.2911854245662689,1.309088063748926
2024-12-07 20:18:28.641547500,9.148547607421875,0.0106850601434707,0.3437678447186946,1.48252564529106
2024-12-07 20:18:28.651561500,9.1585615234375,-0.0329635274469852,0.2661889304757118,1.575059552081674
2024-12-07 20:18:28.661575700,9.16857568359375,-0.172632767965272,-0.0186795660287141,1.4847623183019458
2024-12-07 20:18:28.671589600,9.178589599609374,-0.5302899487614632,-0.2223614791870117,1.3025244674496352
2024-12-07 20:18:28.681602600,9.1886025390625,-1.106961782534793,-0.3008399726182222,1.1052088744528592
2024-12-07 20:18:28.691616500,9.198616455078126,-1.840940001130104,-0.1209738193333148,1.0608845795579254
2024-12-07 20:18:28.701630700,9.208630615234377,-2.5375486393392084,0.2474924133121967,1.2573190058059989
2024-12-07 20:18:28.711644400,9.21864453125,-3.07608502292037,0.617467881476879,1.493778130058944
2024-12-07 20:18:28.721658400,9.228658447265625,-3.4800820031523703,1.0506114612162112,1.909501642311364
2024-12-07 20:18:28.731672600,9.238672607421876,-3.4614664422705768,1.591536201238632,2.5349784965902566
2024-12-07 20:18:28.741686500,9.2486865234375,-3.0861995896995067,2.4697967071056364,3.16733999581635
2024-12-07 20:18:28.751700500,9.258700439453126,-2.328282788568735,3.562681960427761,3.512037814861536
2024-12-07 20:18:28.761714400,9.26871435546875,-1.2187678874850272,4.531767231079936,3.550403785873949
2024-12-07 20:18:28.771728600,9.278728759765626,-0.1583832933384925,4.626674296742677,3.171961225876212
2024-12-07 20:18:28.781742600,9.28874267578125,0.5387080868862569,3.7749668667584655,2.027572725940495
2024-12-07 20:18:28.791756300,9.29875634765625,0.5690062675815075,2.5240426765561104,0.3740672675229609
2024-12-07 20:18:28.801770500,9.3087705078125,-0.3613210370659828,1.5262755012989044,-0.8137544236868619
2024-12-07 20:18:28.811784400,9.318784423828124,-1.9008407814718784,0.7822212213039398,-1.1809656878352164
2024-12-07 20:18:28.821798700,9.328798583984376,-3.302901727950573,0.169154205134511,-1.4041148102685808
2024-12-07 20:18:28.831811300,9.338811279296875,-3.897579100948572,-0.3973614877402782,-1.795097995148599
2024-12-07 20:18:28.841825500,9.348825439453124,-3.3930268200337883,-0.9016787908554076,-2.190391882834583
2024-12-07 20:18:28.851839500,9.358839599609375,-1.7368506811022757,-1.3386486508846285,-2.5025436691924927
2024-12-07 20:18:28.861853700,9.368853759765624,0.5706780732512474,-1.778652764043212,-2.5830916623741387
2024-12-07 20:18:28.871867400,9.378867431640623,2.727229499673843,-1.9042776240527628,-2.37926727200523
2024-12-07 20:18:28.881881600,9.388881591796874,4.081133587357401,-1.6466630451768636,-2.109647636428475
2024-12-07 20:18:28.891895600,9.3988955078125,4.379202926218509,-0.9963350966274738,-2.050885358597338
2024-12-07 20:18:28.901909500,9.408909423828124,3.803067756605148,-0.2146200712800025,-2.3911561549805103
2024-12-07 20:18:28.911923500,9.41892333984375,2.865790998145938,0.465253705227375,-2.507011754517257
2024-12-07 20:18:28.921937400,9.4289375,1.6612684936344622,1.087762503480911,-1.9669030070528384
2024-12-07 20:18:28.931951600,9.43895166015625,0.2917740015765652,1.5830033506929873,-0.9535019170731306
2024-12-07 20:18:28.941965600,9.448965576171876,-0.6013420915842056,1.613918713438511,0.0089974723827093
2024-12-07 20:18:28.951979500,9.4589794921875,-0.5440992784053087,1.173659748736024,0.6889132614009081
2024-12-07 20:18:28.961993500,9.468993408203126,0.0111427407830953,0.5263187070429325,1.1325853955477476
2024-12-07 20:18:28.972006700,9.479006591796876,0.8351637069404124,-0.1035907228559255,1.2545754061862826
2024-12-07 20:18:28.982020000,9.48902001953125,1.522753172391653,-0.5465764821738004,1.0791587065909056
2024-12-07 20:18:28.992034300,9.499034423828125,1.8213848213106392,-0.8113660672456026,0.8699551804669201
2024-12-07 20:18:29.002048000,9.509048095703124,1.6122002190828322,-0.9280629399120808,0.647815381206572
2024-12-07 20:18:29.012062000,9.51906201171875,1.2021446694642304,-0.91909345151484,0.5054344705767929
2024-12-07 20:18:29.022076200,9.529076171875,0.7786655746489762,-0.846692232170701,0.4759222526274621
2024-12-07 20:18:29.032090000,9.539090087890624,0.366642012893036,-0.786814394313097,0.3831718170093372
2024-12-07 20:18:29.042104000,9.54910400390625,0.1344816087473183,-0.8389327040851116,0.1659067841785028
2024-12-07 20:18:29.052118000,9.559117919921874,0.0992874727040529,-1.002166871520877,-0.1637908332041464
2024-12-07 20:18:29.062132200,9.56913232421875,0.3071861267745495,-1.162579551795125,-0.5599677325360477
2024-12-07 20:18:29.072146200,9.579146240234374,0.6404935138858855,-1.316212947192788,-1.0078662522062658
2024-12-07 20:18:29.082159900,9.589159912109375,0.8437165042955428,-1.3843220223009585,-1.4158384196795522
2024-12-07 20:18:29.092174000,9.599174072265624,0.9358014982748776,-1.292982293730974,-1.613069403132796
2024-12-07 20:18:29.102188000,9.60918798828125,0.9868412920951842,-1.2197031225085255,-1.700924796718359
2024-12-07 20:18:29.112201000,9.619200927734376,0.8159248265285044,-1.204223229303956,-1.6298868285514414
2024-12-07 20:18:29.122215000,9.62921484375,0.5930073939591646,-1.1717670668572189,-1.3233655954264103
2024-12-07 20:18:29.132229000,9.63922900390625,0.4518418504685163,-1.2873206147074698,-0.9834939544286578
2024-12-07 20:18:29.142243000,9.6492431640625,0.2167804641842842,-1.3885820178329944,-0.5784070966007188
2024-12-07 20:18:29.152257000,9.659257080078126,-0.1536357334852218,-1.464298060813546,-0.3025643852580338
2024-12-07 20:18:29.162271000,9.66927099609375,-0.6735388013321906,-1.538413682860136,-0.1556617228874936
2024-12-07 20:18:29.172285200,9.67928515625,-1.368143625438213,-1.5081863023787736,0.0079463558945804
2024-12-07 20:18:29.182299100,9.689299072265625,-1.9435311915546647,-1.3616127623647452,0.2587020818516612
2024-12-07 20:18:29.192313000,9.69931298828125,-2.116300664576888,-1.1968027239143848,0.6234986860737204
2024-12-07 20:18:29.202327000,9.7093271484375,-1.6799848845422267,-1.08741062130332,0.6571187777332961
2024-12-07 20:18:29.212341000,9.719341064453126,-0.9309908100575208,-1.065677512922883,0.2666199057715013
2024-12-07 20:18:29.222355200,9.729355224609376,-0.9756464557986706,-0.8767956940114497,0.2320798862554133
2024-12-07 20:18:29.232369200,9.739369140625,-1.0952659379135816,-0.5986170505344868,0.9279507117092608
2024-12-07 20:18:29.242383000,9.749383056640625,-0.5652507144402712,-0.4430705149918794,1.95915677684024
2024-12-07 20:18:29.252396000,9.75939599609375,0.2750719096332788,-0.6923416284143924,3.0412904806539416
2024-12-07 20:18:29.262410200,9.76941015625,1.5621061086148025,-1.4637743292003869,3.463380459198356
2024-12-07 20:18:29.272424000,9.779423828125,2.7477193299949167,-2.426154549255967,2.5908228411480785
2024-12-07 20:18:29.282438100,9.789438232421874,2.9996225454866883,-2.5606822621673344,0.3525037070231512
2024-12-07 20:18:29.292452000,9.7994521484375,1.2137655491530894,-0.009793079739809,-3.281394829541445
2024-12-07 20:18:29.302466000,9.809466064453124,-1.7509663002163172,4.752283374661207,-5.378835895347595
2024-12-07 20:18:29.312480000,9.81947998046875,-1.4899930585622787,9.116494483453035,-4.350806852817535
2024-12-07 20:18:29.322494000,9.829493896484376,2.186682945314049,12.42722295950651,-2.151578606446088
2024-12-07 20:18:29.332508200,9.839508056640623,3.343614262089133,12.14161971898675,-2.498605745221674
2024-12-07 20:18:29.342522000,9.849522216796874,-1.7857926989257336,5.043875626462698,-5.137871422499418
2024-12-07 20:18:29.352536000,9.8595361328125,-4.613365902358293,-1.704583903747797,-5.05086475469768
2024-12-07 20:18:29.362550000,9.869550048828126,-2.0211586211144925,-5.119650121632218,-3.888616334553063
2024-12-07 20:18:29.372564000,9.87956396484375,1.356795717471838,-7.326831665095686,-2.2486745604552327
2024-12-07 20:18:29.382577200,9.8895771484375,4.2332489794075485,-8.285518291330337,-0.696092066989094
2024-12-07 20:18:29.392591000,9.899591064453125,5.942122689303756,-7.170085690635442,-0.0683641823804006
2024-12-07 20:18:29.402605000,9.90960498046875,4.962531806728244,-4.2012300393342965,-0.083158951998176
2024-12-07 20:18:29.412619000,9.919618896484376,3.413846905222535,-1.002487774038315,0.1239350163596216
2024-12-07 20:18:29.422633200,9.92963330078125,1.839523120069504,1.687205483445525,0.3412175026487559
2024-12-07 20:18:29.432647000,9.93964697265625,0.0213145907074213,3.70097399430871,0.6697025841701776
2024-12-07 20:18:29.442661000,9.9496611328125,-1.154293369486928,4.416306037688255,1.157282468300313
2024-12-07 20:18:29.452675000,9.959675048828124,-1.220786241570115,3.3370582645744085,1.2287084128715098
2024-12-07 20:18:29.462689300,9.969689208984375,-0.5405898089796305,1.4239508528560398,0.7579064989324659
2024-12-07 20:18:29.472703000,9.979702880859374,-0.0266880913061555,-0.0506377158254384,0.3999179672900587
2024-12-07 20:18:29.482717000,9.989717041015624,-0.0268733847451861,-0.983400796252489,-0.2893535694966092
2024-12-07 20:18:29.492731100,9.999731201171874,-0.5965279693007469,-1.3699047898918388,-1.1053262172222136
2024-12-07 20:18:29.502745000,10.0097451171875,-0.8704805195152759,-1.36059627879858,-1.5343937796942888
2024-12-07 20:18:29.512759000,10.019759033203124,-0.9096236123800278,-1.0373416452765465,-1.5465250931233168
2024-12-07 20:18:29.522772000,10.02977197265625,-1.10277770178318,-0.4124743011981248,-1.1899966240961104
2024-12-07 20:18:29.532786200,10.0397861328125,-0.906713862413168,0.0713408966362476,-0.5754872270986437
2024-12-07 20:18:29.542800100,10.049800048828123,-0.4207411942839622,0.1750210513412952,-0.0789700215415097
2024-12-07 20:18:29.552814000,10.05981396484375,-0.1096738421618938,0.047885786768794,0.0685076642380096
2024-12-07 20:18:29.562828000,10.069828125,0.116635497868061,-0.1578378613501787,0.1286786946222186
2024-12-07 20:18:29.572842200,10.07984228515625,0.3819266027212142,-0.2890466589719057,0.2104879033787176
2024-12-07 20:18:29.582856200,10.089856201171877,0.5643932573607191,-0.3658890756338834,0.1550476461097598
2024-12-07 20:18:29.592870000,10.099869873046876,0.5224912577092647,-0.3674035718500614,0.0044996860394254
2024-12-07 20:18:29.602884000,10.109884033203125,0.245557609324716,-0.3081745532900095,-0.1072023009492084
2024-12-07 20:18:29.612898000,10.11989794921875,-0.0529155976295471,-0.1039542954713106,-0.1052747669527307
2024-12-07 20:18:29.622912300,10.129912353515625,-0.3140145480224862,0.1433282744824886,0.0313267565580084
2024-12-07 20:18:29.632926000,10.139926025390626,-0.3466764987070113,0.38564591550529,0.2236793568525463
2024-12-07 20:18:29.642940200,10.149940185546876,-0.3391968835413456,0.554233134406805,0.38731154716257
2024-12-07 20:18:29.652954000,10.1599541015625,-0.2790331414144486,0.5827671549737453,0.5530038118075579
2024-12-07 20:18:29.662967000,10.169967041015624,0.0090508100051432,0.442685315066576,0.6357659739073366
2024-12-07 20:18:29.672981000,10.17998095703125,0.2402852584123611,0.1753442919462919,0.5601595287811011
2024-12-07 20:18:29.682995200,10.1899951171875,0.3818657393794507,-0.2081780555337667,0.3156011230941861
2024-12-07 20:18:29.693009200,10.200009033203123,0.4056359065454453,-0.6227993056327105,0.0383702818613499
2024-12-07 20:18:29.703023000,10.210023193359374,0.2823123092155903,-0.9551052606165408,-0.1475975492995232
2024-12-07 20:18:29.713037000,10.220037109375,0.2849730528574437,-1.067891097319126,-0.2287882973641157
2024-12-07 20:18:29.723051000,10.230051025390624,0.2987514759063721,-0.9696119248747824,-0.1933675860233605
2024-12-07 20:18:29.733065200,10.240065185546875,0.166264840368554,-0.6449591149926185,-0.0198621268767863
2024-12-07 20:18:29.743079200,10.2500791015625,-0.0350794236224144,-0.1541454365730285,0.3074470427330583
2024-12-07 20:18:29.753093000,10.260093017578123,-0.1473228240113705,0.3834183025836944,0.5800697325833142
2024-12-07 20:18:29.763107000,10.270107177734374,-0.1694481465797871,0.7924901018619537,0.6773913851071148
2024-12-07 20:18:29.773121000,10.28012109375,-0.0813852477233856,0.964517816606164,0.6276611395154148
2024-12-07 20:18:29.783135200,10.29013525390625,0.0376186597764492,0.8771896617650985,0.5567324769418687
2024-12-07 20:18:29.793148200,10.300148193359377,0.248517664706707,0.5874567740947008,0.4497301190115511
2024-12-07 20:18:29.803162000,10.310162109375,0.4024900097351521,0.2592588389515877,0.3660939505562186
2024-12-07 20:18:29.813176000,10.320176025390625,0.3622468466740101,-0.0867091461598873,0.1930089087788015
2024-12-07 20:18:29.823190000,10.33018994140625,0.2519371908266097,-0.3580295943051576,-0.0353451618865132
2024-12-07 20:18:29.833204000,10.340203857421876,0.1991688927132636,-0.4811199674010276,-0.323583646280691
2024-12-07 20:18:29.843218200,10.35021826171875,0.1412297678332775,-0.5141331792086362,-0.5848001951713114
2024-12-07 20:18:29.853232000,10.360232177734376,0.0311794935744255,-0.3917454014241695,-0.755915836571902
2024-12-07 20:18:29.863246000,10.37024609375,-0.0640286008615046,-0.1769903055876493,-0.818128181791678
2024-12-07 20:18:29.873260000,10.380260009765625,-0.1438157657384872,0.083238839700818,-0.7689439527101815
2024-12-07 20:18:29.883274000,10.39027392578125,-0.1825252164263278,0.271233354383707,-0.64226607651636
2024-12-07 20:18:29.893288200,10.4002880859375,-0.2210743619859218,0.4086462673425674,-0.4272472151771188
2024-12-07 20:18:29.903302100,10.41030224609375,-0.1986649617791175,0.4279086016952991,-0.1163109420888125
2024-12-07 20:18:29.913316000,10.420316162109376,-0.0918704744458198,0.3452607136249542,0.2406727964252233
2024-12-07 20:18:29.923330000,10.430330078125,0.0108008685428649,0.268085119485855,0.5428399259939789
2024-12-07 20:18:29.933343200,10.44034326171875,0.0611116905014961,0.2427221301704645,0.808242236136645
2024-12-07 20:18:29.943357000,10.45035693359375,0.0366635510087013,0.1968015059947967,0.9541374384976924
2024-12-07 20:18:29.953371100,10.46037109375,0.1225917759239673,0.1294534783869981,0.9839311037369072
2024-12-07 20:18:29.963385000,10.470385009765623,0.18872684754543,0.0249175836354494,0.8767115228593348
2024-12-07 20:18:29.973399000,10.48039892578125,0.2243722344875335,0.1988309659957885,0.8366635901093482
2024-12-07 20:18:29.983413200,10.490413330078123,0.4227917701382189,0.3174275348037481,0.8001299490906297
2024-12-07 20:18:29.993427000,10.500427001953126,0.5459925448060036,0.3353834627330303,0.7958191001541912
2024-12-07 20:18:30.003441200,10.510441162109377,0.5585654645226895,0.3003758622378111,0.7926854783035814
2024-12-07 20:18:30.013455000,10.520455078125,0.4240587943993508,0.222039992147684,0.7728491434551775
2024-12-07 20:18:30.023469300,10.53046923828125,0.2138179611168801,-0.0133779524892568,0.6470173626966774
2024-12-07 20:18:30.033483000,10.54048291015625,0.0484463432610034,-0.363021411243081,0.4981410986982286
2024-12-07 20:18:30.043497000,10.5504970703125,-0.054957917112112,-0.5821773723870516,0.5044226631857455
2024-12-07 20:18:30.053511200,10.56051123046875,-0.114607353041321,-0.652955374443531,0.6199629131630062
2024-12-07 20:18:30.063524000,10.570524169921876,-0.2068225492715835,-0.6557634176015853,0.6424212670780718
2024-12-07 20:18:30.073538000,10.5805380859375,-0.345894189222902,-0.6178378838330507,0.5238686835423112
2024-12-07 20:18:30.083552000,10.590552001953125,-0.4320679133318364,-0.5974000759601593,0.2828358216330409
2024-12-07 20:18:30.093566200,10.600566162109375,-0.552665592829138,-0.3684142101973295,0.1557616395980119
2024-12-07 20:18:30.103580200,10.610580078125,-0.8307577270664274,0.0332651407420635,0.2482823946461081
2024-12-07 20:18:30.113594000,10.620593994140624,-1.108290912246704,0.3531973518431186,0.4768750233076512
2024-12-07 20:18:30.123608000,10.630608154296874,-1.399950822456926,0.5573211635500193,0.8658645501524209
2024-12-07 20:18:30.133622300,10.640622314453124,-1.6635269400857389,0.5876712936282158,1.2729017748631537
2024-12-07 20:18:30.143636200,10.65063623046875,-1.902532533951104,0.5130605815410614,1.6104422694996
2024-12-07 20:18:30.153650000,10.66064990234375,-2.0548856802798805,0.4976438167005777,1.914978466287255
2024-12-07 20:18:30.163664100,10.6706640625,-2.116122385400533,0.5572977826744318,2.144382557462156
2024-12-07 20:18:30.173678000,10.680677978515623,-2.1492251751877367,0.5774181951612234,2.2673117486469447
2024-12-07 20:18:30.183692300,10.6906923828125,-2.1726551506139336,0.6125292560309171,2.3513057906292376
2024-12-07 20:18:30.193705000,10.700705078125,-2.272533282687515,0.7300894675284624,2.425381372926384
2024-12-07 20:18:30.203719200,10.71071923828125,-2.351809648498147,0.7987129218995571,2.56302151876986
2024-12-07 20:18:30.213733000,10.720733154296877,-2.552900522249937,1.018929205751419,2.857510661056637
2024-12-07 20:18:30.223747000,10.7307470703125,-2.7916777141869065,1.5503537115007635,3.215971340255439
2024-12-07 20:18:30.233761000,10.740760986328125,-2.667706466603279,2.758121481543779,3.409928854995966
2024-12-07 20:18:30.243775200,10.750775146484376,-1.7205704313002526,4.360817959222198,3.3207226313233376
2024-12-07 20:18:30.253789200,10.7607890625,-0.1454781459927558,5.3126767852634185,2.9092653982132672
2024-12-07 20:18:30.263803000,10.770802978515626,0.8324666498761624,4.861255206033587,1.494196501601487
2024-12-07 20:18:30.273817000,10.780817138671877,0.2328090773127973,3.823833481258154,-0.0916224910341203
2024-12-07 20:18:30.283831000,10.7908310546875,-1.6003554675102234,2.751697585976124,-0.773472097659111
2024-12-07 20:18:30.293845200,10.80084521484375,-3.600398819881677,1.8235270940363408,-1.250490474960208
2024-12-07 20:18:30.303859200,10.810859130859376,-4.656722229003906,0.8671171805620193,-1.7051932678177952
2024-12-07 20:18:30.313873200,10.820873046875,-4.1592298034727575,-0.177843123024702,-2.042705997664481
2024-12-07 20:18:30.323886000,10.830885986328123,-2.38780465259552,-1.0521873322308062,-2.343547869978845
2024-12-07 20:18:30.333900300,10.840900390625,0.4947241298615932,-1.654161291977763,-2.8597379817172883
2024-12-07 20:18:30.343914000,10.8509140625,3.3044355133891106,-2.0351491525441405,-3.273503491769731
2024-12-07 20:18:30.353928200,10.86092822265625,4.942826404783129,-1.877420012265444,-3.0783748874232173
2024-12-07 20:18:30.363942100,10.870942138671875,5.238979680889845,-1.14688513905704,-2.870550759893656
2024-12-07 20:18:30.373956000,10.8809560546875,4.60626629948616,-0.2487602412909269,-2.932319526064396
2024-12-07 20:18:30.383970000,10.890969970703123,3.472299678713083,0.4999462484240531,-3.182965434971452
2024-12-07 20:18:30.393984000,10.90098388671875,2.3287124121576546,1.0848509999483824,-3.2318317572101947
2024-12-07 20:18:30.403998200,10.910998291015623,1.470350200459361,1.4701520475387573,-2.5155080724447965
2024-12-07 20:18:30.414012200,10.92101220703125,0.4874796020934357,1.7495839059472085,-0.8666043356690555
2024-12-07 20:18:30.424026000,10.931026123046877,0.013431728503108,1.604596758341789,0.5227334689673035
2024-12-07 20:18:30.434040000,10.9410400390625,-0.1896212025692686,1.1541636056274176,1.2681149789780377
2024-12-07 20:18:30.444054000,10.951053955078123,0.3980506390482187,0.5558569362163543,1.363111038098484
2024-12-07 20:18:30.454067200,10.961067138671876,1.3269056061208246,-0.1975567082762718,0.9004273294895887
2024-12-07 20:18:30.464081200,10.9710810546875,1.7446166389286517,-0.95279406106472,0.2751397141724824
2024-12-07 20:18:30.474095000,10.98109521484375,1.6072160009294747,-1.380353118669987,-0.1151359434926882
2024-12-07 20:18:30.484109000,10.991109130859376,1.2929466378957033,-1.454296306759119,-0.254548012645822
2024-12-07 20:18:30.494123300,11.001123291015626,0.8919085074692964,-1.3220184186011552,-0.3201498724397271
2024-12-07 20:18:30.504137000,11.011136962890625,0.5966303336966783,-1.3464239610612392,-0.5676069221775979
2024-12-07 20:18:30.514151200,11.021151123046875,0.580815509449318,-1.5044804335981607,-0.9747272220619022
2024-12-07 20:18:30.524165000,11.0311650390625,0.7548346172064543,-1.8131395555347205,-1.317807815168798
2024-12-07 20:18:30.534179300,11.041179443359376,0.9719459938455371,-2.2057529719650746,-1.5380489412009717
2024-12-07 20:18:30.544193000,11.051193115234376,1.1558909408766775,-2.522015554642677,-1.6519678735867145
2024-12-07 20:18:30.554207000,11.06120703125,1.2902157516270876,-2.776402403643727,-1.7379837767854331
2024-12-07 20:18:30.564221200,11.07122119140625,1.2732242848157882,-2.8832524205565453,-1.846415802192688
2024-12-07 20:18:30.574235100,11.081235107421875,1.2289128494024275,-2.892391420301794,-1.8401104184381665
2024-12-07 20:18:30.584248000,11.091248046875,0.974167761548236,-2.798196886822581,-1.6796362172350283
2024-12-07 20:18:30.594262000,11.101261962890623,0.1852485039103776,-2.4113100313454865,-1.217510434769839
2024-12-07 20:18:30.604276200,11.111276123046874,-0.7518063554264605,-1.9902865129888057,-0.6103880062185227
2024-12-07 20:18:30.614290200,11.121290283203123,-1.413571059269458,-1.2328349912822243,0.3517171232227236
2024-12-07 20:18:30.624304000,11.13130419921875,-2.250174151363224,-0.292822670379281,1.402432264009118
2024-12-07 20:18:30.634318000,11.141318115234377,-3.0622540659666058,0.4716074581682681,2.432381460946798
2024-12-07 20:18:30.644332300,11.151332275390626,-2.976970568695664,0.5987251870840787,2.819840563353896
2024-12-07 20:18:30.654346200,11.16134619140625,-1.7938766366600989,0.1858300301253795,2.29176200703159
2024-12-07 20:18:30.664360000,11.17135986328125,-0.4435581523783504,-0.1285848788589239,2.116409093387425
2024-12-07 20:18:30.674374100,11.1813740234375,0.3173503779143095,-0.4299345545649528,2.171400766638666
2024-12-07 20:18:30.684388000,11.19138818359375,0.431799179393053,-0.8875906442701816,2.1919237685769795
2024-12-07 20:18:30.694402300,11.20140234375,0.9869371536850928,-1.6757985387682914,2.335800909113884
2024-12-07 20:18:30.704415000,11.2114150390625,2.0470225456893445,-2.6940853549629447,2.2567083754375576
2024-12-07 20:18:30.714429200,11.22142919921875,2.864082440662384,-3.503372862368822,1.2275044439092275
2024-12-07 20:18:30.724443100,11.231443115234375,2.67997616558969,-2.868998269754648,-1.6049261364266276
2024-12-07 20:18:30.734457000,11.24145703125,0.9333820160429924,0.538902878805995,-5.786353450921178
2024-12-07 20:18:30.744471000,11.251470947265624,-0.126643097141385,5.754349708417058,-7.510469153612852
2024-12-07 20:18:30.754485200,11.2614853515625,1.3695856409400702,10.006358917874095,-5.517579180127382
2024-12-07 20:18:30.764499200,11.271499267578124,2.7041443921625614,12.612273237431047,-3.724706167551875
2024-12-07 20:18:30.774513000,11.281512939453124,-0.955890346579626,10.425708950060605,-4.75238917312324
2024-12-07 20:18:30.784527000,11.291527099609375,-6.1306128785490985,2.952521771615744,-6.266248260441422
2024-12-07 20:18:30.794541000,11.301541015625,-3.913772695380449,-2.389019873604178,-5.503360685160756
2024-12-07 20:18:30.804555300,11.31155517578125,0.0610544073563069,-5.412262364131212,-3.942655675515532
2024-12-07 20:18:30.814569200,11.3215693359375,2.57419465469122,-7.225495443168282,-2.250740114682913
2024-12-07 20:18:30.824583200,11.331583251953123,4.371296098616719,-7.4546490667134515,-1.197791954147443
2024-12-07 20:18:30.834596000,11.34159619140625,5.107682035940885,-5.847040267074108,-0.9542541967451572
2024-12-07 20:18:30.844610300,11.3516103515625,4.162684327840805,-3.149474668779969,-0.6385502708636224
2024-12-07 20:18:30.854624000,11.3616240234375,2.97972074418664,-0.4010229328572749,0.0587298916651867
2024-12-07 20:18:30.864638200,11.37163818359375,1.2457318822562693,1.725701510578394,0.7302243459545076
2024-12-07 20:18:30.874652200,11.381652099609376,-0.822508808028698,3.106404757860303,1.4011488000698389
2024-12-07 20:18:30.884666000,11.391666015625,-1.9200901102125645,3.624661154478788,2.120525150404126
2024-12-07 20:18:30.894680000,11.40168017578125,-1.7702198667407034,3.196038267034292,2.3952231121584773
2024-12-07 20:18:30.904694000,11.411694091796877,-1.1044541105628014,2.078656285837293,2.3274247104346752
2024-12-07 20:18:30.914708200,11.421708251953126,-0.7709194905668496,0.8270148872762918,2.2103202798806127
2024-12-07 20:18:30.924722200,11.43172216796875,-0.5928256076514721,-0.1490729556143283,1.6178811873286962
2024-12-07 20:18:30.934736100,11.441736083984376,-0.4519523251056671,-0.7476479205727576,0.5643050310879946
2024-12-07 20:18:30.944750000,11.45175,-0.3572363981008529,-1.043538161829114,-0.3662318977221846
2024-12-07 20:18:30.954764000,11.461763916015624,-0.1054793313478119,-1.121198909136653,-1.0420630477752535
