time,seconds_elapsed,z,y,x
2024-12-07 20:24:06.893129500,0.01812939453125,-0.0547656824756413,-0.0524842204749584,-0.0136123457670211
2024-12-07 20:24:06.903143700,0.028143798828125,-0.0635165596861392,-0.043159927290678,-0.066998483517766
2024-12-07 20:24:06.913157400,0.038157470703125,-0.0501426988501101,-0.0414279889315366,-0.1009767409652471
2024-12-07 20:24:06.923170600,0.048170654296875,-0.030041502520442,-0.0672685326308012,-0.1422749660372734
2024-12-07 20:24:06.933184500,0.0581845703125,0.0080009356260299,-0.0843406634628772,-0.1509410875737667
2024-12-07 20:24:06.943198500,0.068198486328125,-0.0087900401771068,-0.1046376015603542,-0.106745387494564
2024-12-07 20:24:06.953212400,0.07821240234375,0.0311036153266206,-0.0758352854460477,-0.0822211870908737
2024-12-07 20:24:06.963225600,0.0882255859375,0.0775619631081819,-0.0701122316241264,-0.0340974999129772
2024-12-07 20:24:06.973239300,0.0982392578125,0.038198432425782,-0.0873375071913003,0.0268804081410169
2024-12-07 20:24:06.983253500,0.10825341796875,0.0204459181141108,-0.0839209767460823,0.0423947881370782
2024-12-07 20:24:06.993266700,0.1182666015625,0.0008294365614652,-0.0685270082592964,0.0168330613791942
2024-12-07 20:24:07.003280600,0.12828076171875,0.0027688801914453,-0.0562111320436,0.0035007015973329
2024-12-07 20:24:07.013294300,0.13829443359375,0.0517396126527339,-0.0133779524892568,0.038972996994853
2024-12-07 20:24:07.023308500,0.14830859375,0.0630652357220649,-0.0337520474761724,0.1299398005992174
2024-12-07 20:24:07.033321700,0.15832177734375,-0.0005354951161891,0.0006306991189718,0.2209761623084545
2024-12-07 20:24:07.043335400,0.16833544921875,0.0046393502384424,0.0449888962835073,0.2040308727264404
2024-12-07 20:24:07.053349400,0.178349365234375,0.0422825599342584,0.0355073667109012,0.1299661040842533
2024-12-07 20:24:07.063363600,0.188363525390625,0.0413029012471437,0.0315863938748836,-0.0457289009958505
2024-12-07 20:24:07.073376500,0.19837646484375,0.0364449763545766,0.063479077219963,-0.3112690121740102
2024-12-07 20:24:07.083390500,0.208390380859375,0.0123790045797824,0.0328898776888847,-0.5920172138780355
2024-12-07 20:24:07.093404400,0.218404296875,-0.0042319384813308,-0.0754407331705093,-0.7220119595348835
2024-12-07 20:24:07.103418600,0.228418701171875,0.0431961676478385,-0.3784370070397854,-0.6121288585364818
2024-12-07 20:24:07.113431600,0.238431640625,0.3507125492900609,-1.4703975467324255,-0.3767138365089893
2024-12-07 20:24:07.123445500,0.248445556640625,0.570117516759038,-0.7960270438164472,0.8679857800900935
2024-12-07 20:24:07.133459500,0.25845947265625,0.2076467616686597,-0.3599906652450561,0.4568997183799743
2024-12-07 20:24:07.143472400,0.268472412109375,-0.0733393221781589,-0.1156803891003131,0.4357639913707971
2024-12-07 20:24:07.153486600,0.278486572265625,-0.152104286134243,-0.0092909754365682,0.0701823742508888
2024-12-07 20:24:07.163500500,0.28850048828125,-0.043777182406187,0.1512391937375068,-0.6157084705889224
2024-12-07 20:24:07.173514500,0.298514404296875,0.0178302739893086,0.8966945727020501,-1.259801908662915
2024-12-07 20:24:07.183527400,0.30852734375,0.1282482125167734,1.3443173441708087,-1.782912175053358
2024-12-07 20:24:07.193541600,0.318541748046875,0.1805991437345743,1.3188567396998403,-1.828259967777133
2024-12-07 20:24:07.203555600,0.3285556640625,0.2227817686920054,0.9092460112392902,-1.5206950708180664
2024-12-07 20:24:07.213569500,0.338569580078125,0.2341232286512851,0.3129576959133148,-0.8558557818353175
2024-12-07 20:24:07.223582500,0.34858251953125,0.1325233873516321,-0.2373164717346429,0.0427127680450677
2024-12-07 20:24:07.233596700,0.3585966796875,-0.3454389928013086,-1.1766495782017707,1.0679162317603823
2024-12-07 20:24:07.243610600,0.368610595703125,-0.6869932531237601,-5.310987517002225,2.2471453050613404
2024-12-07 20:24:07.253624300,0.378624267578125,-0.2238315517395734,-8.007230926781892,2.008844498464465
2024-12-07 20:24:07.263637500,0.388637451171875,-0.1905225718557834,-3.7725031069934367,1.853973670226336
2024-12-07 20:24:07.273651700,0.398651611328125,-0.9391121571928264,-0.1897621088773012,1.306241003754735
2024-12-07 20:24:07.283665400,0.40866552734375,-1.100247306522727,-0.2703121478855609,0.6868605666548013
2024-12-07 20:24:07.293679400,0.418679443359375,-0.5260387210577726,-1.1280834079533817,-0.0258604174435138
2024-12-07 20:24:07.303692500,0.428692626953125,0.0408487460051663,-1.165099425661564,-0.5880833815604448
2024-12-07 20:24:07.313706800,0.438706787109375,0.4353127404719591,-1.344553491014242,-0.6586702449589967
2024-12-07 20:24:07.323720400,0.448720458984375,1.0297767629802226,-1.8785341109871865,-0.8287912492990493
2024-12-07 20:24:07.333733600,0.458733642578125,2.0774106696903702,-1.5309803179889916,-2.140060894870758
2024-12-07 20:24:07.343747600,0.46874755859375,3.1306092247903345,-2.096331643259526,-2.8895103119075296
2024-12-07 20:24:07.353761500,0.478761474609375,2.940250319063664,-1.983300307363272,-2.99699102793932
2024-12-07 20:24:07.363775500,0.488775390625,1.7650924407243729,-1.8589193099349737,-3.211751384472847
2024-12-07 20:24:07.373788700,0.49878857421875,-0.8702630773723125,-1.8473095361620189,-3.250665929278731
2024-12-07 20:24:07.383802400,0.50880224609375,-1.4601882874071597,-1.0204273353546858,-2.382427635732293
2024-12-07 20:24:07.393816600,0.518816650390625,-2.1216075388133526,-0.9115285692185164,-1.910730161193013
2024-12-07 20:24:07.403830500,0.52883056640625,-2.877416554009914,-0.4988566996216774,-1.5335677041336893
2024-12-07 20:24:07.413843700,0.53884375,-3.2158921375393867,0.3075269030362367,-0.7754319995552301
2024-12-07 20:24:07.423857400,0.548857421875,-2.627946118623018,1.2226251474350691,0.0323196765854954
2024-12-07 20:24:07.433871600,0.55887158203125,-1.4037082752943038,2.293143670648336,0.7217819501712918
2024-12-07 20:24:07.443884500,0.568884521484375,-0.0529657934468239,3.563322011896968,1.4712053559839724
2024-12-07 20:24:07.453898500,0.5788984375,0.8538812668919563,4.345806852573156,2.114101693227887
2024-12-07 20:24:07.463912400,0.588912353515625,1.416070913261175,4.089326246163249,2.446787295179069
2024-12-07 20:24:07.473926700,0.5989267578125,1.959330233711004,-0.3598714227795601,1.0165037321701644
2024-12-07 20:24:07.483939600,0.608939697265625,2.252521737402678,-3.064834730109572,-0.0096831896245479
2024-12-07 20:24:07.493953500,0.61895361328125,1.3853354371272026,1.4038117356687785,1.460400468853116
2024-12-07 20:24:07.503967500,0.628967529296875,0.2096284004725515,2.309113393196464,1.4860545500695703
2024-12-07 20:24:07.513981700,0.638981689453125,-1.1947425765141844,1.764446544036269,0.9818599965512752
2024-12-07 20:24:07.523994400,0.648994384765625,-1.795985591638088,2.1610306176632643,1.485356046411395
2024-12-07 20:24:07.534008600,0.659008544921875,-1.3680328585401176,1.6979805599600075,0.998607279343158
2024-12-07 20:24:07.544022500,0.6690224609375,-0.7856501728393137,1.3202818040668964,0.5083857215978205
2024-12-07 20:24:07.554036700,0.67903662109375,-0.4156044159173965,1.0567325744450091,0.1279882281400263
2024-12-07 20:24:07.564049400,0.68904931640625,0.3949192091546952,1.4541162740170954,0.3746871529869735
2024-12-07 20:24:07.574063600,0.699063720703125,0.7871462566159665,1.6467653365075587,0.18087284610942
2024-12-07 20:24:07.584077600,0.70907763671875,0.3338298035502433,1.165669334504008,-0.928053733692318
2024-12-07 20:24:07.594090500,0.719090576171875,0.0601228986598551,1.471586464256048,-0.7973749512940644
2024-12-07 20:24:07.604104400,0.7291044921875,-0.076733695590496,0.9067237992852926,-0.5947445930153131
2024-12-07 20:24:07.614118700,0.73911865234375,-0.7367499483309686,0.1710848809361457,-1.627094421353936
2024-12-07 20:24:07.624132600,0.749132568359375,-0.7615187711454927,0.7114934881299734,-1.1776203229300677
2024-12-07 20:24:07.634145500,0.7591455078125,-0.5227917019605637,0.4591670787900686,-0.7446288650125265
2024-12-07 20:24:07.644158700,0.76915869140625,-0.1067114852249622,0.0416208811551332,-0.3948311655450612
2024-12-07 20:24:07.654172700,0.779172607421875,0.0714718295395374,0.0721183107495307,-0.097985084868595
2024-12-07 20:24:07.664186600,0.7891865234375,-0.0590635988652706,-0.6807336082071066,-0.3631944297224283
2024-12-07 20:24:07.674199600,0.799199462890625,0.0086744509734213,-0.0125455933183431,0.1430601250655949
2024-12-07 20:24:07.684213800,0.8092138671875,0.019784750791639,0.2362345217168331,-0.0616772884950041
2024-12-07 20:24:07.694227700,0.819227783203125,-0.1588227807343006,0.6761702458143234,-0.4571420757684856
2024-12-07 20:24:07.704240600,0.82924072265625,-0.149863375339657,0.6918348479360341,-0.7217226211994886
2024-12-07 20:24:07.714254600,0.839254638671875,-0.0882991918303072,0.4142693679213524,-0.7449030057787894
2024-12-07 20:24:07.724268800,0.849268798828125,-0.0146923960886895,0.1684288134694099,-0.5177665307423099
2024-12-07 20:24:07.734282500,0.859282470703125,0.2006254481971263,0.0174912330269813,-0.3571740003891289
2024-12-07 20:24:07.744295700,0.869295654296875,0.3794016142882406,-0.0027934301108121,-0.14826324666664
2024-12-07 20:24:07.754309600,0.8793095703125,0.3423709835328161,0.0512245758026838,0.0820868931867182
2024-12-07 20:24:07.764323600,0.889323486328125,0.1895288846433162,0.239304430681467,0.2792045524585992
2024-12-07 20:24:07.774337500,0.899337646484375,0.1309293961584568,0.3492214339494704,0.2876013555344194
2024-12-07 20:24:07.784350700,0.909350830078125,0.1596962025679648,0.2808265276372432,0.2418081571307033
2024-12-07 20:24:07.794364700,0.91936474609375,0.1682851672150194,0.280183553558588,0.2766935194857418
2024-12-07 20:24:07.804378600,0.929378662109375,0.1437736801624298,0.2827139488190412,0.1642222286250442
2024-12-07 20:24:07.814392600,0.939392578125,0.0362158072412014,0.0904617766916751,0.313985723786801
2024-12-07 20:24:07.824405800,0.94940576171875,-0.0792459706723689,-0.0780325032293796,0.0517092905797064
2024-12-07 20:24:07.834419700,0.959419677734375,0.0225158562559634,-0.4235258565664291,-0.1367768070124089
2024-12-07 20:24:07.844433700,0.96943359375,1.1391723727226255,-1.0128221210479735,-0.3550232520960271
2024-12-07 20:24:07.854446600,0.979446533203125,1.1796949372470378,-0.9864490779072046,-0.6252000831641257
2024-12-07 20:24:07.864460800,0.989460693359375,0.5028502993024886,-0.7318073773622512,-0.94483535714522
2024-12-07 20:24:07.874474500,0.999474609375,-0.136083710181713,-0.853932120296359,-0.7547535147942602
2024-12-07 20:24:07.884488700,1.00948876953125,-0.3168026809036731,-0.7737123361557722,-0.2900632886685431
2024-12-07 20:24:07.894501600,1.019501708984375,-0.0398946418844163,-0.5080418765962124,0.427260805311054
2024-12-07 20:24:07.904515600,1.029515625,0.3648996262051165,-0.0681020608454942,1.1447376056343317
2024-12-07 20:24:07.914529500,1.039529541015625,0.6431881597973406,0.1610971554070711,1.7784489120341835
2024-12-07 20:24:07.924543700,1.049543701171875,0.6983574546378105,0.2889578116446733,2.064952900785953
2024-12-07 20:24:07.934556700,1.059556640625,0.5966029342330992,0.2628337748289108,2.0994088587477804
2024-12-07 20:24:07.944570600,1.069570556640625,0.5416191520273685,0.1168418340951204,1.7555903067551553
2024-12-07 20:24:07.954584600,1.07958447265625,0.570257217490673,-0.1245253743350505,1.0609364558756351
2024-12-07 20:24:07.964597800,1.08959765625,0.5353871257700026,-0.2271072124093771,0.6040249009273946
2024-12-07 20:24:07.974611500,1.099611572265625,0.4415866331096738,-0.1879372315376997,0.3729224814020097
2024-12-07 20:24:07.984625700,1.109625732421875,0.3162941468596458,-0.2927203790485859,-0.2255450776591896
2024-12-07 20:24:07.994639600,1.1196396484375,0.1670797369480132,-0.3576952477842569,-0.8366412321470678
2024-12-07 20:24:08.004652500,1.129652587890625,0.022577742511034,-0.2657856103718281,-1.1848530506625772
2024-12-07 20:24:08.014666500,1.13966650390625,-0.0482956096787005,-0.053725160446763,-1.3299348908141255
2024-12-07 20:24:08.024680700,1.1496806640625,-0.1120785652160644,0.1685533166319131,-1.3760532295189798
2024-12-07 20:24:08.034694700,1.159694580078125,-0.2094901610456407,0.3232096253365278,-1.2832448897011577
2024-12-07 20:24:08.044707600,1.16970751953125,-0.2759069722179323,0.3886509425401687,-0.8971867401331662
2024-12-07 20:24:08.054721500,1.179721435546875,-0.1122586710233241,0.2798877854824066,-0.3431327616855502
2024-12-07 20:24:08.064735700,1.18973583984375,0.325845380667597,0.04766951366961,0.1313680798366665
2024-12-07 20:24:08.074748400,1.19974853515625,0.7612601932745426,-0.1043722286224365,0.5025441559627651
2024-12-07 20:24:08.084762600,1.2097626953125,0.9761632462143898,-0.1945095956653356,0.7652263934917748
2024-12-07 20:24:08.094776600,1.219776611328125,0.9610076165281236,-0.1958656864494085,0.9099236182399092
2024-12-07 20:24:08.104790800,1.229790771484375,0.7475824541211128,-0.205642984098196,0.9640554597914218
2024-12-07 20:24:08.114803500,1.239803466796875,0.4649288571871817,-0.2065115836262702,0.9232232447959482
2024-12-07 20:24:08.124817700,1.249817626953125,0.2997076075874268,-0.1638233655005693,0.8470616500049829
2024-12-07 20:24:08.134831600,1.25983154296875,0.3433738769650459,-0.1188894142746925,0.7196995909392834
2024-12-07 20:24:08.144845800,1.269845703125,0.4065325631242245,-0.1751040534496307,0.5286570868626237
2024-12-07 20:24:08.154858500,1.2798583984375,0.3580113279961049,-0.2782318349689245,0.3735968735322356
2024-12-07 20:24:08.164872700,1.289872802734375,0.2503622696600854,-0.3325742505311966,0.2928596413888037
2024-12-07 20:24:08.174886700,1.29988671875,0.1423380944013595,-0.2799526674121618,0.3103757165960967
2024-12-07 20:24:08.184899600,1.309899658203125,0.0185737675666809,-0.2157727484464645,0.3275846255503594
2024-12-07 20:24:08.194913500,1.31991357421875,-0.087066727425903,-0.0770943455964326,0.2681808349452912
2024-12-07 20:24:08.204927700,1.329927734375,-0.1741758326888084,0.1160778639853,0.1363398768998682
2024-12-07 20:24:08.214941400,1.33994140625,-0.269297417885065,0.2505629067987203,-0.0347127092018723
2024-12-07 20:24:08.224954600,1.34995458984375,-0.4054501016497612,0.302231719237566,-0.262853940834105
2024-12-07 20:24:08.234968600,1.359968505859375,-0.5737212403394282,0.2678518952518701,-0.3945145738765597
2024-12-07 20:24:08.244982800,1.369982666015625,-0.534503182542324,0.1603752708733081,-0.2991027735620737
2024-12-07 20:24:08.254996500,1.37999658203125,-0.1873753598712384,0.0380856927663087,-0.1521216756604611
2024-12-07 20:24:08.265009700,1.390009765625,0.195466604129225,-0.0755237352788448,-0.0522065725773572
2024-12-07 20:24:08.275023600,1.400023681640625,0.4758452418684959,-0.2145394072592258,0.0269759774699807
2024-12-07 20:24:08.285037600,1.41003759765625,0.6480547429203987,-0.3074994305074214,0.0959990986831486
2024-12-07 20:24:08.295051500,1.420051513671875,0.7084357079945505,-0.2683697816461324,0.1540532282449305
2024-12-07 20:24:08.305064700,1.430064697265625,0.6777974086247384,-0.0858510680258274,0.2042360399097204
2024-12-07 20:24:08.315078400,1.440078369140625,0.5607973152279854,0.0662128860980272,0.2375510111428797
2024-12-07 20:24:08.325092600,1.450092529296875,0.3330827845752239,0.1114759231477975,0.2394480769358575
2024-12-07 20:24:08.335105500,1.46010546875,0.030863924819231,0.1464244869321584,0.1732878708731383
2024-12-07 20:24:08.345119700,1.47011962890625,-0.2649439719159155,0.1985901429772376,0.1827730537075549
2024-12-07 20:24:08.355133400,1.480133544921875,-0.577474893784523,0.312789353609085,0.1970684133026748
2024-12-07 20:24:08.365147600,1.490147705078125,-0.841333920007944,0.4810562545150518,0.2585084589757025
2024-12-07 20:24:08.375160600,1.50016064453125,-1.0477462079782038,0.7546072381913661,0.3464153635527938
2024-12-07 20:24:08.385174500,1.510174560546875,-1.2163690096497537,0.894889569106698,0.3900418123766779
2024-12-07 20:24:08.395188500,1.5201884765625,-1.364910050344467,1.0318933167427775,0.4430521025523543
2024-12-07 20:24:08.405201700,1.53020166015625,-1.6006033047914503,1.3235679861307144,0.5290487165287137
2024-12-07 20:24:08.415215600,1.540215576171875,-1.885105306071043,1.8190040636539453,0.8043418676972389
2024-12-07 20:24:08.425229600,1.5502294921875,-2.2260370505809783,2.244467610284686,1.181911005861312
2024-12-07 20:24:08.435243500,1.560243408203125,-2.0649358035206795,2.280470651558041,1.4183015949226916
2024-12-07 20:24:08.445256700,1.570256591796875,-1.5708546477377414,2.0745611254781484,1.9134369359336791
2024-12-07 20:24:08.455270700,1.580270751953125,-2.0773896269023417,1.6092565668463703,2.233096905964613
2024-12-07 20:24:08.465284600,1.59028466796875,-1.4096552009999752,0.4875765961945056,1.3442305426701902
2024-12-07 20:24:08.475298600,1.600298583984375,0.6086041915416717,-0.8872159657388925,-0.1988563926979899
2024-12-07 20:24:08.485311500,1.6103115234375,1.59657594897151,-1.6571745023190974,-1.2773738057106732
2024-12-07 20:24:08.495325400,1.620325439453125,1.5703730017006396,-1.841583559730649,-2.001433783816546
2024-12-07 20:24:08.505339600,1.630339599609375,1.4451345106601714,-1.7411498396009206,-2.616847216981649
2024-12-07 20:24:08.515352800,1.640352783203125,0.9801263046264648,-1.5487819321393963,-2.9478111097067594
2024-12-07 20:24:08.525366500,1.650366455078125,0.3142342917203903,-1.267086220452189,-2.937793865822256
2024-12-07 20:24:08.535380500,1.66038037109375,0.3412368649363517,-0.9867723185122012,-2.6455191847145554
2024-12-07 20:24:08.545394700,1.670394775390625,0.5451344666719437,-0.6864835500359535,-2.0948263532631097
2024-12-07 20:24:08.555407600,1.68040771484375,0.4146960689008235,-0.4814163199990987,-1.4402939387612044
2024-12-07 20:24:08.565421600,1.690421630859375,0.3199976775527,-0.4035463138550519,-0.960695481839031
2024-12-07 20:24:08.575435500,1.700435546875,0.2422480646516196,-0.4561795874118804,-0.5975530745647847
2024-12-07 20:24:08.585449700,1.71044970703125,-0.0857388032903894,-0.6251531752824783,-0.2141404710695147
2024-12-07 20:24:08.595462700,1.720462646484375,-0.5774339772522449,-0.8026414935201406,0.2127509164072573
2024-12-07 20:24:08.605476600,1.7304765625,-1.225073709630966,-0.889139627277851,0.5206596583679318
2024-12-07 20:24:08.615490600,1.740490478515625,-1.9498539648354047,-0.9083055155187844,0.6609111557535827
2024-12-07 20:24:08.625503500,1.75050341796875,-2.439671617954969,-0.8837310462325811,0.7428006266720593
2024-12-07 20:24:08.635517700,1.760517578125,-2.2449814050257206,-1.1122755979686976,0.8317878007665276
2024-12-07 20:24:08.645532000,1.770531982421875,-1.6175521015048029,-1.644248969772458,0.9190833685122428
2024-12-07 20:24:08.655545900,1.7805458984375,-1.4062299027264118,-2.134240225893259,0.8453105685539544
2024-12-07 20:24:08.665558800,1.790558837890625,-1.6258429599881172,-2.09583772226274,0.8691066008135676
2024-12-07 20:24:08.675573000,1.800572998046875,-2.062631618231535,-1.7802648754149677,1.2697535399653015
2024-12-07 20:24:08.685587000,1.8105869140625,-2.3009458688318727,-1.7460919721782209,1.733594748046249
2024-12-07 20:24:08.695600600,1.8206005859375,-0.9852700972557068,-2.028272837033868,1.4755809407196938
2024-12-07 20:24:08.705613800,1.83061376953125,1.1743769570946694,-1.9939906282037496,0.0970562065206468
2024-12-07 20:24:08.715628000,1.8406279296875,2.0088941828250886,-1.1176251423031092,-2.1988659889303146
2024-12-07 20:24:08.725642000,1.85064208984375,1.11363227327466,0.3447194463551044,-3.793753692553937
2024-12-07 20:24:08.735655000,1.860655029296875,-0.0107680622518062,2.116311770492792,-3.884535494980216
2024-12-07 20:24:08.745668900,1.8706689453125,-1.266945350676775,4.168141424202918,-2.7432623505860567
2024-12-07 20:24:08.755683000,1.88068310546875,-1.4018050720214843,5.845810433018207,-1.438977887726575
2024-12-07 20:24:08.765696800,1.89069677734375,0.6191548116505146,6.132502053296566,0.0482543278202414
2024-12-07 20:24:08.775710000,1.9007099609375,3.2292087152302265,4.624470649218559,1.3149870586596428
2024-12-07 20:24:08.785724000,1.910723876953125,3.819600373733044,2.233335390895605,1.7384804742611943
2024-12-07 20:24:08.795737900,1.92073779296875,2.053327198791504,-0.0735766928642988,0.8719932621657848
2024-12-07 20:24:08.805751800,1.930751708984375,0.893513020056486,-1.9128180733829736,-0.4491058496333658
2024-12-07 20:24:08.815765000,1.940764892578125,1.5028396806538105,-2.9188153168469664,-1.3037117775380611
2024-12-07 20:24:08.825779000,1.950779052734375,2.486114220178127,-2.8540175582438705,-1.5978683268696068
2024-12-07 20:24:08.835793000,1.96079296875,2.5935505125463005,-1.9147686229288576,-1.499922478032857
2024-12-07 20:24:08.845805800,1.970805908203125,2.032349877214432,-0.6694359691232442,-1.1703304581828415
2024-12-07 20:24:08.855820000,1.980820068359375,1.5363281087577343,0.3154839995205402,-0.787539785978198
2024-12-07 20:24:08.865833700,1.990833740234375,1.1236018786251545,0.8769786493629217,-0.414360407205671
2024-12-07 20:24:08.875848000,2.000847900390625,0.6850608237564564,1.0245710110306738,-0.0984105437390506
2024-12-07 20:24:08.885860900,2.01086083984375,0.1208616641957312,0.934537688884139,0.182075792158395
2024-12-07 20:24:08.895875000,2.020875,-0.4339057232182473,0.6658633713334798,0.4120791644006967
2024-12-07 20:24:08.905888800,2.030888671875,-0.7230242783825844,0.2351601704835891,0.5939299156315624
2024-12-07 20:24:08.915903000,2.040903076171875,-0.6905973420303314,-0.3281920899242162,0.6714521312512457
2024-12-07 20:24:08.925916000,2.050916015625,-0.5282195722281933,-0.7823404637694359,0.6668573508068919
2024-12-07 20:24:08.935929900,2.060929931640625,-0.6143278298854827,-0.9541869767278433,0.6549563390024006
2024-12-07 20:24:08.945943800,2.07094384765625,-0.9123568367362022,-0.8110860812604427,0.6968294413529336
2024-12-07 20:24:08.955957000,2.08095703125,-1.1313023699998854,-0.5320803393095731,0.7251973115727305
2024-12-07 20:24:08.965970700,2.090970703125,-1.2447510545253753,-0.2815454895615577,0.6627237581335008
2024-12-07 20:24:08.975985000,2.10098486328125,-1.4662871888041495,-0.0238034849137067,0.5943569088719785
2024-12-07 20:24:08.985998800,2.110998779296875,-1.7731109120070934,0.3795096047073602,0.6783413062430917
2024-12-07 20:24:08.996012000,2.121011962890625,-1.9333949974656104,0.7737935846984386,0.977765859105438
2024-12-07 20:24:09.006025700,2.131025634765625,-1.902147626286745,0.9764467393308878,1.5832684313699603
2024-12-07 20:24:09.016040000,2.1410400390625,-1.8668202923178672,0.9454133031636476,2.449498307703436
2024-12-07 20:24:09.026054000,2.151053955078125,-1.7687001098275184,0.8540145378828048,3.130889210775494
2024-12-07 20:24:09.036066800,2.16106689453125,-3.135214088237285,1.0662047516673805,3.609543664845824
2024-12-07 20:24:09.046080800,2.171080810546875,-7.078380051362514,1.7891326570034023,3.165079065147042
2024-12-07 20:24:09.056095000,2.181094970703125,-4.048822970861196,2.3948440497130155,0.8132220703758299
2024-12-07 20:24:09.066107600,2.191107666015625,3.7540216938853264,2.0242022265940904,-1.125571717393398
2024-12-07 20:24:09.076121900,2.201121826171875,5.946542259311675,1.4441922613739966,-1.7388965077161789
2024-12-07 20:24:09.086135800,2.2111357421875,3.2976281714618203,1.7511498400896786,-1.308717915262282
2024-12-07 20:24:09.096150000,2.22114990234375,-0.1596083781540393,2.10053903182149,-0.7739286092549562
2024-12-07 20:24:09.106162700,2.23116259765625,-0.22460253611207,1.600329164025187,-1.3560896150290964
2024-12-07 20:24:09.116177000,2.241177001953125,2.190799732983112,-0.0526402878195047,-2.599937875495851
2024-12-07 20:24:09.126190800,2.25119091796875,2.7456536296367644,-1.86127610219419,-2.8748049102067945
2024-12-07 20:24:09.136205000,2.261205078125,2.1052701519966126,-2.84441327907443,-2.4972797573149204
2024-12-07 20:24:09.146217700,2.2712177734375,1.2113830379307269,-3.042406040680408,-1.5622145374253391
2024-12-07 20:24:09.156232000,2.28123193359375,-0.0053261999914422,-2.712417714989185,-0.5446750324666499
2024-12-07 20:24:09.166246000,2.291245849609375,-1.037741458249092,-2.052899328768253,0.2700315773785114
2024-12-07 20:24:09.176258800,2.3012587890625,-2.0422855802953244,-1.3730161999106407,0.9904653278112412
2024-12-07 20:24:09.186272800,2.311272705078125,-3.027721681767702,-0.7925970693677663,1.6771970073893665
2024-12-07 20:24:09.196287000,2.321286865234375,-4.003317941749096,-0.3807394387632608,2.254040909793973
2024-12-07 20:24:09.206301000,2.331301025390625,-4.1213492778897285,-0.4457657454252243,2.491007837438583
2024-12-07 20:24:09.216313900,2.34131396484375,-3.226770089906454,-1.3119780861020087,1.891314682105184
2024-12-07 20:24:09.226327800,2.351327880859375,-2.1714590726971625,-2.7986411234587427,0.6407140247687697
2024-12-07 20:24:09.236342000,2.361342041015625,-1.894600279647112,-4.259949939328432,-0.3496928508535027
2024-12-07 20:24:09.246355700,2.371355712890625,-1.8457248973190783,-5.332883706989884,-0.69128305927217
2024-12-07 20:24:09.256369000,2.381368896484375,-1.4721721551895142,-5.7609413617670535,-0.3227762023553252
2024-12-07 20:24:09.266382800,2.3913828125,-0.8154933763086796,-6.044089610350132,0.2030626122161745
2024-12-07 20:24:09.276396800,2.401396728515625,-0.0289794445131905,-6.246213772672414,0.4455839591175317
2024-12-07 20:24:09.286409700,2.41140966796875,0.9228735545754432,-5.374688128018379,0.3661553253546357
2024-12-07 20:24:09.296424000,2.421423828125,1.7147160061836242,-2.4725825384318827,0.3340267874270677
2024-12-07 20:24:09.306438000,2.43143798828125,2.602449273794889,1.6763672785669563,1.509958865009248
2024-12-07 20:24:09.316451800,2.441451904296875,5.856456914716959,5.458848174217343,3.4205750444337726
2024-12-07 20:24:09.326464800,2.45146484375,9.344733914762736,7.3497951920539135,4.643883497957885
2024-12-07 20:24:09.336479000,2.46147900390625,6.459127040034532,8.188331005775929,5.35998974058032
2024-12-07 20:24:09.346492700,2.47149267578125,-4.93525392370224,9.172702692887189,5.223289944326877
2024-12-07 20:24:09.356507000,2.4815068359375,-11.917939558416604,7.008745374122261,1.0451932355597615
2024-12-07 20:24:09.366519800,2.491519775390625,-2.6981308309614658,2.328513674715161,-3.354821008019149
2024-12-07 20:24:09.376533800,2.50153369140625,3.7521927248924967,-1.4239900158226488,-4.52030767943263
2024-12-07 20:24:09.386547700,2.511547607421875,4.898032154288888,-3.477487310484052,-5.046689514839649
2024-12-07 20:24:09.396561000,2.521560791015625,3.53168710270524,-3.3038229344487187,-4.509890038053691
2024-12-07 20:24:09.406574800,2.531574951171875,2.8192425974607467,-2.354053774163127,-3.552009759765863
2024-12-07 20:24:09.416588800,2.5415888671875,2.48062555963397,-1.0641934118449687,-2.8743071898177264
2024-12-07 20:24:09.426602800,2.551602783203125,2.011280201178789,0.6008166064053774,-2.2912451435506345
2024-12-07 20:24:09.436616000,2.561615966796875,1.6609247947633266,2.054367647755146,-2.2487542015627024
2024-12-07 20:24:09.446630000,2.5716298828125,1.3328513627827168,2.916137622070312,-2.676827053909004
2024-12-07 20:24:09.456643800,2.581643798828125,0.6465571978390217,3.0391344716638327,-2.7109324448674914
2024-12-07 20:24:09.466657000,2.591656982421875,-0.0528360843862406,2.4193016146212813,-2.100009747250378
2024-12-07 20:24:09.476671000,2.6016708984375,-0.4728220946550369,1.2808254074692726,-1.156214400677383
2024-12-07 20:24:09.486684700,2.6116845703125,-0.7771580926954745,0.3909007672935724,-0.5030383692204952
2024-12-07 20:24:09.496699000,2.621698974609375,-0.6745861914932727,-0.089039050412178,-0.1346957629546523
2024-12-07 20:24:09.506712000,2.631712158203125,-0.2158826385617256,-0.3625280747681856,0.1130661149486899
2024-12-07 20:24:09.516725800,2.641725830078125,0.1177203704953193,-0.5166483768999576,0.1276154493048787
2024-12-07 20:24:09.526739700,2.65173974609375,0.1596060400664806,-0.5289519781559705,-0.117808633300662
2024-12-07 20:24:09.536754000,2.66175390625,0.0417675413505174,-0.454434789571166,-0.4180293049767613
2024-12-07 20:24:09.546766800,2.671766845703125,-0.1404185610482469,-0.4155851266950369,-0.4198711334511637
2024-12-07 20:24:09.556780800,2.68178076171875,-0.2605330601384863,-0.3680091365277766,-0.1260834174320101
2024-12-07 20:24:09.566794800,2.691794677734375,-0.4603121937045827,-0.3730740187019109,0.2728144860953092
2024-12-07 20:24:09.576808000,2.701807861328125,-0.7776140197694301,-0.4541127180099487,0.6735150551304221
2024-12-07 20:24:09.586822000,2.71182177734375,-1.163702418345213,-0.6043856970638036,1.0626610877111553
2024-12-07 20:24:09.596835800,2.7218359375,-1.3821452627837658,-0.7234492988616228,1.315504506662488
2024-12-07 20:24:09.606849800,2.731849853515625,-1.4233645774006842,-0.7787848171144723,1.5120342099785804
2024-12-07 20:24:09.616862700,2.74186279296875,-1.6633599129557608,-0.7335480835497379,1.736894812504947
2024-12-07 20:24:09.626877000,2.751876953125,-1.749464663481712,-0.4870324063152074,2.051625363309681
2024-12-07 20:24:09.636891000,2.761890869140625,-1.8878057972013949,-0.1412824478685855,2.335114680415392
2024-12-07 20:24:09.646904800,2.77190478515625,-2.587999892681837,0.2002460934907197,2.673084652510285
2024-12-07 20:24:09.656917800,2.781917724609375,-3.295869929617643,0.3226110749214887,3.045698067963123
2024-12-07 20:24:09.666932000,2.791931884765625,-3.3480092821776863,0.3026753713518381,3.326423473313451
2024-12-07 20:24:09.676945700,2.801945556640625,-2.89516146953702,0.4726473226100206,3.19747794444859
2024-12-07 20:24:09.686959600,2.811959716796875,-1.5352560956120491,0.9953115987986324,2.3194492015108463
2024-12-07 20:24:09.696972800,2.821972900390625,0.8563526254415511,1.6299731916606426,1.0123714546710252
2024-12-07 20:24:09.706986800,2.83198681640625,1.9980548089027403,2.306903900453448,-0.0956356721982359
2024-12-07 20:24:09.717000700,2.842000732421875,1.0419090993225577,2.7851275618910787,-0.7807552404046059
2024-12-07 20:24:09.727014000,2.852013916015625,0.1367173136438243,2.857224245330692,-1.2801526227742432
2024-12-07 20:24:09.737027800,2.86202783203125,0.1615256282185204,2.6456238141328097,-1.5290379517495631
2024-12-07 20:24:09.747041800,2.872041748046875,0.3585153319954872,2.1680606624305248,-1.5862465703979134
2024-12-07 20:24:09.757055700,2.8820556640625,0.4880032971739769,1.3358341779857874,-1.6247858521506189
2024-12-07 20:24:09.767069000,2.89206884765625,1.5098890146434307,0.3168704854428767,-1.686118272730708
2024-12-07 20:24:09.777082600,2.90208251953125,2.6154969714164733,-0.6243880361288786,-1.5161670719996094
2024-12-07 20:24:09.787096800,2.912096923828125,2.727418884766102,-1.3457184431403877,-1.1206985583990812
2024-12-07 20:24:09.797109800,2.92210986328125,2.019693809258938,-1.949290485733748,-0.7817185324788093
2024-12-07 20:24:09.807123700,2.932123779296875,1.2476952912837267,-2.3423352793186902,-0.5687924056351185
2024-12-07 20:24:09.817137700,2.9421376953125,0.543354597517848,-2.4123452196121216,-0.4288444212406873
2024-12-07 20:24:09.827152000,2.95215185546875,-0.1607552101016044,-2.2294997582554816,-0.1468967806190252
2024-12-07 20:24:09.837164800,2.962164794921875,-0.5700684169203043,-1.917969464796781,0.1504343070954084
2024-12-07 20:24:09.847178800,2.9721787109375,-0.9570639934688806,-1.550382937595248,0.4315481272414326
2024-12-07 20:24:09.857192700,2.982192626953125,-1.3511831382870674,-1.2055763974785805,0.727924982970953
2024-12-07 20:24:09.867207000,2.99220703125,-1.6408423761993645,-0.9532774606674908,0.994600235658884
2024-12-07 20:24:09.877219600,3.002219482421875,-1.8887047918677329,-0.8464268592327833,1.1452636753350496
2024-12-07 20:24:09.887233800,3.01223388671875,-1.9074767123550176,-0.9259294350147248,1.0819017947539686
2024-12-07 20:24:09.897247700,3.022247802734375,-1.4725029945790766,-1.2038865446954965,0.7730652704238891
2024-12-07 20:24:09.907261000,3.032260986328125,-0.7762842324703931,-1.7096067003458737,0.4295522772490978
2024-12-07 20:24:09.917274600,3.042274658203125,-0.3704109369724989,-2.251802775478363,0.194506965316832
2024-12-07 20:24:09.927288800,3.052288818359375,-0.207563704761397,-2.605603938433528,-0.0146042794138193
2024-12-07 20:24:09.937302800,3.062302734375,-0.1799585077434778,-2.652718156307936,-0.1687716355577111
2024-12-07 20:24:09.947315700,3.072315673828125,-0.3788070093959569,-2.449986091220379,-0.2976017213493585
2024-12-07 20:24:09.957329700,3.08232958984375,-0.4742787232041359,-2.1342261973679064,-0.27691607619524
2024-12-07 20:24:09.967343900,3.09234375,-0.6255278538137674,-1.9074919099241487,0.3063072981134057
2024-12-07 20:24:09.977357800,3.10235791015625,-0.508764345651865,-1.8021371000051496,1.5493471648067234
2024-12-07 20:24:09.987370800,3.112370849609375,-0.1548024209107272,-1.767583673018217,2.7375299444139003
2024-12-07 20:24:09.997384700,3.122384765625,0.1559492893909104,-1.8228759366512293,3.3191599120512603
2024-12-07 20:24:10.007399000,3.13239892578125,0.8929863658338785,-2.0724831501603127,2.936548834197223
2024-12-07 20:24:10.017411600,3.14241162109375,1.5062018505632877,-2.185029332888126,2.164514660386741
2024-12-07 20:24:10.027425800,3.15242578125,2.0518635559797285,-1.0912345635056495,1.2680994891479611
2024-12-07 20:24:10.037439700,3.162439697265625,1.710406326290965,1.9333499892801045,-0.0255360077947378
2024-12-07 20:24:10.047454000,3.172453857421875,0.8419020752847194,6.426181632766127,-0.085331428065896
2024-12-07 20:24:10.057466600,3.182466552734375,2.071474265378713,10.645767413002252,1.3335831841886043
2024-12-07 20:24:10.067480800,3.192480712890625,3.474370055246353,11.505749919378756,0.9415919913098216
2024-12-07 20:24:10.077494800,3.202494873046875,1.6475310601830482,8.32005476718247,-2.716972309553623
2024-12-07 20:24:10.087508700,3.2125087890625,-2.819760483855009,2.8608997189730405,-5.460363254955411
2024-12-07 20:24:10.097521700,3.222521728515625,-5.496896457582712,-1.2482774750858543,-6.515105532366037
2024-12-07 20:24:10.107536000,3.232535888671875,-2.7225644304722545,-3.707042500567436,-6.22775807852745
2024-12-07 20:24:10.117549800,3.2425498046875,0.8328782263517379,-4.890025373443961,-5.422693741774559
2024-12-07 20:24:10.127562800,3.252562744140625,2.9518793820589777,-4.736032497084141,-4.571049147893488
2024-12-07 20:24:10.137576700,3.26257666015625,3.55727513294816,-3.668166534206271,-3.998957116191089
2024-12-07 20:24:10.147591000,3.2725908203125,2.5969863322138784,-2.157379693940282,-3.5826042199939487
2024-12-07 20:24:10.157604600,3.2826044921875,1.8795874194324016,-0.2449228550851345,-2.1762743640244007
2024-12-07 20:24:10.167617800,3.29261767578125,1.7179343837082386,1.174802489030361,-0.068736559356749
2024-12-07 20:24:10.177631700,3.3026318359375,1.0913619892776012,1.8898545464247465,1.4730126976668834
2024-12-07 20:24:10.187645700,3.312645751953125,0.2503764808485284,2.162329425302148,2.425219606493413
2024-12-07 20:24:10.197659600,3.32265966796875,0.0787736404528841,1.980958128151297,2.783864410087466
2024-12-07 20:24:10.207672800,3.3326728515625,0.385077175706625,1.4149977310717106,2.486231416817009
2024-12-07 20:24:10.217686800,3.342686767578125,0.5187795437097549,0.9083949473679064,2.0600901170551777
2024-12-07 20:24:10.227700700,3.35270068359375,0.2734194662511348,0.5294271944522857,1.1057774681210517
2024-12-07 20:24:10.237714000,3.3627138671875,-0.032477205234766,0.0631347938269376,-0.2265267821729183
2024-12-07 20:24:10.247727900,3.372727783203125,-0.1757178014338016,-0.4071691805273294,-1.3069891917735337
2024-12-07 20:24:10.257741600,3.382741455078125,-0.182470198303461,-0.6572358282417059,-2.063154765322804
2024-12-07 20:24:10.267755800,3.392755859375,-0.0038590500483289,-0.6486193910658359,-2.448608957648277
2024-12-07 20:24:10.277769000,3.40276904296875,0.1828875104000791,-0.4876590137809514,-2.460107087740302
2024-12-07 20:24:10.287782700,3.41278271484375,-0.1126760561851784,-0.3344774538040161,-2.199203988713026
2024-12-07 20:24:10.297796600,3.422796630859375,-0.6530431257922202,-0.0924894831269979,-1.6299962802752852
2024-12-07 20:24:10.307810800,3.432810791015625,-0.7564378876846283,0.1654214483469724,-0.8786480438798665
2024-12-07 20:24:10.317824000,3.442823974609375,-0.3673252824494615,0.3681470836937427,-0.2529948101207613
2024-12-07 20:24:10.327837700,3.452837646484375,0.1749065581161528,0.5469739570587873,0.2280871633574366
2024-12-07 20:24:10.337851600,3.4628515625,0.5437596711874008,0.6472533634096383,0.5326785974636674
2024-12-07 20:24:10.347864800,3.47286474609375,0.6341127998728304,0.6118360130697489,0.6762871501922607
2024-12-07 20:24:10.357878800,3.482878662109375,0.3978933295946568,0.402460856705904,0.6740718122303485
2024-12-07 20:24:10.367892700,3.492892822265625,0.0500583815675228,0.1371492935866117,0.6349421633690595
2024-12-07 20:24:10.377906700,3.50290673828125,-0.1569873820006847,-0.1511947700738906,0.5613391670197249
2024-12-07 20:24:10.387919600,3.512919677734375,-0.0850490309279412,-0.3443336619079112,0.5572609577953815
2024-12-07 20:24:10.397933800,3.522933837890625,0.1906955903351306,-0.4659025245249271,0.6975771909803151
2024-12-07 20:24:10.407947800,3.53294775390625,0.2510544897079467,-0.5736883609831332,0.8471867376893758
2024-12-07 20:24:10.417961700,3.542961669921875,0.1556207698225974,-0.6173743579745292,0.9473144606098532
2024-12-07 20:24:10.427974700,3.552974609375,0.1794785422068089,-0.567370263877511,1.044875255651772
2024-12-07 20:24:10.437988900,3.56298876953125,0.2237981609266251,-0.4099228631496429,1.1624971342086792
2024-12-07 20:24:10.448002800,3.5730029296875,0.0972772288601845,-0.2373287466943263,1.2339201561704278
2024-12-07 20:24:10.458015700,3.583015625,-0.0850759920001029,-0.1474859786838293,1.2280229148253798
2024-12-07 20:24:10.468029700,3.59302978515625,-0.0939712461173534,-0.0531774634361267,1.25627753392905
2024-12-07 20:24:10.478044000,3.6030439453125,-0.0860358500082045,-0.055936991277337,1.2416378909409045
2024-12-07 20:24:10.488057900,3.613057861328125,-0.0434754960458725,-0.1809650544375181,1.152333175329864
2024-12-07 20:24:10.498070800,3.62307080078125,0.0916132848143577,-0.382477222341299,0.9181073630869389
2024-12-07 20:24:10.508084700,3.633084716796875,0.2916472699243575,-0.6127917063593864,0.6222422562718392
2024-12-07 20:24:10.518099000,3.643098876953125,0.5207832847476005,-0.72444298607409,0.3482359300434589
2024-12-07 20:24:10.528113000,3.65311279296875,0.6031365737855434,-0.6744745478123426,0.108517073342204
2024-12-07 20:24:10.538125800,3.663125732421875,0.4135083204209804,-0.6349509311974049,-0.1123506601557135
2024-12-07 20:24:10.548139800,3.673139892578125,0.1088671288888901,-0.5441086307555437,-0.1716626808241009
2024-12-07 20:24:10.558154000,3.683154052734375,-0.0489841033995151,-0.3411152843832969,-0.0425982017546892
2024-12-07 20:24:10.568166700,3.693166748046875,-0.0475741635363548,-0.1419055482029914,0.0269546424210071
2024-12-07 20:24:10.578180900,3.703180908203125,-0.0426443789839744,-0.0065548284709453,0.0835004132464528
2024-12-07 20:24:10.588194800,3.71319482421875,-0.2583236769933253,0.0845101748108863,0.0850716080859303
2024-12-07 20:24:10.598208800,3.723208740234375,-0.7032183386724442,0.0772527510285377,0.0147574241489171
2024-12-07 20:24:10.608221700,3.7332216796875,-1.0964590932209044,0.0357294850289821,-0.3100868166521191
2024-12-07 20:24:10.618236000,3.74323583984375,-1.5424761099934576,-0.012894552886486,-0.9770794842764736
2024-12-07 20:24:10.628249900,3.753249755859375,-2.188856782221794,-0.0977823288381099,-1.8432649369463323
2024-12-07 20:24:10.638263800,3.763263916015625,-2.5092589489221573,-0.3002496055096387,-2.4665403356581925
2024-12-07 20:24:10.648277500,3.773277587890625,-1.9567302803456783,-0.4431541016221046,-2.256489910381287
2024-12-07 20:24:10.658291500,3.78329150390625,-0.8420155455965548,-0.4013993649542332,-1.4248331886485217
2024-12-07 20:24:10.668305700,3.7933056640625,0.3722912708263844,-0.4043324957966804,-0.7294134679630399
2024-12-07 20:24:10.678318600,3.803318603515625,1.3885491384766997,-0.2515916653245687,-0.1366959968611598
2024-12-07 20:24:10.688332500,3.81333251953125,2.107707608276605,0.310810747012496,0.5022859434179962
2024-12-07 20:24:10.698346500,3.823346435546875,2.6355659459769725,1.0173726239591836,1.0987992996715008
2024-12-07 20:24:10.708360700,3.833360595703125,2.656315304017067,1.606010716792941,1.4634693549044429
2024-12-07 20:24:10.718373600,3.84337353515625,1.5535656592845917,1.914337830296159,1.5278927272371947
2024-12-07 20:24:10.728387600,3.8533876953125,-0.4635715242940932,1.9360674315452573,1.6473144948229193
2024-12-07 20:24:10.738401500,3.863401611328125,-2.338105094403028,1.8459096062362192,1.7954218202754857
2024-12-07 20:24:10.748415700,3.873415771484375,-3.452159392482042,1.7238678654104471,1.4690068230263889
2024-12-07 20:24:10.758428700,3.8834287109375,-3.3321336676537987,1.398273390763998,0.7576888375937938
2024-12-07 20:24:10.768442600,3.893442626953125,-2.2294845606863496,0.9325561596781016,0.2451796063251793
2024-12-07 20:24:10.778456600,3.90345654296875,-0.7866063045203685,0.5882224977701902,0.1265130410209298
2024-12-07 20:24:10.788469500,3.913469482421875,0.2825895187217742,0.3627425943017006,0.3157452808052301
2024-12-07 20:24:10.798483700,3.923483642578125,0.7307458856105804,0.2469897244870662,0.6341014747612178
2024-12-07 20:24:10.808497700,3.93349755859375,0.7011258233726024,0.1748170532017946,1.024383525634557
2024-12-07 20:24:10.818511600,3.94351171875,0.2571977782359346,0.0137853642463684,1.482245220914483
2024-12-07 20:24:10.828524500,3.953524658203125,-0.1922959747364744,-0.3380786931663751,1.8036271924324327
2024-12-07 20:24:10.838538800,3.963538818359375,-0.4675590595602989,-0.6044225219428538,1.928260703317076
2024-12-07 20:24:10.848552700,3.973552734375,-0.5530524001896381,-0.6055886431127786,1.8935532548122107
2024-12-07 20:24:10.858566400,3.98356640625,-0.5603402191102504,-0.4446446324408054,1.954468472893536
2024-12-07 20:24:10.868579600,3.99357958984375,-0.3549742983877658,-0.3167886523783206,2.12611624840945
2024-12-07 20:24:10.878593800,4.00359375,-0.2980068315515294,-0.3407861985594034,2.233925173482299
2024-12-07 20:24:10.888607500,4.013607421875,-0.5323860442578793,-0.4452203865021467,2.05522777171582
2024-12-07 20:24:10.898620700,4.02362060546875,-0.5260486579298973,-0.5978104103267192,1.6194842386111616
2024-12-07 20:24:10.908634600,4.033634521484375,-0.6404407607853412,-0.5951993510454893,1.1481696259096263
2024-12-07 20:24:10.918648800,4.04364892578125,-3.210342686718702,-0.2375765839755535,0.3994192970529198
2024-12-07 20:24:10.928662500,4.05366259765625,2.1283552595078943,-0.3651958326727151,-0.5808806105747819
2024-12-07 20:24:10.938675700,4.06367578125,1.3707763120293617,-0.2087532250732183,-0.7018976845279336
2024-12-07 20:24:10.948689700,4.073689697265625,-1.181365500807762,0.0180704942196607,0.0532201335340738
2024-12-07 20:24:10.958703600,4.08370361328125,-1.3850117581307888,0.2784592139840126,0.5392717121183872
2024-12-07 20:24:10.968717600,4.093717529296875,-1.037896356549859,0.4515969357967376,0.6709276689857244
2024-12-07 20:24:10.978730800,4.103730712890625,-0.5592904177963733,0.3894207578688859,0.4567731693908572
2024-12-07 20:24:10.988744400,4.113744384765625,-0.338252296167612,0.2189899569272994,0.248965116213262
2024-12-07 20:24:10.998758700,4.123758544921875,-0.3204945576915517,-0.0660439592719078,0.0271726690858602
2024-12-07 20:24:11.008771600,4.133771484375,-0.172099044681061,-0.4761047695875167,-0.407852486616373
2024-12-07 20:24:11.018785800,4.143785888671875,-0.1147714940944686,-1.0266367113888264,-0.985834745401144
2024-12-07 20:24:11.028799500,4.153799560546875,-0.085322075715661,-1.6305027684926985,-1.561946241877973
2024-12-07 20:24:11.038813700,4.163813720703125,0.0963455740332603,-2.077005011498928,-2.0580238321751354
2024-12-07 20:24:11.048826600,4.17382666015625,0.4512982085784897,-2.056189602485299,-2.267223924233019
2024-12-07 20:24:11.058840600,4.183840576171875,0.4862754504680633,-1.762584841817617,-2.1061220926508306
2024-12-07 20:24:11.068854500,4.1938544921875,0.5399497575104236,-1.5813655203580856,-1.7025898073211312
2024-12-07 20:24:11.078868700,4.20386865234375,0.8026064222067594,-1.460926538553834,-1.1526023476600646
2024-12-07 20:24:11.088881700,4.213881591796875,1.1215350092232226,-1.1433481971025463,-0.5054685189768672
2024-12-07 20:24:11.098895600,4.2238955078125,1.3470242650419473,-0.7711293339252472,-0.0140700264066457
2024-12-07 20:24:11.108909600,4.23390966796875,1.4848352374076843,-0.5801093339413405,0.2342810495615005
2024-12-07 20:24:11.118922800,4.2439228515625,1.169632977437973,-0.6649252137005329,0.1130465334653854
2024-12-07 20:24:11.128936400,4.2539365234375,0.3689069621503353,-0.9390887763172387,-0.1862216597914695
2024-12-07 20:24:11.138950700,4.26395068359375,-0.4393342510730028,-1.213007424262166,-0.4462611277267336
2024-12-07 20:24:11.148964600,4.273964599609375,-0.9691443073630333,-1.4131284300684928,-0.7110159337460994
2024-12-07 20:24:11.158977500,4.2839775390625,-1.2234411399930716,-1.4595803846418858,-0.92279552090317
2024-12-07 20:24:11.168991500,4.293991455078125,-1.2607359746426343,-1.4100579365819692,-0.7662120435282588
2024-12-07 20:24:11.179005700,4.304005615234375,-1.0534551602095366,-1.158580837547779,-0.4383510852545499
2024-12-07 20:24:11.189019600,4.31401953125,-0.8319827388167381,-0.8038999691486358,-0.1334817109897732
2024-12-07 20:24:11.199032600,4.324032470703125,-0.4847732292115688,-0.7687836475819348,0.3026516982153058
2024-12-07 20:24:11.209046500,4.334046630859375,0.2207277405053377,-1.0657733745127915,0.5089595759630203
2024-12-07 20:24:11.219060700,4.344060791015625,1.4554238494843244,-1.3555956940323113,0.1843266398251056
2024-12-07 20:24:11.229073400,4.354073486328125,2.349859245082736,-1.0599135425686836,-0.1667544505164027
2024-12-07 20:24:11.239087600,4.364087646484375,1.931871733421087,0.9264543356716632,-0.7587637733489274
2024-12-07 20:24:11.249101600,4.3741015625,0.5206640422821045,5.164560107460618,-0.5324342673137784
2024-12-07 20:24:11.259115800,4.38411572265625,1.177272094014287,8.729632762417197,1.52079122466892
2024-12-07 20:24:11.269128400,4.39412841796875,5.679027633190155,9.010652766799929,2.3366052112340925
2024-12-07 20:24:11.279142700,4.404142578125,8.057650615942478,8.132759340679645,-0.1649389255270361
2024-12-07 20:24:11.289156600,4.414156494140625,1.1407260319054129,5.482200992754102,-3.966206062451005
2024-12-07 20:24:11.299170600,4.424170654296875,-5.615329944783449,0.6260094998508692,-5.036320681038498
2024-12-07 20:24:11.309183500,4.43418359375,-1.6076719280034302,-2.617897602817416,-4.935485394370556
2024-12-07 20:24:11.319197700,4.44419775390625,2.065148569488525,-4.49000314206183,-5.307867923676968
2024-12-07 20:24:11.329211600,4.454211669921875,2.8603993682354685,-4.510586495885253,-5.064278947544097
2024-12-07 20:24:11.339224600,4.464224609375,1.87104813914597,-2.3039210852503773,-4.1538413884326815
2024-12-07 20:24:11.349238500,4.474238525390625,1.422631586951017,0.1403530580639839,-2.914078059192001
2024-12-07 20:24:11.359252700,4.484252685546875,1.0284510673344134,1.7845827386140822,-1.3098726382553576
2024-12-07 20:24:11.369266400,4.494266357421875,0.0541021770656108,2.582177470138669,0.2223798916265368
2024-12-07 20:24:11.379279600,4.504279541015625,-0.9846329683959484,2.5377666660040616,1.0392679371640086
2024-12-07 20:24:11.389293600,4.51429345703125,-1.402245801526308,1.6208265931308268,1.1051625510931014
2024-12-07 20:24:11.399307800,4.524307861328125,-1.037325278663635,0.1348269881188869,0.8078487067744136
2024-12-07 20:24:11.409321500,4.534321533203125,-0.9430828143894672,-1.071705102649331,0.5362248917683958
2024-12-07 20:24:11.419334700,4.544334716796875,-1.0601321537554262,-1.4034528392285108,0.4258849869132041
2024-12-07 20:24:11.429348600,4.5543486328125,-1.0415876122832295,-1.107507652914524,0.422897495535016
2024-12-07 20:24:11.439362600,4.564362548828125,-0.9121884944319724,-0.7371925775319338,0.3698775607481598
2024-12-07 20:24:11.449375700,4.574375732421875,-0.8830676869530231,-0.4323872084140777,0.4621212524205446
2024-12-07 20:24:11.459389700,4.5843896484375,-0.6403975061655044,-0.3284130391985178,0.7331175831779837
2024-12-07 20:24:11.469403400,4.5944033203125,-0.1078618608364835,-0.2995323971509933,0.8279816864818335
2024-12-07 20:24:11.479417600,4.60441748046875,0.4413678027272224,-0.2748112128704786,0.7369953013941645
2024-12-07 20:24:11.489430800,4.6144306640625,0.7925298493504523,-0.2758160059988498,0.6934858300134539
2024-12-07 20:24:11.499444700,4.62444482421875,0.7630687770664691,-0.381703315359354,0.6997013435274362
2024-12-07 20:24:11.509458400,4.63445849609375,0.4711315842848271,-0.4759826045125722,0.6661079937443137
2024-12-07 20:24:11.519472600,4.64447265625,0.119436490230821,-0.5206833315044641,0.5892229069843888
2024-12-07 20:24:11.529485800,4.65448583984375,0.0655869362194091,-0.5124316359877586,0.4403998344779014
2024-12-07 20:24:11.539499500,4.66449951171875,0.1341161729684099,-0.4480027106970548,0.1830889147236943
2024-12-07 20:24:11.549513500,4.674513427734375,0.1222785452563315,-0.3422732222467661,-0.1815221037983894
2024-12-07 20:24:11.559526700,4.684526611328125,0.0124118108708411,-0.2695779883921146,-0.5416118455037474
2024-12-07 20:24:11.569540600,4.69454052734375,0.0058464610058814,-0.1708358746111392,-0.7602303387701511
2024-12-07 20:24:11.579554600,4.704554443359375,0.1778899578411132,-0.0448211385011672,-0.7015729826182127
2024-12-07 20:24:11.589568500,4.714568603515625,0.1931494862932711,0.1674520773917436,-0.4739481760755181
2024-12-07 20:24:11.599581700,4.724581787109375,-0.095592709839344,0.3955529770135879,-0.1856470747739076
2024-12-07 20:24:11.609595600,4.734595703125,-0.4217887305755168,0.5673159033417702,0.1283808807194232
2024-12-07 20:24:11.619609600,4.744609619140625,-0.1399264301497489,0.6036480304390192,0.3974968045577406
2024-12-07 20:24:11.629623600,4.75462353515625,0.0394434640508145,0.4449164351195097,0.3822825765520334
2024-12-07 20:24:11.639636500,4.764636474609375,-0.0551589926421642,0.2611070971667766,0.323958982399106
2024-12-07 20:24:11.649650700,4.774650634765625,0.0186767164845019,0.0642979923874139,0.2718064780965447
2024-12-07 20:24:11.659664600,4.78466455078125,-0.0341103593945503,-0.0762123020648956,0.189659817546606
2024-12-07 20:24:11.669678600,4.7946787109375,-0.0423789329808205,-0.1550134515792131,0.0625114012315869
2024-12-07 20:24:11.679691500,4.80469140625,0.242127598343417,-0.1736374880284071,-0.0039452304944396
2024-12-07 20:24:11.689705700,4.814705810546875,0.5487386286437511,-0.1852747343301773,-0.0548696543067693
2024-12-07 20:24:11.699719700,4.8247197265625,0.6598375351727008,-0.221939454382658,-0.0026566519886255
2024-12-07 20:24:11.709732900,4.83473291015625,0.5303694437384605,-0.2724608503520488,0.0276662978217005
2024-12-07 20:24:11.719746600,4.84474658203125,0.3659562956511974,-0.2632797650307417,0.0806844790428876
2024-12-07 20:24:11.729760800,4.8547607421875,0.1565302128177136,-0.1801391250073909,0.1609738212883472
2024-12-07 20:24:11.739774700,4.864774658203125,-0.1146388441581279,-0.1165396362781524,0.1745703849643468
2024-12-07 20:24:11.749787600,4.87478759765625,-0.2980933773238212,-0.1488297945082187,0.0731011843070387
2024-12-07 20:24:11.759801600,4.884801513671875,-0.2571218999881297,-0.214369311389327,-0.0892453866392374
2024-12-07 20:24:11.769815800,4.89481591796875,-0.1261397507291287,-0.2637187409698963,-0.2612330616340041
2024-12-07 20:24:11.779828500,4.904828369140625,-0.0381097312290221,-0.2544423785805702,-0.3404097664624452
2024-12-07 20:24:11.789842700,4.9148427734375,0.1184883591931313,-0.1985457193136215,-0.3190487062647938
2024-12-07 20:24:11.799856600,4.924856689453125,0.1070798070807009,-0.1529723011404276,-0.1758703616470098
2024-12-07 20:24:11.809870600,4.93487060546875,0.0843313111126422,-0.0741220517873764,0.1044040850654244
2024-12-07 20:24:11.819883500,4.944883544921875,0.3574479950249195,0.1286971070617437,0.6260702901273966
2024-12-07 20:24:11.829897700,4.954897705078125,0.74537522640042,0.3295154474824667,1.2416679938182231
2024-12-07 20:24:11.839911700,4.96491162109375,1.132235193870589,0.1919774468392133,1.5934176310710608
2024-12-07 20:24:11.849925600,4.974925537109375,1.3130103517591951,-0.2082242327630519,1.6670349482066928
2024-12-07 20:24:11.859938600,4.9849384765625,1.0474761588651686,-0.6442898374289274,1.5627382690384983
2024-12-07 20:24:11.869952800,4.994952880859375,0.3752267397563904,-1.0084370378315448,1.3763622954681516
2024-12-07 20:24:11.879966700,5.004966796875,-0.3524807280063629,-1.171568913936615,1.2010215106531976
2024-12-07 20:24:11.889979600,5.014979736328125,-1.1191443146944045,-1.1698550957560538,0.9888732363142072
2024-12-07 20:24:11.899993600,5.02499365234375,-1.702052923965454,-1.1055202784895897,0.7769600859053433
2024-12-07 20:24:11.910007800,5.0350078125,-1.9809633888483047,-0.8582564132362603,0.6892573986634611
2024-12-07 20:24:11.920021800,5.045021728515625,-1.960949359345436,-0.5392606062024832,0.6504755403265357
2024-12-07 20:24:11.930034700,5.05503466796875,-1.7212147205531596,-0.240848737514019,0.6522238452985882
2024-12-07 20:24:11.940048600,5.065048583984375,-1.3759282879650592,-0.0558411296874284,0.6655673109963536
2024-12-07 20:24:11.950062800,5.075062744140625,-1.2029355275809763,0.0264817642122507,0.6636806204669177
2024-12-07 20:24:11.960076500,5.08507666015625,-1.227632746464014,0.0167564890116453,0.6753542532563209
2024-12-07 20:24:11.970089700,5.09508984375,-1.364653883626312,-0.0360363590210676,0.5926118187703192
2024-12-07 20:24:11.980103700,5.105103759765625,-1.805392886930704,-0.0842120686471462,0.3598722995623946
2024-12-07 20:24:11.990117600,5.11511767578125,-2.492626963073015,-0.1230991409242153,0.0582680645734071
2024-12-07 20:24:12.000131600,5.125131591796875,-3.077432930397987,-0.0916542013466358,-0.0537776212863624
2024-12-07 20:24:12.010144800,5.135144775390625,-3.245998521989584,0.1339355922371149,0.326795667129755
2024-12-07 20:24:12.020158700,5.14515869140625,-2.9592390971720217,0.704537677642703,1.212171850220859
2024-12-07 20:24:12.030172700,5.155172607421875,-2.254234240408987,1.85487909463346,2.379850040329248
2024-12-07 20:24:12.040185600,5.165185546875,-1.3379928173243998,3.5176416262179613,3.534827738818526
2024-12-07 20:24:12.050199800,5.17519970703125,-0.7025590710461139,5.139067938807607,4.126035389879346
2024-12-07 20:24:12.060213500,5.185213623046875,-0.7577916403811424,5.362867341843248,3.3029286159574984
2024-12-07 20:24:12.070227700,5.195227783203125,-1.648157667648792,3.915423969718814,1.4289797869339584
2024-12-07 20:24:12.080240600,5.20524072265625,-1.9564941335022448,2.547739778485894,0.972572528246045
2024-12-07 20:24:12.090254600,5.215254638671875,-1.1700631855487822,1.2770289377957582,1.0480246595934033
2024-12-07 20:24:12.100268500,5.2252685546875,0.7222913609981536,0.0147919109404087,0.1865394935689866
2024-12-07 20:24:12.110282800,5.23528271484375,2.102102043354511,-1.1771592812895777,-0.5865113099381327
2024-12-07 20:24:12.120295700,5.245295654296875,2.7339152610480784,-1.9911153650283813,-1.1905614914372562
2024-12-07 20:24:12.130309600,5.2553095703125,2.9528759918808936,-2.4102654907286167,-1.878732556168735
2024-12-07 20:24:12.140323600,5.265323486328125,2.848973718857765,-2.0526883163660763,-2.7166177970275283
2024-12-07 20:24:12.150336800,5.275336669921875,2.402195581519603,-0.871821412730217,-3.477159685964882
2024-12-07 20:24:12.160350500,5.2853505859375,2.1035282767653465,0.2358288635253906,-3.368459657271206
2024-12-07 20:24:12.170364700,5.29536474609375,1.9658938300102948,0.8449199618011712,-2.382272445170581
2024-12-07 20:24:12.180378600,5.305378662109375,1.5374071361660957,1.0755167698919772,-1.1413961862519382
2024-12-07 20:24:12.190391600,5.3153916015625,0.935062005019188,1.1888058799415826,-0.3347466261342167
2024-12-07 20:24:12.200405500,5.325405517578125,0.7497083602339029,1.09509416154325,0.0713175157606601
2024-12-07 20:24:12.210419700,5.335419677734375,0.981671780502796,0.8492705582261085,0.5942708380237222
2024-12-07 20:24:12.220433700,5.34543359375,1.097901035657525,0.5783370635718107,1.1151721961930394
2024-12-07 20:24:12.230446600,5.355446533203125,0.8616542389810085,0.3831757259994745,1.2760524939790368
2024-12-07 20:24:12.240460500,5.36546044921875,0.5317459927886724,0.0921948840945959,1.04345223711133
2024-12-07 20:24:12.250474800,5.375474853515625,0.2119371158063411,-0.2614741769134998,0.422172103869915
2024-12-07 20:24:12.260487700,5.38548779296875,0.0250853414177894,-0.665281187531352,-0.1846595250412821
2024-12-07 20:24:12.270501600,5.395501708984375,-0.0914250687658786,-1.0171773936480284,-0.6859948897361755
2024-12-07 20:24:12.280515600,5.405515625,-0.218310157969594,-1.1778566159039736,-1.1557079124599694
2024-12-07 20:24:12.290529800,5.41552978515625,-0.0640104076176881,-1.3722890546798705,-1.488576762023568
2024-12-07 20:24:12.300542700,5.425542724609375,0.0201209970086812,-1.635550699532032,-1.8989611052051183
2024-12-07 20:24:12.310556700,5.435556640625,-0.1004489176988601,-1.9961445913672449,-2.400021160089969
2024-12-07 20:24:12.320570600,5.445570556640625,-0.2925356701314449,-2.415469489112496,-2.8332956727325915
2024-12-07 20:24:12.330584800,5.455584716796875,-0.4340244176944717,-2.790792163524032,-3.160288323739171
2024-12-07 20:24:12.340597500,5.465597412109375,-0.6302068784754723,-3.031658436694741,-3.1000758470997214
2024-12-07 20:24:12.350611700,5.47561181640625,-0.7805401363492012,-3.047888271483779,-2.7216400091037154
2024-12-07 20:24:12.360625700,5.485625732421875,-1.0107061518073082,-2.73031343716383,-2.0114950129732487
2024-12-07 20:24:12.370638600,5.495638671875,-0.8408592882335185,-2.157038333156705,-0.8339768352434038
2024-12-07 20:24:12.380652500,5.505652587890625,0.2518172907739877,-1.592481957656145,0.4988415020525455
2024-12-07 20:24:12.390666800,5.515666748046875,1.537552097594738,-1.2340917133450506,1.5772008018940686
2024-12-07 20:24:12.400680400,5.525680419921875,1.6307529438614845,-1.0042466004043815,2.91767199203074
2024-12-07 20:24:12.410693600,5.535693603515625,0.8647720787405967,-1.137401855918765,3.971695599777996
2024-12-07 20:24:12.420707600,5.54570751953125,-0.0113490724435774,-1.750467118522525,4.04761330281049
2024-12-07 20:24:12.430721800,5.5557216796875,-0.6086258188515902,-2.490042207276821,3.5537872908324
2024-12-07 20:24:12.440735500,5.565735595703125,-0.7974152833044529,-2.989832388356328,2.078458425177633
2024-12-07 20:24:12.450748700,5.575748779296875,-0.7749041762888431,-2.4618922175914046,-0.1013394367977976
2024-12-07 20:24:12.460762600,5.5857626953125,-0.7863502839326858,0.5343149664938449,-2.0926146685630083
2024-12-07 20:24:12.470776600,5.595776611328125,-0.7937275347024202,5.773402783933282,-2.856908311249315
2024-12-07 20:24:12.480789800,5.605789794921875,0.3796756089240312,9.875155965471269,-1.0746174829646944
2024-12-07 20:24:12.490803700,5.6158037109375,2.7851147024095058,12.01783902553916,-0.3441460303813219
2024-12-07 20:24:12.500817700,5.625817626953125,3.3775007495999336,11.931985619425772,-2.7520304711923003
2024-12-07 20:24:12.510831600,5.63583154296875,-0.4696761978447437,6.659911478185653,-6.683629038381576
2024-12-07 20:24:12.520844800,5.6458447265625,-3.1435283275961874,-0.2190121687591076,-7.305851420909166
2024-12-07 20:24:12.530858800,5.655858642578125,-0.2818366179952398,-4.160062162643671,-6.238402222138643
2024-12-07 20:24:12.540872400,5.66587255859375,3.619748832517862,-6.006869594502449,-5.184567707222699
2024-12-07 20:24:12.550886700,5.67588671875,5.433479924204946,-5.561133075171709,-4.563540964220464
2024-12-07 20:24:12.560899800,5.68589990234375,4.6468549149841065,-3.420661845934391,-3.712094815520942
2024-12-07 20:24:12.570913500,5.69591357421875,2.397598901379108,-0.6966016239464282,-1.948961984431744
2024-12-07 20:24:12.580927500,5.705927490234375,0.7969359753549099,1.7843372394204138,0.4291404815778136
2024-12-07 20:24:12.590940700,5.715940673828125,-0.9499263966739178,3.301267989268899,1.9233648940995327
2024-12-07 20:24:12.600955000,5.725954833984375,-2.434966216742992,3.3974212556004524,2.377807866977155
2024-12-07 20:24:12.610968600,5.735968505859375,-2.104984905314445,2.140711467733979,2.577963944096863
2024-12-07 20:24:12.620982500,5.745982421875,-1.1266694495022296,0.2546411160230636,2.414092940062284
2024-12-07 20:24:12.630995700,5.75599560546875,-0.5716986484706401,-1.2999170614302158,1.9264286655843257
2024-12-07 20:24:12.641009700,5.766009765625,-0.0151801065403968,-1.862353960558772,1.3228884794339535
2024-12-07 20:24:12.651024100,5.776024169921875,0.1950233904063701,-1.5249696793973444,0.5659940070882439
2024-12-07 20:24:12.661038000,5.7860380859375,0.2184288524458184,-0.9824725754916668,-0.1070361871346831
2024-12-07 20:24:12.671051000,5.796051025390625,0.0075625807413831,-0.4510954160153865,-0.4192468640729784
2024-12-07 20:24:12.681065000,5.80606494140625,-0.3242974205732345,0.0022252748340368,-0.3697010351374745
2024-12-07 20:24:12.691079200,5.8160791015625,-0.2854091061871499,0.2965127570688724,-0.0835538969993591
2024-12-07 20:24:12.701092000,5.826092041015625,-0.2769967767486349,0.3969920699059963,0.1545233299747109
2024-12-07 20:24:12.711106000,5.83610595703125,-0.0752933605890721,0.3204325618386268,0.2571606976285576
2024-12-07 20:24:12.721120000,5.8461201171875,0.4110649458568542,0.1042091470152139,0.3387982396125793
2024-12-07 20:24:12.731134200,5.85613427734375,0.5264192082753405,-0.1407008485883474,0.3294917743459343
2024-12-07 20:24:12.741147100,5.866147216796875,0.4342295483451336,-0.3382119641572236,0.2103378639161586
2024-12-07 20:24:12.751161000,5.8761611328125,0.262207240428403,-0.4129208759218454,0.0428077528521418
2024-12-07 20:24:12.761175000,5.886175048828125,0.1727589516282081,-0.3937193318456411,-0.0399883115172386
2024-12-07 20:24:12.771189200,5.896189208984375,0.1887082159101963,-0.2978945668160915,-0.0808548671737313
2024-12-07 20:24:12.781202200,5.9062021484375,0.3807960643213242,-0.1555985579907894,-0.1261181964844465
2024-12-07 20:24:12.791216000,5.916216064453125,0.6913947029531001,-0.0244546422988176,-0.1109554064050316
2024-12-07 20:24:12.801230000,5.92622998046875,0.7965455877978355,0.0070984338283538,-0.10268705201447
2024-12-07 20:24:12.811244000,5.936244140625,0.560852333350852,0.0409831677734851,-0.2159726549327373
2024-12-07 20:24:12.821257200,5.94625732421875,0.3897602920215576,0.0911883374005556,-0.342228506322205
2024-12-07 20:24:12.831271200,5.956271240234375,0.3964039678197353,0.1008224271863698,-0.3924231545552611
2024-12-07 20:24:12.841285000,5.96628515625,0.4180885608833283,0.0820785637497901,-0.4461062294259667
2024-12-07 20:24:12.851298000,5.976298095703125,0.4597871834497898,0.0422650242775678,-0.4815981063067913
2024-12-07 20:24:12.861312300,5.986312255859375,0.3795196146447211,-0.0556464838981628,-0.5113952786773442
2024-12-07 20:24:12.871326200,5.996326171875,0.230641889341548,-0.1443804138839244,-0.5212807128757239
2024-12-07 20:24:12.881340000,6.00633984375,0.0777753135979175,-0.2156856546849012,-0.5155570745319128
2024-12-07 20:24:12.891353000,6.01635302734375,0.0322492416977882,-0.2422071663856506,-0.3699830669492483
2024-12-07 20:24:12.901367300,6.0263671875,0.0614355886936187,-0.1523614757657051,-0.1411515149652958
2024-12-07 20:24:12.911381000,6.036381103515625,0.1396457865774631,0.0173328275948762,0.1729986056029796
2024-12-07 20:24:12.921394200,6.046394287109375,0.2003005270916968,0.2276028869718313,0.4177653933435678
2024-12-07 20:24:12.931408100,6.056408203125,0.1456160931587219,0.3114016986429691,0.5371437601789831
2024-12-07 20:24:12.941422300,6.06642236328125,0.0800795719522982,0.2994306903421879,0.5880088550195097
2024-12-07 20:24:12.951436000,6.07643603515625,0.0672983432471752,0.1981114195495844,0.526511599266529
2024-12-07 20:24:12.961449200,6.08644921875,0.2399579261541366,-0.0030237317353487,0.4832189855068922
2024-12-07 20:24:12.971463200,6.096463134765625,0.4643932159405201,-0.181069683855772,0.5688347834721207
2024-12-07 20:24:12.981477000,6.10647705078125,0.5561339265268296,-0.3688175303012132,0.7304673609301447
2024-12-07 20:24:12.991491000,6.116490966796875,0.5092085822880268,-0.4913315648138522,0.9789201437070966
2024-12-07 20:24:13.001504300,6.126504150390625,0.3373801895081996,-0.626942396786809,1.111288778888434
2024-12-07 20:24:13.011518000,6.13651806640625,0.1366669899623841,-0.6776636992424726,1.102343694280088
2024-12-07 20:24:13.021532200,6.1465322265625,0.0286824891269206,-0.6612748744994401,1.0488000278800724
2024-12-07 20:24:13.031545000,6.156545166015625,0.0433973162431269,-0.5261632242202758,0.9755839850217104
2024-12-07 20:24:13.041559300,6.166559326171875,0.1289572193026542,-0.3706067518055438,0.8292343168914318
2024-12-07 20:24:13.051573000,6.176572998046875,0.1324234341084957,-0.2263788981348276,0.7171193651877343
2024-12-07 20:24:13.061587200,6.186587158203125,-0.0270364754855632,-0.115921212118864,0.4928815707348287
2024-12-07 20:24:13.071600000,6.19660009765625,-0.3945371510345488,-0.1134989534080028,0.1800264584131538
2024-12-07 20:24:13.081614000,6.206614013671875,-0.880646524220705,-0.1455792682796716,-0.1383046011015772
2024-12-07 20:24:13.091628000,6.2166279296875,-1.1268834575790911,-0.2372457445859909,-0.2758563380092382
2024-12-07 20:24:13.101642200,6.226642333984375,-1.047514737309888,-0.2823854475170373,-0.2095283010989427
2024-12-07 20:24:13.111655000,6.236655029296875,-0.8487515758533031,-0.2503290980428457,-0.0212201904222369
2024-12-07 20:24:13.121669000,6.246669189453125,-0.644516047400236,-0.2350146245330572,0.1871685852527618
2024-12-07 20:24:13.131683000,6.25668310546875,-0.4654981084425002,-0.2745961088150739,0.3692787180721759
2024-12-07 20:24:13.141697300,6.266697265625,-0.4705342029135674,-0.3468237251579761,0.4747093697063624
2024-12-07 20:24:13.151710000,6.2767099609375,-0.6006523557543755,-0.4884370124161243,0.5358522590637207
2024-12-07 20:24:13.161724200,6.28672412109375,-0.745358932852745,-0.6040811611592769,0.6926726139344275
2024-12-07 20:24:13.171738000,6.296738037109375,-0.8723884720284492,-0.6660106708496809,0.9272324804373084
2024-12-07 20:24:13.181751000,6.3067509765625,-1.0307190122663974,-0.678798840752244,1.1645926451832056
2024-12-07 20:24:13.191765000,6.316764892578125,-1.1326434093452988,-0.6872679784119129,1.3806202451735734
2024-12-07 20:24:13.201779200,6.326779296875,-1.201349135172367,-0.7303665309041738,1.6149208762183784
2024-12-07 20:24:13.211793200,6.336793212890625,-1.3411679402291774,-0.8508692255944013,1.7963496026448904
2024-12-07 20:24:13.221806000,6.34680615234375,-1.5242914878748357,-1.0505717137277126,1.8994949198208748
2024-12-07 20:24:13.231820000,6.356820068359375,-1.6181915684521198,-1.1307815609961749,2.1708954474650324
2024-12-07 20:24:13.241834200,6.366834228515625,-1.6690987488687037,-0.9705950906932354,2.652424141797423
2024-12-07 20:24:13.251848200,6.37684814453125,-1.7060452084720137,-0.4327718238174915,3.34091552452445
2024-12-07 20:24:13.261861000,6.386861083984375,-1.6937912915766238,0.5892927573502064,4.03423096640706
2024-12-07 20:24:13.271875000,6.396875,-1.5099989047586917,1.852608227092028,4.336142952170968
2024-12-07 20:24:13.281889300,6.40688916015625,-1.2015399085041134,3.001191402238608,3.758437756761909
2024-12-07 20:24:13.291902000,6.41690185546875,-1.191627440168336,3.876235868668556,2.3186055902935565
2024-12-07 20:24:13.301916200,6.426916259765625,-1.6986077519476412,4.54345299269855,0.9572374503396452
2024-12-07 20:24:13.311930000,6.43693017578125,-2.578444128829241,5.045088509383797,0.1222302491351962
2024-12-07 20:24:13.321944000,6.446944091796875,-3.416924412971735,4.703222698894143,-0.6390463838174939
2024-12-07 20:24:13.331957000,6.45695703125,-4.068686193716526,3.533255959457158,-1.7325296030327677
2024-12-07 20:24:13.341971200,6.46697119140625,-3.907729908084869,2.231656644028425,-2.677969501942396
2024-12-07 20:24:13.351985200,6.476985107421875,-1.772398964345455,0.7961538850665092,-3.083966716080904
2024-12-07 20:24:13.361999000,6.4869990234375,1.6406488994538784,-0.4321586603552103,-3.060222267878056
2024-12-07 20:24:13.372012000,6.497011962890625,3.8477719907283774,-1.2468243536680936,-2.521661042116582
2024-12-07 20:24:13.382026200,6.507026123046875,4.017172279578447,-1.5730699856996535,-1.5603639411225914
2024-12-07 20:24:13.392040000,6.5170400390625,2.7196178556263444,-1.3274205699056387,-0.8444380235031247
2024-12-07 20:24:13.402053000,6.52705322265625,1.5482716445297002,-0.5680442176163196,-0.8138029390037059
2024-12-07 20:24:13.412067000,6.537067138671875,1.3006710946679114,0.3389233272969723,-1.0523448608800767
2024-12-07 20:24:13.422081000,6.5470810546875,1.17611006449759,1.1415127983689308,-0.9465896534666418
2024-12-07 20:24:13.432095000,6.557094970703125,0.6437485701590776,1.703165853643417,-0.4616887062221765
2024-12-07 20:24:13.442108200,6.567108154296875,0.4548415802737697,1.6539608009696003,-0.5484434450894594
2024-12-07 20:24:13.452122000,6.5771220703125,0.7527525502353907,1.1831611520528793,-0.7539949515119194
2024-12-07 20:24:13.462136000,6.587135986328125,0.8832827179431915,0.4874626144260168,-0.8480074064224958
2024-12-07 20:24:13.472150000,6.59714990234375,0.8705302769411355,-0.1780710865616798,-0.7723574144154787
2024-12-07 20:24:13.482163200,6.6071630859375,0.9346201064705848,-0.7127303364485502,-0.6570028962686657
2024-12-07 20:24:13.492177000,6.617177001953125,0.9211521376103162,-1.107138235080242,-0.6670037735402584
2024-12-07 20:24:13.502191000,6.627191162109375,0.8740554553925991,-1.318078156542778,-0.7938517456039786
2024-12-07 20:24:13.512204300,6.637204345703125,0.7859609923541545,-1.3437836756855248,-1.0259843849599362
2024-12-07 20:24:13.522218200,6.64721826171875,0.6822546072293073,-1.2750386407613754,-1.2804928145140408
2024-12-07 20:24:13.532232000,6.65723193359375,0.6222364841181784,-1.1373784750431777,-1.4406106034949422
2024-12-07 20:24:13.542246100,6.66724609375,0.4900076957989484,-0.9523767124354838,-1.503672624346614
2024-12-07 20:24:13.552259300,6.67725927734375,0.2756364847134798,-0.8318377773880958,-1.5749720199286936
2024-12-07 20:24:13.562273000,6.68727294921875,0.1142384466636925,-0.8101987770318985,-1.6725570726290344
2024-12-07 20:24:13.572287000,6.697286865234375,0.1193219604730606,-0.8348018878906964,-1.7825880576655269
2024-12-07 20:24:13.582301200,6.70730126953125,0.1536263811349868,-0.8635282161593437,-1.8052257136702536
2024-12-07 20:24:13.592314000,6.717314208984375,0.1532500221032649,-0.8928525103211402,-1.7302128505229948
2024-12-07 20:24:13.602328000,6.727328125,0.0908073021937161,-0.905400441727042,-1.5830460207909345
2024-12-07 20:24:13.612342000,6.737342041015625,-0.1251349576007574,-0.8791478100955485,-1.4182786524385214
2024-12-07 20:24:13.622355200,6.747355224609375,-0.3734346687078476,-0.8398276070982217,-1.2685194681257008
2024-12-07 20:24:13.632369200,6.757369140625,-0.3226928349208086,-0.8687076646238565,-0.9738821495398878
2024-12-07 20:24:13.642383000,6.767383056640625,-0.4310679425090551,-0.955433177396655,-0.5460355071648955
2024-12-07 20:24:13.652396300,6.777396240234375,-0.6074532679408788,-1.0707494093596934,-0.1153340598806738
2024-12-07 20:24:13.662409200,6.7874091796875,-0.66858607429564,-1.15076461083889,0.1906935445085167
2024-12-07 20:24:13.672423200,6.797423095703125,-0.5962368043344467,-1.1726532020419835,0.4536693581566214
2024-12-07 20:24:13.682437000,6.80743701171875,-0.6457826332699507,-1.1499421885401009,0.7696423102378844
2024-12-07 20:24:13.692451300,6.817451416015625,-0.7520334421806038,-1.1930687980830668,1.1546189481794833
2024-12-07 20:24:13.702464300,6.82746435546875,-0.6239310130763799,-1.3170160802692177,1.4686781755939124
2024-12-07 20:24:13.712478200,6.837478271484375,-0.1923703186143189,-1.3893220225453375,1.386909408445656
2024-12-07 20:24:13.722492200,6.8474921875,-0.201236346637085,-1.363718210211396,1.449376386013627
2024-12-07 20:24:13.732505300,6.85750537109375,-0.5152227280110121,-1.3995821352750062,1.9595029599294065
2024-12-07 20:24:13.742519000,6.86751904296875,-0.127866501456499,-1.7246142998635767,2.3619950885564087
2024-12-07 20:24:13.752533200,6.877533203125,1.156754718099162,-2.1746599145650864,2.316581244859099
2024-12-07 20:24:13.762547200,6.887547119140625,2.341172665280104,-2.5068361056894064,1.9054682951420543
2024-12-07 20:24:13.772560100,6.89756005859375,2.1535440613001584,-2.581733233502507,1.0277890962943437
2024-12-07 20:24:13.782574000,6.907573974609375,1.628780767005682,-2.14850548261106,-0.3943333720907568
2024-12-07 20:24:13.792588300,6.91758837890625,1.256242170354724,0.3647591948211193,-2.3701789795339105
2024-12-07 20:24:13.802602200,6.927602294921875,0.1268313497224822,5.22917783332169,-2.5592498912766573
2024-12-07 20:24:13.812615200,6.937615234375,1.0951321554660796,9.175987121385337,0.2746355640426278
2024-12-07 20:24:13.822629000,6.947629150390625,2.992859042701125,10.49692592805624,3.1090920972481366
2024-12-07 20:24:13.832643300,6.957643310546875,1.7554010677933691,10.283968237030503,2.123378932400048
2024-12-07 20:24:13.842656300,6.96765625,-3.6750603853732335,5.649803876793384,-3.2303681143984195
2024-12-07 20:24:13.852670200,6.977670166015625,-5.233065488409996,0.3199164290100336,-6.113233873724937
2024-12-07 20:24:13.862684200,6.98768408203125,-2.606806299960613,-2.8879876323848963,-6.523985588914155
2024-12-07 20:24:13.872698400,6.997698486328125,-0.0938181013822555,-4.842646367153525,-6.087047293066978
2024-12-07 20:24:13.882711300,7.007711181640625,1.886597005933523,-5.300859506219625,-4.976793556314706
2024-12-07 20:24:13.892725200,7.017725341796875,2.417113164666295,-4.094193559938669,-3.9084927091509103
2024-12-07 20:24:13.902739200,7.0277392578125,2.3373346945524216,-1.837172757551074,-2.3978999301522967
2024-12-07 20:24:13.912753400,7.03775341796875,2.5656051055222746,0.2413303835511207,-0.6603457769557833
2024-12-07 20:24:13.922766300,7.047766357421875,2.2406489287793634,1.514390417715907,0.8787085418954491
2024-12-07 20:24:13.932780300,7.0577802734375,1.1212649601101874,2.074025118905306,2.0336746960774064
2024-12-07 20:24:13.942794200,7.067794189453125,-0.0034334861465962,2.083519507959485,2.226697560316324
2024-12-07 20:24:13.952807200,7.07780712890625,-0.8282347844600677,1.648713547965884,1.5366668391928076
2024-12-07 20:24:13.962821000,7.087821044921875,-1.321737263572216,1.0820715983629223,0.9101780313923954
2024-12-07 20:24:13.972835300,7.09783544921875,-1.0883528705894947,0.4590869992911815,0.3661655544877052
2024-12-07 20:24:13.982849000,7.10784912109375,-0.5336638091087341,-0.0576338583230972,-0.3989113475307822
2024-12-07 20:24:13.992862200,7.1178623046875,-0.3448445340394973,-0.3346785293340683,-1.229895138438046
2024-12-07 20:24:14.002876200,7.127876220703125,-0.2891489503026008,-0.4462631735533475,-1.7650936097681522
2024-12-07 20:24:14.012890400,7.137890380859375,0.0802104317903518,-0.4866764324843883,-1.78816761136353
2024-12-07 20:24:14.022904000,7.147904052734375,0.7082979069590568,-0.4783054945021867,-1.6287722914382814
2024-12-07 20:24:14.032917200,7.157917236328125,1.0896364806592465,-0.38366906247437,-1.4477709966436028
2024-12-07 20:24:14.042931200,7.16793115234375,1.0065385107338427,-0.2142880628466606,-1.0109294391691683
2024-12-07 20:24:14.052945200,7.177945068359375,0.5671358340671285,-0.0045534255206584,-0.5269508674666286
2024-12-07 20:24:14.062959000,7.187958984375,0.3307622326731682,0.1548375104904174,-0.0590676905184984
2024-12-07 20:24:14.072972300,7.19797216796875,0.2992365925421938,0.2047884130954742,0.3501651445403695
2024-12-07 20:24:14.082986200,7.207986328125,0.0648222719898447,0.1296025314688682,0.533846764460206
2024-12-07 20:24:14.093000200,7.218000244140625,-0.0201648726830258,-0.0212000244170427,0.6315721024140715
2024-12-07 20:24:14.103013400,7.228013427734375,-0.1294260058581829,-0.1751443854600191,0.720140320444107
2024-12-07 20:24:14.113027300,7.23802734375,-0.2420037527680396,-0.2919002948373556,0.7357236740231513
2024-12-07 20:24:14.123041300,7.248041259765625,-0.26650577787254,-0.2600625565499067,0.6665446315959096
2024-12-07 20:24:14.133055200,7.25805517578125,-0.2872562684237957,-0.1370084238111972,0.586294452317059
2024-12-07 20:24:14.143068400,7.268068359375,-0.1424631455531343,-0.0339846871882677,0.4889478845477104
2024-12-07 20:24:14.153082000,7.27808203125,0.0382990797886624,-0.0766138686031103,0.392494173964858
2024-12-07 20:24:14.163096000,7.288095947265625,0.3161106800515204,-0.1930827777326106,0.3539592761263251
2024-12-07 20:24:14.173110300,7.2981103515625,0.585000028592348,-0.306741305616498,0.1916378396213054
2024-12-07 20:24:14.183123500,7.30812353515625,0.4606910004217177,-0.353668476486206,-0.0475666378170251
2024-12-07 20:24:14.193137200,7.31813720703125,0.2107540435016155,-0.299152457922697,-0.2587628721281886
2024-12-07 20:24:14.203151000,7.328151123046875,0.0236953118314966,-0.1933195090979337,-0.3667404317662119
2024-12-07 20:24:14.213164300,7.338164306640625,-0.1433131134459749,-0.0690022245556116,-0.3589461246281862
2024-12-07 20:24:14.223178200,7.34817822265625,-0.2204430052798241,0.0197159233391284,-0.2701598799332976
2024-12-07 20:24:14.233192200,7.358192138671875,-0.175844094694592,0.0665823039323091,-0.1906076197907328
2024-12-07 20:24:14.243206100,7.3682060546875,-0.0014390928924083,0.1283878949820995,-0.0663832742288708
2024-12-07 20:24:14.253219000,7.378218994140625,0.2991033580839634,0.1374649354070425,0.0979103391319513
2024-12-07 20:24:14.263233300,7.3882333984375,0.4323428578156977,0.154051328548789,0.2160331529483199
2024-12-07 20:24:14.273247200,7.398247314453125,0.5172984383065253,0.152046418467164,0.1655541348159313
2024-12-07 20:24:14.283261200,7.40826123046875,0.5223218194264918,0.0472924970507621,0.0098980014190077
2024-12-07 20:24:14.293274000,7.418274169921875,0.4709807776372879,-0.0986205332279205,-0.1286445000916719
2024-12-07 20:24:14.303288300,7.428288330078125,0.4550725029528141,-0.2847743884801864,-0.2032175105169415
2024-12-07 20:24:14.313302300,7.43830224609375,0.5301484213989228,-0.4799041618704796,-0.1566299468651414
2024-12-07 20:24:14.323315200,7.448315185546875,0.6173789610844105,-0.5821954925656319,-0.0221156779572367
2024-12-07 20:24:14.333329200,7.4583291015625,0.5841079751234501,-0.5703484029054642,0.112039256118983
2024-12-07 20:24:14.343343400,7.46834326171875,0.5354150366902352,-0.3572282147943973,0.3886421747118234
2024-12-07 20:24:14.353357300,7.478357421875,0.6067313103418797,-0.0850584563434124,0.7051945341162383
2024-12-07 20:24:14.363370200,7.488370361328125,0.6758429135560989,0.1049935753911733,0.9107508628442884
2024-12-07 20:24:14.373384200,7.49838427734375,0.5650022926371544,0.1960521489322185,1.0089901416696607
2024-12-07 20:24:14.383398400,7.5083984375,0.267330940117687,0.1654126805186271,1.0082726410500704
2024-12-07 20:24:14.393412400,7.518412353515625,0.0605014496486634,0.004893617260456,0.9133796039126812
2024-12-07 20:24:14.403425300,7.52842529296875,0.0214086987316608,-0.2646177356362342,0.7555090093366801
2024-12-07 20:24:14.413439200,7.538439208984375,-0.0417162312883883,-0.5328139142811298,0.5801512733869254
2024-12-07 20:24:14.423453400,7.548453369140625,-0.1392365481894463,-0.6814075619459152,0.4360846016272902
2024-12-07 20:24:14.433466000,7.558466064453125,-0.1338705641768872,-0.653856122675538,0.3632651568710803
2024-12-07 20:24:14.443480300,7.568480224609375,-0.0977145242989063,-0.4792898293644189,0.4306014940410852
2024-12-07 20:24:14.453494300,7.578494384765625,-0.0440542457818984,-0.2837111431628465,0.5414008331015706
2024-12-07 20:24:14.463508200,7.58850830078125,-0.0102444037038832,-0.1305593938022851,0.6621579409442842
2024-12-07 20:24:14.473521200,7.598521240234375,-0.0632196225661784,-0.0466968692451715,0.8346215628877282
2024-12-07 20:24:14.483535400,7.608535400390625,-0.1313222679335624,-0.0609960282325744,0.9968604356758296
2024-12-07 20:24:14.493549300,7.61854931640625,-0.3097007399439812,-0.1638473308980464,1.0988026606723666
2024-12-07 20:24:14.503563300,7.628563232421875,-0.5780313586235046,-0.4036988740682601,1.1216861081317069
2024-12-07 20:24:14.513576200,7.638576171875,-0.7924586107451468,-0.6827800193428993,1.0707660682335496
2024-12-07 20:24:14.523590400,7.64859033203125,-0.917038930137828,-0.9012041590809822,1.0687922839425503
2024-12-07 20:24:14.533604000,7.65860400390625,-0.9622563014149664,-0.9600327801465988,1.207440876176208
2024-12-07 20:24:14.543617300,7.6686171875,-0.9686264940340072,-0.9295622385591268,1.3874227647952737
2024-12-07 20:24:14.553631200,7.67863134765625,-0.9441828845858572,-0.7907657622873783,1.5469588083654642
2024-12-07 20:24:14.563645200,7.688645263671875,-0.9258220291174948,-0.6090343996524811,1.6899968677297237
2024-12-07 20:24:14.573659100,7.6986591796875,-0.9569790916644036,-0.4275485362112521,1.7837635311856863
2024-12-07 20:24:14.583672300,7.70867236328125,-1.195132014223188,-0.2457762570440769,1.7657983970366418
2024-12-07 20:24:14.593686300,7.718686279296875,-1.592016532101482,-0.0790980866342783,1.760392007948458
2024-12-07 20:24:14.603700200,7.7287001953125,-2.1019138273060323,0.0442161583453416,1.8249314078763128
2024-12-07 20:24:14.613714200,7.738714111328125,-2.4133295544743536,0.0756891549736261,2.0512612061724065
2024-12-07 20:24:14.623727400,7.748727294921875,-2.498432434481382,0.04882569796741,2.423559418196231
2024-12-07 20:24:14.633741000,7.758740966796875,-2.4530372954845427,0.3074818948507308,2.903171172991395
2024-12-07 20:24:14.643755300,7.76875537109375,-2.3318612315773963,1.1075322028338908,3.4163670713499186
2024-12-07 20:24:14.653768400,7.7787685546875,-2.0784324139535424,2.3886633152514696,3.883815948534012
2024-12-07 20:24:14.663781600,7.78878173828125,-1.7215128267168998,3.5866514495581385,4.184451338490844
2024-12-07 20:24:14.673795600,7.798795654296875,-1.7088532516300676,4.333566964203119,3.8445167883247136
2024-12-07 20:24:14.683809500,7.8088095703125,-1.9784546208977696,4.57829049732387,2.933826131235063
2024-12-07 20:24:14.693822700,7.81882275390625,-2.462065820592642,4.342591397657991,1.73087029151842
2024-12-07 20:24:14.703836400,7.82883642578125,-2.966823853212595,3.835425134852529,0.5017877846375107
2024-12-07 20:24:14.713850600,7.8388505859375,-3.0430174505770204,3.010187778642773,-0.8540973938606679
2024-12-07 20:24:14.723864600,7.848864501953125,-2.031992149817944,1.859252487412095,-2.2695824700579044
2024-12-07 20:24:14.733877500,7.85887744140625,0.9623217678666114,0.5452320818275213,-3.3212539617210624
2024-12-07 20:24:14.743891500,7.868891357421875,5.163121599090099,-0.566254996111989,-3.639815176729858
2024-12-07 20:24:14.753905400,7.878905517578125,7.720626984786987,-1.2779326086372136,-3.661616089649498
2024-12-07 20:24:14.763919600,7.888919677734375,7.725110267680883,-1.730043339174986,-3.479994324868917
2024-12-07 20:24:14.773932500,7.8989326171875,5.875372043067217,-1.6725012507885693,-2.647123405040801
2024-12-07 20:24:14.783946500,7.908946533203125,1.135680438953638,-1.001908512845635,-1.19270873259902
2024-12-07 20:24:14.793960400,7.91896044921875,-3.011641484582424,0.5880477257251739,-0.4786740355536341
2024-12-07 20:24:14.803973400,7.928973388671875,-1.5258984846800565,1.4964379969179629,-1.5399740640446542
2024-12-07 20:24:14.813987600,7.938987548828125,0.9133259740293024,1.2515911296784876,-2.529567869718373
2024-12-07 20:24:14.824001500,7.94900146484375,1.8837410319805143,0.5733551835060119,-2.910671173357964
2024-12-07 20:24:14.834015500,7.959015380859375,1.854343672582507,-0.3033697833567857,-3.013366408678889
2024-12-07 20:24:14.844028400,7.9690283203125,1.483955531963706,-1.096140455725789,-2.99150821261406
2024-12-07 20:24:14.854042600,7.979042724609375,1.2570336129933597,-1.6654940023750069,-2.7052462159246207
2024-12-07 20:24:14.864056600,7.989056640625,0.848784820535779,-1.968043701520562,-2.309214223222434
2024-12-07 20:24:14.874070500,7.999070556640625,0.3445762019595131,-1.9979314747840164,-1.914669546468556
2024-12-07 20:24:14.884083500,8.00908349609375,-0.1371125052401796,-1.8135417065948247,-1.5544456569895146
2024-12-07 20:24:14.894097700,8.01909765625,-0.5619313242265954,-1.5012258157163858,-1.268948214931786
2024-12-07 20:24:14.904111600,8.029111572265625,-0.8553092538684606,-1.1217220562279224,-1.0369085145562886
2024-12-07 20:24:14.914124500,8.03912451171875,-0.7375006205677985,-0.8950684328049421,-0.916807094143331
2024-12-07 20:24:14.924138500,8.049138427734375,-0.5300596471369267,-0.813873666152358,-0.935574922977388
2024-12-07 20:24:14.934152700,8.059152587890624,-0.2954828294992446,-0.8562123401880264,-0.9401751102492212
2024-12-07 20:24:14.944166400,8.06916650390625,-0.1521281784664839,-0.9318658393263816,-0.8385121405854821
2024-12-07 20:24:14.954179600,8.0791796875,0.0898673179298639,-1.0059218401402237,-0.6164996209666133
2024-12-07 20:24:14.964193500,8.089193603515625,0.48320437245965,-1.053330657047033,-0.2488651629701256
2024-12-07 20:24:14.974207700,8.099207763671876,0.4300730862528085,-1.0127642533808947,0.186411044883728
2024-12-07 20:24:14.984221400,8.109221435546875,-0.2620469353001564,-0.8157213398456573,0.615914514555037
2024-12-07 20:24:14.994234600,8.119234619140625,-0.8657393894027918,-0.4645470182627439,0.829094031637907
2024-12-07 20:24:15.004248600,8.12924853515625,-1.0566109208267185,-0.1239852761089801,0.7916884300902486
2024-12-07 20:24:15.014262500,8.139262451171875,-0.9966822295647114,0.051446109598875,0.8583084356844425
2024-12-07 20:24:15.024275500,8.149275390625,-0.7320014386296272,-0.0987713398754596,1.0199725773245096
2024-12-07 20:24:15.034289700,8.15928955078125,-0.3105956429570913,-0.4792769698828458,1.1367831394985315
2024-12-07 20:24:15.044303400,8.169303466796874,-0.1317669429611414,-0.9113830232679844,1.1907745496660471
2024-12-07 20:24:15.054317600,8.179317626953125,-0.4350250826369971,-1.3088824581742289,1.1451315733879803
2024-12-07 20:24:15.064330500,8.18933056640625,-0.5344605124443769,-1.6306617584466934,1.0033870609655977
2024-12-07 20:24:15.074344700,8.1993447265625,-0.5613287186909467,-1.8235931450098752,0.8011921714946627
2024-12-07 20:24:15.084358400,8.2093583984375,-0.7899263888537883,-1.8821423646122213,0.6484288369297981
2024-12-07 20:24:15.094372600,8.21937255859375,-0.674673285254836,-1.7889631456553936,0.6650976476579904
2024-12-07 20:24:15.104385500,8.229385498046875,-0.3303950798612087,-1.77548582444489,0.9535513091728092
2024-12-07 20:24:15.114399500,8.2393994140625,-0.11293653375227,-2.040539028888941,1.5559136837154626
2024-12-07 20:24:15.124413400,8.249413330078125,1.1619500217199326,-2.6379157239735127,2.1593249827891587
2024-12-07 20:24:15.134426600,8.259426513671874,2.9304566548019646,-3.229690361267328,1.7509122319415211
2024-12-07 20:24:15.144440300,8.2694404296875,2.7995477169096468,-1.951771196633577,-0.5500792295977472
2024-12-07 20:24:15.154454500,8.27945458984375,-0.0416010074108839,2.981271480759978,-3.5413293757975097
2024-12-07 20:24:15.164468500,8.289468505859375,-2.1656372346758843,9.352783365705609,-3.029843496227264
2024-12-07 20:24:15.174481700,8.299481689453126,-1.237176235356927,13.64792444540262,0.4981114342123269
2024-12-07 20:24:15.184495400,8.309495361328125,1.1555272951960562,15.70114993738532,3.589254033271968
2024-12-07 20:24:15.194509600,8.319509521484376,0.3834434004923328,11.767821477663515,1.3388035491853951
2024-12-07 20:24:15.204523500,8.3295234375,-3.887819923478365,2.960669422236085,-4.754560964204371
2024-12-07 20:24:15.214536400,8.339536376953125,-4.715801609960198,-2.958087004527449,-6.885388459044695
2024-12-07 20:24:15.224550400,8.34955029296875,-1.8571838644444945,-6.699408791315555,-6.8786559359192845
2024-12-07 20:24:15.234564600,8.359564697265625,1.4757014983594416,-8.906097582826018,-6.061944415992498
2024-12-07 20:24:15.244577500,8.36957763671875,4.157523584076762,-8.937815494126081,-4.6914203251585365
2024-12-07 20:24:15.254591500,8.379591552734375,4.9818701289266345,-6.590320640087128,-3.600324877862632
2024-12-07 20:24:15.264605400,8.38960546875,4.177424216333032,-2.643003987023234,-2.270847667688132
2024-12-07 20:24:15.274619600,8.39961962890625,3.087474431940913,0.7788064444243907,-0.6680509445056318
2024-12-07 20:24:15.284632300,8.40963232421875,1.4732272172003984,3.306850173315406,0.8138239817917347
2024-12-07 20:24:15.294646500,8.419646484375,-0.3973983126193284,4.787604863411188,2.362484917899966
2024-12-07 20:24:15.304660500,8.429660400390626,-1.3214578621089457,4.55523929208219,3.441770977197588
2024-12-07 20:24:15.314674700,8.4396748046875,-0.6856698955655097,2.476388360455632,2.8125284867748617
2024-12-07 20:24:15.324687400,8.449687255859375,0.0856160902261733,0.1730126341283321,1.533947058840096
2024-12-07 20:24:15.334701600,8.45970166015625,0.086333892239863,-0.9840653976410628,0.3327753260612487
2024-12-07 20:24:15.344715500,8.469715576171875,-0.2104594444692134,-1.2789508457690475,-0.8783870548561215
2024-12-07 20:24:15.354729500,8.4797294921875,-0.3186871794760227,-1.1440905399024486,-1.7012144273146983
2024-12-07 20:24:15.364742400,8.489742431640625,-0.1073696568727493,-0.7548398779034614,-2.10921041405499
2024-12-07 20:24:15.374756600,8.499756591796874,0.2946516576384194,-0.3656073360830545,-2.1000848583132026
2024-12-07 20:24:15.384770600,8.5097705078125,0.7099824990451336,-0.1127478427797555,-1.67948424154371
2024-12-07 20:24:15.394783500,8.519783447265626,0.9400818790078164,0.0469978980183601,-0.9993459688812494
2024-12-07 20:24:15.404797400,8.52979736328125,0.9319932650983334,0.1182756662905216,-0.3982677889302373
2024-12-07 20:24:15.414811600,8.539811767578126,0.7796890724778175,0.1230009412467479,0.0737009037658572
2024-12-07 20:24:15.424825300,8.549825439453125,0.5741629927575588,0.1537713425636291,0.4275327541202307
2024-12-07 20:24:15.434838500,8.559838623046875,0.4647510164022445,0.1058107369929552,0.4492112097039819
2024-12-07 20:24:15.444852500,8.5698525390625,0.4567595061916857,-0.0167068046510219,0.2712804083958268
2024-12-07 20:24:15.454866700,8.57986669921875,0.5021136190583929,-0.1429758077830076,0.0942962402880191
2024-12-07 20:24:15.464880400,8.58988037109375,0.4963759887218475,-0.1569979033946991,0.0090314477175474
2024-12-07 20:24:15.474893600,8.5998935546875,0.4900419999273493,-0.0870347248524427,0.008797054439783
2024-12-07 20:24:15.484907500,8.609907470703124,0.4897685532808303,0.0664063628435134,-0.0334954423666
2024-12-07 20:24:15.494921500,8.61992138671875,0.4673065461039543,0.2363210309565067,-0.1681187246069312
2024-12-07 20:24:15.504934700,8.6299345703125,0.2277612924039363,0.2868687304109334,-0.3599471183642744
2024-12-07 20:24:15.514948600,8.639948486328125,-0.0493885925471782,0.2035831289589404,-0.5067088744267821
2024-12-07 20:24:15.524962300,8.64996240234375,-0.0635047961831092,-0.0137374334514141,-0.4550052829355001
2024-12-07 20:24:15.534976500,8.6599765625,0.0710251817505806,-0.2850561280310154,-0.2658706583067775
2024-12-07 20:24:15.544989700,8.66998974609375,0.1462695886313915,-0.4627390920579433,-0.0715858113080263
2024-12-07 20:24:15.555003600,8.680003662109375,0.1741045940835028,-0.5210463195979594,0.1373828100815415
2024-12-07 20:24:15.565017300,8.690017333984375,0.2502034989017993,-0.4553028045773506,0.2669333191022277
2024-12-07 20:24:15.575031600,8.700031494140624,0.3597930968463421,-0.2777724007636308,0.3187605369731783
2024-12-07 20:24:15.585044700,8.710044677734375,0.4080897294383496,-0.0443733947336673,0.3077513594418763
2024-12-07 20:24:15.595058400,8.720058349609374,0.3350069575708359,0.1651180814862251,0.2513520113497972
2024-12-07 20:24:15.605072400,8.730072265625,0.254877262866497,0.2806464948952198,0.1625996689245104
2024-12-07 20:24:15.615085600,8.74008544921875,0.1274585051774978,0.2713198636233806,0.0787663704618811
2024-12-07 20:24:15.625099500,8.750099609375,0.1405401050686836,0.1275228025853634,0.0157969963297247
2024-12-07 20:24:15.635113500,8.760113525390626,0.2655073779523372,-0.0766395875662565,-0.0332312384724617
2024-12-07 20:24:15.645127400,8.77012744140625,0.2821112336855381,-0.2562777773141861,-0.1126182250507175
2024-12-07 20:24:15.655140600,8.780140625,0.216567625151202,-0.4018687360316514,-0.2125377120479941
2024-12-07 20:24:15.665154800,8.79015478515625,0.0874221898000687,-0.4471130683809518,-0.2223312301792204
2024-12-07 20:24:15.675168800,8.800168701171875,-0.0641114568393677,-0.4551759633272886,-0.1514081205636263
2024-12-07 20:24:15.685182500,8.810182373046874,-0.0517126515805721,-0.3891957169413566,-0.0088106445737183
2024-12-07 20:24:15.695195600,8.820195556640625,-0.0025041648406535,-0.3047001551777124,0.2569729199714958
2024-12-07 20:24:15.705209900,8.8302099609375,0.0265173469822853,-0.2016384246319532,0.5349408433072269
2024-12-07 20:24:15.715223600,8.8402236328125,-0.0873461288891732,-0.1564139660269022,0.8210881275758147
2024-12-07 20:24:15.725236700,8.85023681640625,-0.2430676556725055,-0.1432791746437549,1.1193037430398165
2024-12-07 20:24:15.735250700,8.860250732421875,-0.2741184083007276,-0.1090671084403991,1.4109426104620095
2024-12-07 20:24:15.745265000,8.870264892578126,-0.2554663148008286,-0.0591027618318796,1.6368199888154864
2024-12-07 20:24:15.755278600,8.880278564453125,-0.334953254622221,0.0042833764076232,1.71628588584885
2024-12-07 20:24:15.765291800,8.890291748046875,-0.4867874916434287,0.0363093307435512,1.5989076067894696
2024-12-07 20:24:15.775305700,8.9003056640625,-0.5844026472210884,0.1215039806872606,1.3960609754115345
2024-12-07 20:24:15.785319700,8.910319580078125,-0.4828162499248981,0.1973129626482725,1.1535182934612036
2024-12-07 20:24:15.795333600,8.920333740234375,-0.2401462152678519,0.2421750176817178,0.9036882309816776
2024-12-07 20:24:15.805346800,8.930346923828125,-0.0061889177680015,0.2053910551637411,0.5935780334539711
2024-12-07 20:24:15.815360500,8.940360595703124,0.0392681074839085,0.0659603726416826,0.2053048381850123
2024-12-07 20:24:15.825374700,8.950374755859375,-0.155804309695959,-0.2169604969263076,-0.2756521937392652
2024-12-07 20:24:15.835388700,8.960388671875,-0.6390905152201652,-0.5109305837750434,-1.0482017697259782
2024-12-07 20:24:15.845401900,8.97040185546875,0.0874551422215998,-0.7348527364075184,-1.4759673096887769
2024-12-07 20:24:15.855415600,8.98041552734375,-0.037705242081359,-0.4559709130972623,-3.1317262461215254
2024-12-07 20:24:15.865429800,8.9904296875,-0.3847707401059567,-0.5532610745042562,-3.561589196754992
2024-12-07 20:24:15.875442700,9.000442626953125,-0.535733162728697,-0.844366419571638,-2.213615814294666
2024-12-07 20:24:15.885456600,9.01045654296875,-0.7426233704090118,-0.8836819463938475,-1.3563719391018152
2024-12-07 20:24:15.895470600,9.020470703125,0.006368950510025,-0.5674082578003407,0.7896231681235134
2024-12-07 20:24:15.905484800,9.03048486328125,0.2467265435062348,-0.1354915895074606,2.714020474010706
2024-12-07 20:24:15.915497500,9.04049755859375,-0.2797673739731312,0.435437828156352,3.324968598330021
2024-12-07 20:24:15.925511700,9.05051171875,-0.8673790463685989,0.478383235913515,2.9394983316525813
2024-12-07 20:24:15.935525600,9.060525634765623,-1.0003380486585198,0.1448041922539472,2.5254069506466386
2024-12-07 20:24:15.945538800,9.070538818359376,-0.7633914331495761,-0.142361475276947,2.184427421472221
2024-12-07 20:24:15.955552500,9.080552490234377,-0.5065490076899528,-0.3530488832831382,2.0313244796894487
2024-12-07 20:24:15.965566700,9.090566650390626,-0.3305389453113079,-0.5751122563064098,2.0146258583448824
2024-12-07 20:24:15.975580700,9.10058056640625,-0.3258290140546858,-0.8599924432486296,2.040136147176474
2024-12-07 20:24:15.985593600,9.110593505859375,-0.4058499146223068,-0.9538695813417434,2.163281903721392
2024-12-07 20:24:15.995607600,9.120607666015625,-0.5920611991502345,-0.8126835795849561,2.2636938504107293
2024-12-07 20:24:16.005621800,9.130621826171875,-0.8541665135741233,-0.4678530740708112,2.4082452369473875
2024-12-07 20:24:16.015635700,9.1406357421875,-1.1356582271218298,0.0901835442721843,2.511743751475215
2024-12-07 20:24:16.025648600,9.150648681640623,-1.1999006899297238,0.6937731225222349,2.674230023153126
2024-12-07 20:24:16.035662600,9.16066259765625,-1.344056501277536,1.3371516903251408,2.5247490712597966
2024-12-07 20:24:16.045676800,9.1706767578125,-1.55291567094326,2.2380296861916777,2.0131227603055537
2024-12-07 20:24:16.055689500,9.180689453125,-1.8137093182466923,3.6058214294523,1.5621835577651857
2024-12-07 20:24:16.065703700,9.19070361328125,-2.480017656868696,5.005954184347391,1.2796775526084003
2024-12-07 20:24:16.075717600,9.200717529296876,-3.377176924473047,6.194416365417838,1.0056715186409653
2024-12-07 20:24:16.085731800,9.21073193359375,-3.996722196745872,6.790643890467286,1.044961911021918
2024-12-07 20:24:16.095744500,9.22074462890625,-3.941193786269426,6.276507204127311,1.2803976835764943
2024-12-07 20:24:16.105758700,9.2307587890625,-3.0200632759690285,4.456071646365523,1.1051552445694803
2024-12-07 20:24:16.115772700,9.240772705078124,-1.244703123730421,2.078239521729946,0.2247467668883502
2024-12-07 20:24:16.125786600,9.25078662109375,-0.114946302672103,-0.0399433033317327,-1.0984667067162692
2024-12-07 20:24:16.135799600,9.260799560546875,0.4383492951562628,-1.7746254082232713,-2.2286343735978007
2024-12-07 20:24:16.145813800,9.270813720703124,2.630865220940113,-3.2210470360845327,-2.892525275814533
2024-12-07 20:24:16.155827700,9.28082763671875,5.156428823453187,-3.920733766564727,-3.075672350466251
2024-12-07 20:24:16.165841700,9.290841552734374,5.484025285571813,-3.607889467898011,-2.994075140492618
2024-12-07 20:24:16.175854600,9.3008544921875,4.695592934668064,-2.6919898439884182,-2.7925004287466404
2024-12-07 20:24:16.185868800,9.310868896484376,2.828807713663578,-1.3726421059012412,-1.941038497956097
2024-12-07 20:24:16.195882500,9.320882568359377,0.2141898631691932,0.1406365511804819,-0.3516919157162309
2024-12-07 20:24:16.205895700,9.330895751953124,-1.5277508345484732,1.3290800275504588,0.5661544583469629
2024-12-07 20:24:16.215909600,9.34090966796875,-1.3876748398602008,1.8166548701792955,0.3780430392861366
2024-12-07 20:24:16.225923600,9.350923583984375,-0.4815718393543735,1.695797955223918,-0.0647577188536524
2024-12-07 20:24:16.235937500,9.3609375,0.3641173897862434,1.1386743600726128,-0.4504588716775178
2024-12-07 20:24:16.245950700,9.37095068359375,0.9513017766803502,0.4583411493599414,-0.7472928235247731
2024-12-07 20:24:16.255964700,9.380964599609374,1.2084189274281265,-0.2247901676386594,-1.1611401666417718
2024-12-07 20:24:16.265978600,9.390978515625,1.1284756952065973,-0.706242143473029,-1.4921581276416778
2024-12-07 20:24:16.275992600,9.40099267578125,0.9468255080491303,-0.92819445733726,-1.5726079211458563
2024-12-07 20:24:16.286005800,9.411005859375,0.6620593028753996,-0.9765420163989068,-1.4874027498081326
2024-12-07 20:24:16.296019500,9.42101953125,0.3090700773576274,-0.9191858059734106,-1.2523448706552385
2024-12-07 20:24:16.306033700,9.43103369140625,-0.1298994320562109,-0.9046206895262002,-1.1351324496820567
2024-12-07 20:24:16.316046600,9.441046630859375,-0.5051882041981444,-1.0148264466077088,-1.099383675430715
2024-12-07 20:24:16.326060800,9.451060791015625,-0.63726088864021,-1.1018290227562189,-0.9426210420966148
2024-12-07 20:24:16.336074500,9.461074462890624,-0.5646095669925213,-1.17116793192029,-0.8702858737260103
2024-12-07 20:24:16.346088700,9.471088623046874,-0.3236597802568227,-1.200894377142191,-0.8382423837333917
2024-12-07 20:24:16.356101600,9.4811015625,-0.2255593253802508,-1.1307377218544483,-0.9091948655739426
2024-12-07 20:24:16.366115600,9.491115478515624,-0.1930523095291108,-1.004001685732603,-1.0475345379889012
2024-12-07 20:24:16.376129500,9.501129638671877,-0.0571410333048552,-0.7994424052178859,-1.0816793841749428
2024-12-07 20:24:16.386143700,9.511143798828124,0.0958476344484835,-0.5824363155841827,-0.9819193255230784
2024-12-07 20:24:16.396156700,9.52115673828125,0.3062117287844419,-0.3699684539020061,-0.8359501811429858
2024-12-07 20:24:16.406170600,9.531170654296876,0.2068547710407525,-0.0791863494396209,-0.6297790815174579
2024-12-07 20:24:16.416184600,9.5411845703125,-0.0179576814949512,0.1546381885260343,-0.4532090471684932
2024-12-07 20:24:16.426197800,9.55119775390625,-0.0956651174884289,0.1927384943395853,-0.2518471013903617
2024-12-07 20:24:16.436211700,9.561211669921876,0.0439080422442406,-0.0381675258308649,-0.0767342801123857
2024-12-07 20:24:16.446225700,9.5712255859375,0.245521916956827,-0.5261129553377628,0.0497372598543763
2024-12-07 20:24:16.456239600,9.581239501953124,0.273286779782176,-1.227252222713828,0.1374284027889371
2024-12-07 20:24:16.466252500,9.59125244140625,0.2858932364422827,-2.019834679034352,0.1614607280224561
2024-12-07 20:24:16.476266500,9.6012666015625,0.4096569787550717,-2.7276632149159905,0.0342576589107513
2024-12-07 20:24:16.486280700,9.61128076171875,0.4569670114625245,-3.1574387795269487,-0.0118155254781246
2024-12-07 20:24:16.496294700,9.621294677734374,0.0617524726230651,-3.214827723178267,0.104285427121818
2024-12-07 20:24:16.506307600,9.6313076171875,-0.4341711692214012,-2.9270027149558064,0.500782114726305
2024-12-07 20:24:16.516321500,9.641321533203126,-0.2721288419187069,-2.5159809506535527,0.9876330269947649
2024-12-07 20:24:16.526335700,9.651335693359377,0.5980495528448373,-2.271948322406411,1.4901394812956452
2024-12-07 20:24:16.536349400,9.661349365234376,1.6771435236364602,-2.29692377370894,1.7926821661785244
2024-12-07 20:24:16.546362600,9.671362548828125,2.275963403266668,-2.647364520320296,1.4315963991731404
2024-12-07 20:24:16.556376600,9.68137646484375,2.331583583679796,-3.1864556151747703,0.5399485884666443
2024-12-07 20:24:16.566390800,9.691390869140625,1.9963567728132008,-3.2674370313376184,-0.7903545511379838
2024-12-07 20:24:16.576403700,9.70140380859375,0.9317080184161662,-1.0609352868318558,-3.0730048848226663
2024-12-07 20:24:16.586417700,9.711417724609374,-1.7984698096692562,4.728809560093284,-4.760714518398046
2024-12-07 20:24:16.596431600,9.721431640625,-2.123508988520503,10.26883379626274,-1.6364678143769502
2024-12-07 20:24:16.606445600,9.731445556640624,1.119331946220994,14.454402156084775,3.0432392766341567
2024-12-07 20:24:16.616458800,9.741458740234377,3.0925726318627595,17.063692674076556,4.237906449824571
2024-12-07 20:24:16.626472700,9.75147265625,-1.929617817014456,12.561583499157427,-1.1192337465435265
2024-12-07 20:24:16.636486700,9.761486572265625,-5.105114231279492,2.8672756837457416,-5.864286000907421
2024-12-07 20:24:16.646499600,9.77149951171875,-2.6074492740392685,-3.099367698830366,-6.727142016893625
2024-12-07 20:24:16.656514000,9.78151416015625,0.0764075323760509,-6.847893717908859,-5.962233164918422
2024-12-07 20:24:16.666528300,9.7915283203125,2.376927869272232,-8.768892759659886,-3.9231636240601535
2024-12-07 20:24:16.676542200,9.801542236328125,4.640418159934878,-8.622529647526145,-1.883795977038145
2024-12-07 20:24:16.686555400,9.811555419921875,5.492458767396212,-6.4249944688081735,-1.101552836163342
2024-12-07 20:24:16.696569000,9.821569091796874,4.6267374251067634,-2.861090857630968,-0.8394166882097721
2024-12-07 20:24:16.706583300,9.831583251953123,2.318170559877157,0.4267372198283672,0.2956342206686735
2024-12-07 20:24:16.716597200,9.84159716796875,-1.0440408506542445,3.2519618143081663,1.8490443971306083
2024-12-07 20:24:16.726610200,9.851610107421877,-2.940180176436901,5.100791691905259,2.759775386230648
2024-12-07 20:24:16.736624000,9.8616240234375,-2.3551959299355745,4.898720136553049,2.5471891588658093
2024-12-07 20:24:16.746638300,9.871638427734377,-1.1924521274894475,2.636172095176577,1.6796353404521942
2024-12-07 20:24:16.756652300,9.88165234375,-0.9012029900372028,0.6284153919488191,0.9406818907275796
2024-12-07 20:24:16.766665200,9.891665283203125,-1.0031003529787064,-0.3648953884214163,-0.2095730170235037
2024-12-07 20:24:16.776679200,9.90167919921875,-1.3113351120233534,-0.8019196089863777,-1.329109545905888
2024-12-07 20:24:16.786693400,9.911693359375,-1.1784732864975929,-1.0301485189020634,-1.9795529375284908
2024-12-07 20:24:16.796706300,9.921706298828123,-0.3394131566405296,-1.1918126605421304,-2.233287167839706
2024-12-07 20:24:16.806720300,9.93172021484375,0.5576245304107665,-1.217572540220618,-2.1986095299512147
2024-12-07 20:24:16.816734200,9.941734130859375,0.9132347886145116,-1.0901356623530387,-1.6157073504209518
2024-12-07 20:24:16.826748400,9.95174853515625,0.6701216132998467,-0.7913251497358084,-0.6862117473572492
2024-12-07 20:24:16.836761300,9.96176123046875,0.478057109231688,-0.4442664467781781,0.0934521906793117
2024-12-07 20:24:16.846775300,9.971775390625,0.69189856082201,-0.1569610785156488,0.6138242642775178
2024-12-07 20:24:16.856789200,9.981789306640623,0.9798024794995784,0.069495561030507,0.7730588406831026
2024-12-07 20:24:16.866803200,9.99180322265625,0.9230676889080554,0.3082417733073234,0.7694763060212135
2024-12-07 20:24:16.876816400,10.00181640625,0.7725251721978187,0.4493482800871133,0.5592340114340186
2024-12-07 20:24:16.886830300,10.011830322265626,0.713980701835826,0.5562801300644874,0.2122109643116593
2024-12-07 20:24:16.896844300,10.02184423828125,0.4874923519771545,0.5983206979364156,-0.1600578754872083
2024-12-07 20:24:16.906857200,10.031857177734375,0.0922515827178955,0.5286100328505039,-0.516979508550465
2024-12-07 20:24:16.916871400,10.041871337890624,-0.171789887400344,0.4343716602295637,-0.7857078943759203
2024-12-07 20:24:16.926885400,10.051885498046875,-0.3217548234183341,0.2559083594799041,-1.001176106917858
2024-12-07 20:24:16.936899000,10.061899169921874,-0.1575403397083282,-0.0918020853847265,-1.056620930764079
2024-12-07 20:24:16.946912300,10.071912353515623,0.3397195191759616,-0.4660550847381353,-0.854901842111349
2024-12-07 20:24:16.956926500,10.081926513671876,0.4726595245044678,-0.6572311520665883,-0.4911147071927785
2024-12-07 20:24:16.966940200,10.091940185546877,0.350307402555272,-0.6494289538830519,-0.1390355457246303
2024-12-07 20:24:16.976954000,10.1019541015625,0.1431247147344052,-0.5803261915624142,0.0924228476315736
2024-12-07 20:24:16.986967300,10.11196728515625,0.0048491205316036,-0.4115636160939931,0.3593357084676623
2024-12-07 20:24:16.996981500,10.1219814453125,0.0080126260638237,-0.2202595384716987,0.6690861327722668
2024-12-07 20:24:17.006995200,10.1319951171875,0.1207843611758202,-0.0149164141029119,0.9508660156115888
2024-12-07 20:24:17.017008400,10.14200830078125,0.2195719945989549,0.1641834309846162,1.1234414273664357
2024-12-07 20:24:17.027022300,10.152022216796874,0.2421849545538425,0.236898538583517,1.236551089195907
2024-12-07 20:24:17.037036300,10.162036376953123,0.1569886241097003,0.206631410613656,1.1922168574288488
2024-12-07 20:24:17.047050200,10.17205029296875,-0.0452232895612716,0.0828296743780374,1.0302882196336984
2024-12-07 20:24:17.057063400,10.1820634765625,-0.0200431825321167,-0.0719651660144329,0.8450877195835113
2024-12-07 20:24:17.067077400,10.192077392578126,0.1337749217826873,-0.262361481142044,0.6170382578879594
2024-12-07 20:24:17.077091300,10.20209130859375,0.0151730192124843,-0.3836445125550031,0.2647203192278742
2024-12-07 20:24:17.087105300,10.212105224609376,-0.1199567512452602,-0.3634095337778329,-0.0536620320826768
2024-12-07 20:24:17.097118500,10.222118408203125,-0.1612695893645286,-0.3091770083308219,-0.2547021985605359
2024-12-07 20:24:17.107132200,10.232132080078124,-0.0897334624171257,-0.2139694984167814,-0.3354179495245218
2024-12-07 20:24:17.117146400,10.242146484375,0.1323907008826732,-0.0864420196563005,-0.2670242122560739
2024-12-07 20:24:17.127159300,10.2521591796875,0.3424456562042236,0.0349327816933393,-0.118255354154855
2024-12-07 20:24:17.137173200,10.26217333984375,0.5329554416436701,0.0422363827049732,-0.0033269524656236
2024-12-07 20:24:17.147187200,10.272187255859375,0.6683143446821719,-0.0431546665936708,0.0376224591687321
2024-12-07 20:24:17.157201400,10.282201416015624,0.6713304045677184,-0.0959323170572519,0.064181234139949
2024-12-07 20:24:17.167214300,10.29221435546875,0.5342705428302288,-0.1798795972883701,0.100885555550456
2024-12-07 20:24:17.177228300,10.302228271484376,0.1893324122231453,-0.3041699938237667,0.0804706901617348
2024-12-07 20:24:17.187242200,10.3122421875,-0.0566355680007487,-0.3387959015250206,0.1664062216006219
2024-12-07 20:24:17.197256400,10.32225634765625,-0.070170683813095,-0.1883072338938713,0.401458255534619
2024-12-07 20:24:17.207269000,10.33226904296875,0.2125461876153945,0.0344394452184438,0.7686682045087218
2024-12-07 20:24:17.217283300,10.342283447265626,0.4892179336607456,0.1827864246457815,1.0429013252303003
2024-12-07 20:24:17.227297300,10.35229736328125,0.546513938331604,0.0856388865798711,1.040943030769378
2024-12-07 20:24:17.237310200,10.362310302734375,0.3102595428705215,-0.1443652163147926,0.739804075204581
2024-12-07 20:24:17.247324200,10.37232421875,-0.1288615769084543,-0.3779255503863096,0.32176936340034
2024-12-07 20:24:17.257338400,10.38233837890625,-0.6359304437540472,-0.5501461573541164,-0.060832654364407
2024-12-07 20:24:17.267352300,10.392352294921874,-1.1464156218491497,-0.6653127517133951,-0.3015397914506494
2024-12-07 20:24:17.277365200,10.402365234375,-1.484063668513298,-0.6995657344490289,-0.3946620195232331
2024-12-07 20:24:17.287379200,10.412379150390626,-1.4771604649960994,-0.6623603316485881,-0.3092721392683684
2024-12-07 20:24:17.297393400,10.422393310546877,-1.205851195831969,-0.586277793443203,-0.0838259919390082
2024-12-07 20:24:17.307407400,10.432407470703126,-0.8641665140628814,-0.4717524195969104,0.1604213019721209
2024-12-07 20:24:17.317420300,10.442420166015625,-0.600807838577032,-0.3440741341888904,0.3655035834476351
2024-12-07 20:24:17.327434200,10.452434326171876,-0.5568609986923635,-0.2465665306389331,0.4903635965645313
2024-12-07 20:24:17.337448400,10.462448486328125,-0.6369173358995467,-0.1026081415593624,0.6865688902318478
2024-12-07 20:24:17.347461000,10.472461181640623,-0.6794167534548788,0.0668365709543228,1.077228103854507
2024-12-07 20:24:17.357475300,10.482475341796874,-0.6183624191638082,0.1796370207041502,1.5638748718529938
2024-12-07 20:24:17.367489300,10.4924892578125,-0.4955308431345969,0.1509533625334501,2.190069811273366
2024-12-07 20:24:17.377503500,10.50250341796875,-0.4518717341501265,0.0105979663819074,2.8112638736665247
2024-12-07 20:24:17.387516200,10.51251611328125,-0.6775906340062617,-0.1040162547916173,3.3665509010404344
2024-12-07 20:24:17.397530400,10.5225302734375,-1.2920809609770774,4.0916532278e-05,3.7494869730651375
2024-12-07 20:24:17.407544300,10.53254443359375,-1.983530608987808,0.4054787432223558,4.00038071925342
2024-12-07 20:24:17.417558300,10.542558349609376,-2.1612067048825323,1.0566443116396664,4.171284398403763
2024-12-07 20:24:17.427571200,10.5525712890625,-1.939218004530668,1.8029419866472485,4.053403576649726
2024-12-07 20:24:17.437585400,10.56258544921875,-1.6793828269958495,2.624857504957914,3.734241473138332
2024-12-07 20:24:17.447599000,10.57259912109375,-1.4616601135253906,3.321245193892717,3.225676157189905
2024-12-07 20:24:17.457612300,10.5826123046875,-1.339393331772089,3.6490883242487904,2.4931986254811287
2024-12-07 20:24:17.467626200,10.592626220703124,-1.355420921987295,3.5069220792829987,1.6033523112386463
2024-12-07 20:24:17.477640400,10.602640380859375,-1.7945032441258428,2.804001189187169,0.8518114748805761
2024-12-07 20:24:17.487654100,10.612654052734374,-2.838891885304451,1.8056746264815329,0.5692176453098654
2024-12-07 20:24:17.497667300,10.622667236328123,-4.111615819382667,0.8023100696086883,0.246993816140294
2024-12-07 20:24:17.507681300,10.632681396484376,-5.488527273166179,0.1156277821302413,-0.6116179864048957
2024-12-07 20:24:17.517695200,10.6426953125,-4.467853854095935,-0.2404395721912383,-1.6582245958939197
2024-12-07 20:24:17.527709200,10.652709228515626,0.430051422410272,-0.9291653481960296,-2.508263508144021
2024-12-07 20:24:17.537722400,10.662722412109376,4.905526309436559,-1.578721727851033,-3.2582465936660765
2024-12-07 20:24:17.547736000,10.672736083984375,7.357581608146429,-1.5840157426059245,-3.3195886588573456
2024-12-07 20:24:17.557750300,10.682750244140625,7.292951022803783,-0.959306803959608,-2.187732454366982
2024-12-07 20:24:17.567763500,10.692763427734375,4.093790239834785,-0.0490092378407716,-0.688759678274393
2024-12-07 20:24:17.577777400,10.70277734375,-1.2486907320618628,1.0950298641353844,-0.0183539873361587
2024-12-07 20:24:17.587791000,10.712791015625,-3.654324471336603,2.266087905940413,-0.9054770140945912
2024-12-07 20:24:17.597805300,10.722805419921874,-0.9944798241496086,2.375706218522787,-1.9511630016073584
2024-12-07 20:24:17.607818200,10.732818359375,1.3401941267609596,1.5759236215651031,-2.2073191983684897
2024-12-07 20:24:17.617832200,10.742832275390626,1.8723066147744647,0.4760007246911525,-2.269562596313655
2024-12-07 20:24:17.627846100,10.75284619140625,1.5522838027805088,-0.4695774136453867,-2.309433126670122
2024-12-07 20:24:17.637860400,10.7628603515625,1.15173433265388,-1.221428046604991,-2.1775930454075336
2024-12-07 20:24:17.647873300,10.772873291015625,0.9066735304027796,-1.6893769822657108,-2.057937322935462
2024-12-07 20:24:17.657888000,10.782887939453126,0.6432599098592996,-1.8308663508832448,-2.0760344129011035
2024-12-07 20:24:17.667901700,10.792901611328125,0.3551204288601875,-1.7439982147693631,-2.08599875755459
2024-12-07 20:24:17.677915000,10.802914794921875,0.2568366167733446,-1.5914391706049442,-2.009119516013562
2024-12-07 20:24:17.687928800,10.8129287109375,0.0919178572515025,-1.415600957661867,-1.933413409905136
2024-12-07 20:24:17.697943000,10.822943115234375,-0.0460199928969144,-1.3254191669553517,-1.9221745152711869
2024-12-07 20:24:17.707956700,10.832956787109374,0.1625187126427889,-1.326110656350851,-1.9330340551987288
2024-12-07 20:24:17.717970000,10.842969970703123,0.6227712485820055,-1.3331558986872434,-1.967712862131
2024-12-07 20:24:17.727983900,10.85298388671875,1.198372749710083,-1.259899523818493,-1.9187746436998248
2024-12-07 20:24:17.737997800,10.862997802734377,1.5393705451935529,-1.1498217770308254,-1.8258926541239024
2024-12-07 20:24:17.748011800,10.87301171875,1.537593014127016,-1.093701245880127,-1.6722303248926995
2024-12-07 20:24:17.758025000,10.88302490234375,1.297795831492543,-1.0640993038207291,-1.4771771238699554
2024-12-07 20:24:17.768038700,10.89303857421875,1.044594904340431,-1.0775982523411511,-1.1735235551357268
2024-12-07 20:24:17.778052900,10.903052978515625,0.6472673919349908,-1.1121715530723333,-0.7142869182407856
2024-12-07 20:24:17.788065800,10.913065673828124,0.0265888047832995,-1.114296290141344,0.0631201807796955
2024-12-07 20:24:17.798080000,10.923080078125,-0.7422293295901268,-0.867539205366373,1.3510343774661422
2024-12-07 20:24:17.808093700,10.93309375,-1.235337329491973,-0.6881155351519584,2.609436063942313
2024-12-07 20:24:17.818108000,10.94310791015625,-1.26639473105669,-0.5993827742099762,3.6704914700224993
2024-12-07 20:24:17.828120800,10.953120849609377,-1.3976380154699086,-0.2789771003782749,4.4785812920764085
2024-12-07 20:24:17.838134800,10.963134765625,-1.2421376571565863,0.1998486186057329,4.909201783078909
2024-12-07 20:24:17.848148700,10.973148681640623,-0.1720148552626371,0.4303320294499397,5.016355166852474
2024-12-07 20:24:17.858163000,10.983162841796876,1.806754238411784,0.2771726813048124,4.803137363585829
2024-12-07 20:24:17.868176000,10.99317578125,3.925020650103688,0.2839560578346252,3.9261525767430654
2024-12-07 20:24:17.878189800,11.00318994140625,4.718954521033168,1.372955994156003,0.9332438496813178
2024-12-07 20:24:17.888203800,11.013203857421876,2.8931735105901955,3.773201610651612,-3.1458301747977733
2024-12-07 20:24:17.898217000,11.023217041015624,-0.5079214650869369,6.653989686921238,-5.7158022433578966
2024-12-07 20:24:17.908230700,11.033230712890624,-2.4164275204896923,7.823104777964949,-6.378680461400747
2024-12-07 20:24:17.918244900,11.043244873046875,-3.182803522408008,4.724937687095999,-5.112538243800401
2024-12-07 20:24:17.928258800,11.0532587890625,-3.801139418891072,0.2204518461734056,-4.680967612466215
2024-12-07 20:24:17.938271700,11.063271728515623,-3.2971021017611024,-2.6293922257781026,-4.447238351568579
2024-12-07 20:24:17.948285700,11.07328564453125,-1.5047697719335555,-3.695288349887728,-4.071517910011113
2024-12-07 20:24:17.958300000,11.0832998046875,1.395017019316554,-3.5327287207126616,-3.759787417805194
2024-12-07 20:24:17.968313900,11.09331396484375,2.9173125110685825,-2.470781041967869,-2.781726521275937
2024-12-07 20:24:17.978326800,11.103326904296877,2.095306976386905,-0.7892448363304138,-1.1899769695475697
2024-12-07 20:24:17.988340700,11.1133408203125,1.5551169803798195,0.6448591617494821,0.2207753790393471
2024-12-07 20:24:17.998355000,11.12335498046875,1.5990835478782652,1.318404319757223,1.0949345870673657
2024-12-07 20:24:18.008367900,11.133367919921875,1.1131535498470069,1.2470365351140498,1.7357178776800632
2024-12-07 20:24:18.018381800,11.1433818359375,0.4927636434435844,0.4429442582637071,2.010827196714282
2024-12-07 20:24:18.028395800,11.153395751953123,0.35869653378129,-0.5600210701584816,1.5737246502161024
2024-12-07 20:24:18.038410000,11.163409912109374,0.4799707973659038,-1.1079507205069064,1.053235964500904
2024-12-07 20:24:18.048423000,11.1734228515625,0.3967734587192535,-1.185823064738512,0.4651806399911641
2024-12-07 20:24:18.058436900,11.183436767578126,0.0300759710456244,-0.8806552920490502,-0.2387856675043702
2024-12-07 20:24:18.068450800,11.193450927734377,-0.2840718114350922,-0.3836509422957897,-0.7391407889902591
2024-12-07 20:24:18.078464800,11.20346484375,-0.2848351787567138,0.0011941782206296,-0.94697573017478
2024-12-07 20:24:18.088478000,11.21347802734375,-0.2068494372785091,0.145356565439701,-0.9732169636294246
2024-12-07 20:24:18.098492000,11.223491943359376,-0.3141127476999536,0.3338479237288236,-0.9141837599024176
2024-12-07 20:24:18.108505900,11.233505859375,-0.4732593535611405,0.5067237797349691,-0.7014712758094072
2024-12-07 20:24:18.118518800,11.243518798828124,-0.3829237605324014,0.4230816199302673,-0.47201428540349
2024-12-07 20:24:18.128533000,11.253532958984374,-0.2227799968600273,0.1470347277849912,-0.3549398115962743
2024-12-07 20:24:18.138547000,11.263546875,-0.1268435881495475,-0.1008937388569116,-0.177231420867145
2024-12-07 20:24:18.148560600,11.273560546875,0.0510989035964012,-0.1721720916509628,0.0577557311370968
2024-12-07 20:24:18.158573800,11.28357373046875,0.4386497394075617,-0.1362228263914585,0.1959273535087704
2024-12-07 20:24:18.168588000,11.293588134765624,0.873378579044342,-0.1197089139640331,0.2499590956866741
2024-12-07 20:24:18.178602000,11.30360205078125,1.1057821442961693,-0.1837947249054908,0.1943397920563817
2024-12-07 20:24:18.188615000,11.313614990234376,1.1685224589128047,-0.2443646366804838,0.0821302939370274
2024-12-07 20:24:18.198628900,11.32362890625,1.1305530860025437,-0.2516185533314943,-0.0922317089736461
2024-12-07 20:24:18.208643000,11.33364306640625,0.9810966109633446,-0.2729530177831649,-0.2187833284392952
2024-12-07 20:24:18.218656800,11.34365673828125,0.6859142257153987,-0.2666138778895139,-0.3276709886595607
2024-12-07 20:24:18.228670000,11.353669921875,0.2535047324042767,-0.2194616660922765,-0.2913099277287721
2024-12-07 20:24:18.238684000,11.363683837890624,-0.1656640249311924,-0.0593523526787757,-0.0811529733374714
2024-12-07 20:24:18.248697900,11.37369775390625,-0.3837644126076251,0.2024661076277494,0.2191740813225507
2024-12-07 20:24:18.258711800,11.3837119140625,-0.3599766367197036,0.4556453344047069,0.4323281717032194
2024-12-07 20:24:18.268725000,11.39372509765625,-0.1215514000255614,0.5503279436618089,0.5342652821332216
2024-12-07 20:24:18.278739000,11.403739013671874,0.1577448493044823,0.4369546624600887,0.52772214410007
2024-12-07 20:24:18.288753000,11.4137529296875,0.3144353672504424,0.1069184059739112,0.5127452319815755
2024-12-07 20:24:18.298766800,11.423766845703126,0.3068693159103393,-0.3392711178213358,0.4281842037662863
2024-12-07 20:24:18.308780000,11.433780029296877,0.0047545741159468,-0.696924864551425,0.2715656550779938
2024-12-07 20:24:18.318793700,11.443793701171876,-0.3058534899313002,-0.8537795600831508,0.1542223012015223
2024-12-07 20:24:18.328808000,11.453807861328125,-0.344886692680791,-0.8396317922651767,0.1914681821428239
2024-12-07 20:24:18.338820900,11.46382080078125,-0.3173849377710372,-0.6428735408902168,0.2580379188545048
