time,seconds_elapsed,z,y,x
2024-12-07 20:07:08.574327800,0.020327880859375,0.1561485930889845,-0.2908580923080444,-0.2732061157613992
2024-12-07 20:07:08.584341800,0.030341796875,0.234332524020411,-0.2426753684192895,-0.0710083036810159
2024-12-07 20:07:08.594355500,0.04035546875,0.17016135461675,-0.2008861449599266,0.0518278023928403
2024-12-07 20:07:08.604368600,0.05036865234375,0.1805453677207231,-0.2755979793339967,0.0311298822790384
2024-12-07 20:07:08.614382800,0.0603828125,0.242993348327279,-0.434421344590187,0.1657283223390579
2024-12-07 20:07:08.624396500,0.070396484375,0.1646913805067539,-0.5114338571220636,0.4796428805857896
2024-12-07 20:07:08.634409700,0.08040966796875,-0.092813892775774,-0.7121750406533479,0.5614367821753025
2024-12-07 20:07:08.644423700,0.090423583984375,-0.1204629472017288,-0.8373428045451641,0.5574456667125225
2024-12-07 20:07:08.654438000,0.10043798828125,-0.0291021804102929,-0.7792156097471714,0.5544616824656725
2024-12-07 20:07:08.664451600,0.11045166015625,-0.1084475152373313,-0.5095575418561696,0.434538833490014
2024-12-07 20:07:08.674464800,0.12046484375,-0.2004337250173092,-0.4019014692574739,0.0436029948830604
2024-12-07 20:07:08.684478700,0.130478759765625,-0.2643628658260218,-0.5956611233383416,-0.4944026428222656
2024-12-07 20:07:08.694492700,0.14049267578125,-0.1933948941553942,-1.531072672447562,-1.1568453920572996
2024-12-07 20:07:08.704505600,0.150505615234375,0.0096983871936798,-1.4593693722397088,-0.9069768972635268
2024-12-07 20:07:08.714519800,0.160519775390625,0.0817395410537719,-1.0250567487210034,-0.4019283572643995
2024-12-07 20:07:08.724533500,0.170533447265625,0.0700152009904384,-0.7243857029289007,0.0681219345897436
2024-12-07 20:07:08.734546700,0.180546630859375,0.0211818859721533,-0.4831494274020195,0.2631359726458788
2024-12-07 20:07:08.744560600,0.190560546875,0.0810649845267646,-0.0546031123250722,0.3237286807745695
2024-12-07 20:07:08.754574800,0.200574951171875,0.0685036273837089,-0.02372282089293,0.1101218781903386
2024-12-07 20:07:08.764587500,0.21058740234375,0.1172340208836365,0.0181722010284662,-0.0999336616531014
2024-12-07 20:07:08.774601700,0.220601806640625,0.3383317911446094,-0.1173731644928455,-0.0798635180488228
2024-12-07 20:07:08.784615700,0.23061572265625,0.4693173014044761,-0.2056616887986659,-0.1109182892650365
2024-12-07 20:07:08.794628600,0.240628662109375,0.4168541237175464,-0.1625952850103378,-0.0127700497239828
2024-12-07 20:07:08.804642600,0.250642578125,0.067332245516777,-0.0856190128356218,0.2665630244851112
2024-12-07 20:07:08.814656800,0.26065673828125,-0.1638812331676483,0.3309077786237001,0.3813046714305877
2024-12-07 20:07:08.824669700,0.270669677734375,-0.2672165016914717,0.8516443016201257,0.5261994645774364
2024-12-07 20:07:08.834683600,0.28068359375,-0.3498725913345814,1.1334726997762918,0.9836196997001768
2024-12-07 20:07:08.844697600,0.290697509765625,-0.1960942345082759,1.0049252303183078,1.1051122822105883
2024-12-07 20:07:08.854710500,0.30071044921875,0.0250712946261279,0.6298001243054866,0.805537214961648
2024-12-07 20:07:08.864724700,0.310724853515625,0.0854968660269863,0.1893710637331009,0.2998737579345703
2024-12-07 20:07:08.874738700,0.32073876953125,0.1223801972662098,-0.0555225652575492,-0.1351695179462432
2024-12-07 20:07:08.884751600,0.330751708984375,0.181584026586078,-0.1933387983202934,-0.4027802979186177
2024-12-07 20:07:08.894765600,0.340765625,0.1617243473947048,-0.2476514032661914,-0.4134431462302804
2024-12-07 20:07:08.904779800,0.35077978515625,0.1229927944729104,-0.3051496525108814,-0.2930529720038175
2024-12-07 20:07:08.914792700,0.360792724609375,0.115488702453114,-0.2577694771766662,-0.1351484751582145
2024-12-07 20:07:08.924806700,0.370806640625,0.0878677050778642,-0.1544751069188117,-0.0189066527828574
2024-12-07 20:07:08.934820600,0.380820556640625,0.0043991482743993,-0.0611731383651494,0.0856964619860053
2024-12-07 20:07:08.944833800,0.390833740234375,0.0064834802677854,-0.0349608387440443,0.165922091345489
2024-12-07 20:07:08.954847500,0.400847412109375,0.1972936734259128,-0.334035555255413,0.2093365779191255
2024-12-07 20:07:08.964861700,0.41086181640625,0.4066588198523968,-0.6334831967324018,0.0716883948996663
2024-12-07 20:07:08.974874600,0.42087451171875,0.4004933560252189,-0.5919207677662373,-0.2553667999491095
2024-12-07 20:07:08.984888800,0.430888916015625,0.2565220709314569,-0.6568529664039612,-0.4418839355558157
2024-12-07 20:07:08.994902500,0.440902587890625,0.1183352509906515,-0.7755430587142705,-0.3093374595895409
2024-12-07 20:07:09.004915700,0.450915771484375,-0.056778118276596,-0.690656451806426,-0.1361313487157225
2024-12-07 20:07:09.014929700,0.4609296875,-0.2336007026145234,-0.4794610942780971,-0.049635260784626
2024-12-07 20:07:09.024943600,0.470943603515625,-0.3270108077177778,-0.245624865874648,0.0136401105567812
2024-12-07 20:07:09.034956800,0.480956787109375,-0.362834948760271,-0.386916081571579,-0.067181146608293
2024-12-07 20:07:09.044970800,0.490970703125,-0.2694833323786035,-1.1308826832830905,-0.2272697094947099
2024-12-07 20:07:09.054984400,0.500984375,-0.0339034386456012,-1.7507810067772864,-0.099682609501481
2024-12-07 20:07:09.064997600,0.51099755859375,0.1676992936184629,-2.116384251207113,0.1400309865027666
2024-12-07 20:07:09.075011800,0.52101171875,0.2398059139302,-2.6491268538177013,0.464046959786117
2024-12-07 20:07:09.085025800,0.53102587890625,0.3521148173034191,-2.780623820731044,0.3768254801899194
2024-12-07 20:07:09.095038700,0.541038818359375,0.4055377799332141,-2.294181781524419,0.3340580593481659
2024-12-07 20:07:09.105052700,0.551052734375,0.298779532957077,-1.2302075653880833,0.500084487850964
2024-12-07 20:07:09.115067000,0.56106689453125,0.2043418383717536,0.089548168978095,0.6496963726475834
2024-12-07 20:07:09.125079600,0.57107958984375,0.0225437671761959,1.2657634474158286,0.6008721359848975
2024-12-07 20:07:09.135093800,0.58109375,-0.294276522449404,1.849403293570876,0.2827566189169883
2024-12-07 20:07:09.145107700,0.591107666015625,-0.5997065262716264,2.153402607002854,-0.0919376944631338
2024-12-07 20:07:09.155121700,0.60112158203125,-0.7239326984643936,2.200191246184706,-0.2305366023361682
2024-12-07 20:07:09.165134600,0.611134521484375,-0.5848387736160308,2.2635066572755576,-0.5160962959751486
2024-12-07 20:07:09.175148800,0.621148681640625,-0.4407213945824653,2.352255784830451,-0.6588473550915718
2024-12-07 20:07:09.185162800,0.631162841796875,-0.3661865972757339,1.7049579977571965,-0.7231035541638732
2024-12-07 20:07:09.195175700,0.64117578125,-0.3089945644360035,0.7703145104110241,-0.5518316262230277
2024-12-07 20:07:09.205189600,0.651189697265625,-0.2782125457465648,1.0268167441308498,-0.4501370923772454
2024-12-07 20:07:09.215203800,0.661203857421875,-0.389825904603675,0.5059364287495612,-0.2764396908551454
2024-12-07 20:07:09.225216500,0.671216552734375,-0.3848890327233821,-0.1750128680348396,-0.066203826008737
2024-12-07 20:07:09.235230700,0.681230712890625,-0.2585387079834937,-1.3889812462836504,0.1800441402003169
2024-12-07 20:07:09.245244700,0.69124462890625,-0.0919089067600667,-2.450325113916397,0.6518126341491938
2024-12-07 20:07:09.255257600,0.701257568359375,0.1692810463845729,-2.382683656319976,1.2335954542607068
2024-12-07 20:07:09.265271600,0.711271484375,0.5002852711200714,-0.3735813837021589,1.612993415287137
2024-12-07 20:07:09.275285800,0.72128564453125,0.4360474844872951,0.8330401389151811,1.3127853108316658
2024-12-07 20:07:09.285298700,0.731298583984375,0.231670501736924,1.4501438632547854,0.6123167823240161
2024-12-07 20:07:09.295312600,0.741312744140625,-0.004939356098324,1.6218255410403013,-0.2076579771824181
2024-12-07 20:07:09.305326600,0.75132666015625,-0.1145312190651893,1.6635732634454965,-0.6281982420668005
2024-12-07 20:07:09.315339500,0.761339599609375,-0.1926337187908589,1.394515499535203,-0.7283693657375871
2024-12-07 20:07:09.325353700,0.771353759765625,-0.980575217437744,1.0683265661269423,-0.6195324127912522
2024-12-07 20:07:09.335367700,0.78136767578125,-1.3458148892521855,0.7379793439954518,-0.3688279055647552
2024-12-07 20:07:09.345380900,0.791380859375,-1.3416297125220298,0.4167939179629087,-0.0614339812584221
2024-12-07 20:07:09.355394600,0.80139453125,-0.9029251376546918,-0.0145341367870569,0.1304271457247436
2024-12-07 20:07:09.365408800,0.81140869140625,-0.2587503049075603,-0.3052460986226797,0.1655852606065571
2024-12-07 20:07:09.375421700,0.821421630859375,0.2691886968135834,-0.1291653090953826,-0.2286003735765814
2024-12-07 20:07:09.385435600,0.831435546875,0.5383983633499593,0.2187865433096885,-1.2112886376455425
2024-12-07 20:07:09.395449600,0.84144970703125,0.0887654211025685,0.3892798880934715,-1.5933562562726438
2024-12-07 20:07:09.405462800,0.851462890625,-0.1665572474438697,0.6600356880933046,-0.8617971545830369
2024-12-07 20:07:09.415476500,0.8614765625,-0.0339502003967761,0.5691150617182255,-0.241116302409023
2024-12-07 20:07:09.425490700,0.87149072265625,0.1585482015766203,0.0885053819268941,-0.1428964589364826
2024-12-07 20:07:09.435503600,0.881503662109375,-0.0515747774798423,-0.858050077009201,-0.1545652694202959
2024-12-07 20:07:09.445517800,0.891517822265625,-0.0631727877497673,-1.042551488879323,0.6459076478891074
2024-12-07 20:07:09.455531500,0.901531494140625,0.4538216261088847,-0.3552233047127723,1.7576562993742524
2024-12-07 20:07:09.465544700,0.911544677734375,1.0246176997166123,-0.1481137551933526,2.263596673646569
2024-12-07 20:07:09.475558700,0.92155859375,1.620009431529045,-0.1848883653610944,2.21806154165715
2024-12-07 20:07:09.485572600,0.931572509765625,1.7782371689796446,-0.2777840912014246,1.8580095016136764
2024-12-07 20:07:09.495585800,0.941585693359375,1.477481952035427,-0.295014042943716,1.52137413912341
2024-12-07 20:07:09.505599700,0.951599853515625,1.0917115333676335,-0.2104559373378753,1.456010855592042
2024-12-07 20:07:09.515613400,0.961613525390625,0.7761703237671405,-0.082905077701807,1.1394672640159726
2024-12-07 20:07:09.525626600,0.971626708984375,0.5191350060839206,0.0111193599075078,0.4285122666768729
2024-12-07 20:07:09.535640800,0.981640869140625,0.3749591748613864,0.0457610496997833,-0.3579157586671412
2024-12-07 20:07:09.545654800,0.99165478515625,0.2565736184556037,0.2489525489926338,-0.8171202468581498
2024-12-07 20:07:09.555667700,1.001667724609375,0.143475720129162,0.3430032900869846,-1.0229020549051464
2024-12-07 20:07:09.565681700,1.011681640625,0.0539618918120861,0.2912286791861057,-1.0479276289597153
2024-12-07 20:07:09.575696000,1.02169580078125,-0.0746305858314037,0.1095569377839565,-0.977854560302198
2024-12-07 20:07:09.585708500,1.03170849609375,-0.2839956591926515,0.101169048666954,-1.0019726641230284
2024-12-07 20:07:09.595722800,1.04172265625,-0.2662310160517692,-0.2079050838112831,-0.8222245842598378
2024-12-07 20:07:09.605736700,1.05173681640625,-0.2459715604204684,-0.3077384999603033,-0.786123343309015
2024-12-07 20:07:09.615749600,1.06174951171875,-0.3528628591917455,-0.2892722844213247,-0.7448306711949407
2024-12-07 20:07:09.625763600,1.071763671875,-0.4493617240905761,-0.101081370383501,-0.4679119646511971
2024-12-07 20:07:09.635777800,1.08177783203125,-0.424427262385562,0.1772241143435239,-0.1129807747527956
2024-12-07 20:07:09.645790500,1.09179052734375,-0.2628571557044983,0.3575730827093124,0.2665437352627515
2024-12-07 20:07:09.655804700,1.1018046875,-0.110164986679703,0.4086404221236706,0.6119890116743744
2024-12-07 20:07:09.665818600,1.111818603515625,0.0387152228415012,0.2811807479023933,0.7699334021389483
2024-12-07 20:07:09.675831600,1.12183154296875,0.0862729466997087,-0.0071843585461378,0.770639942973107
2024-12-07 20:07:09.685845500,1.131845458984375,0.1266178165696561,-0.3100491149902343,0.7269267657138406
2024-12-07 20:07:09.695859700,1.141859619140625,0.2425881285272538,-0.533531707161665,0.7556345354124904
2024-12-07 20:07:09.705873000,1.151872802734375,0.3906125249367207,-0.60411272534132,0.7452668706551194
2024-12-07 20:07:09.715886600,1.161886474609375,0.4942553433060646,-0.4729419216424226,0.6798113787956536
2024-12-07 20:07:09.725900500,1.171900634765625,0.6228804811101406,-0.257693489331007,0.5374805909179151
2024-12-07 20:07:09.735913700,1.181913818359375,0.6121873107254505,-0.0227221194177865,0.3741926474682986
2024-12-07 20:07:09.745927700,1.191927734375,0.6043992141325026,0.1030512091517448,0.2508898006655276
2024-12-07 20:07:09.755941600,1.201941650390625,0.640683994956687,0.0854132611304521,0.1222420857034623
2024-12-07 20:07:09.765954800,1.211954833984375,0.6958150036133826,0.0620294629335403,0.0548981497488915
2024-12-07 20:07:09.775968800,1.22196875,0.7631437419988214,0.1000935283899307,0.1174379002921283
2024-12-07 20:07:09.785982700,1.231982666015625,0.644763811616227,0.2489770989120006,0.0948245019458234
2024-12-07 20:07:09.795995600,1.24199560546875,0.1916483610153198,0.3532183946311473,0.0047641456618905
2024-12-07 20:07:09.806009900,1.252009765625,-0.4224047435820102,0.3096025402665138,-0.1394615160517394
2024-12-07 20:07:09.816023600,1.2620234375,-0.9236988994836808,0.1648521240264177,-0.1945771079435944
2024-12-07 20:07:09.826036700,1.27203662109375,-1.0067384172201157,-0.0203887080341577,-0.2094409150764346
2024-12-07 20:07:09.836050700,1.28205078125,-0.8044539497695863,-0.1852297261446714,-0.2479229136839509
2024-12-07 20:07:09.846064600,1.292064697265625,-0.4563455916285515,-0.2751625105261802,-0.355993266171962
2024-12-07 20:07:09.856077600,1.30207763671875,-0.2740203547537326,-0.1983931591004133,-0.2611031516440212
2024-12-07 20:07:09.866091800,1.312091796875,-0.454044913470745,-0.2583615978509188,-0.1908084030598402
2024-12-07 20:07:09.876105700,1.322105712890625,-0.6066765114147216,-0.510028666499257,0.0050331718616187
2024-12-07 20:07:09.886118700,1.33211865234375,-0.4567349562723189,-0.4932067110359668,0.7629169475056231
2024-12-07 20:07:09.896132600,1.342132568359375,-0.0199579884666949,-0.2619628372132778,1.4955692512594163
2024-12-07 20:07:09.906146800,1.352146728515625,0.0832943692803382,0.1103121400654316,1.7486689830593765
2024-12-07 20:07:09.916159700,1.36215966796875,-0.2212674003399908,0.3949924205213785,1.7300566370479762
2024-12-07 20:07:09.926173700,1.372173583984375,-0.534540591943264,0.4252636401444673,1.6573665177598595
2024-12-07 20:07:09.936187600,1.382187744140625,-0.8971474310360849,0.0251934779673814,1.3301380121707915
2024-12-07 20:07:09.946201600,1.39220166015625,-0.5253262619394808,-0.394666841828823,0.9456669856637716
2024-12-07 20:07:09.956214800,1.40221484375,0.2348491317730396,-0.52587563945055,0.659515609741956
2024-12-07 20:07:09.966228700,1.412228759765625,0.6441500636320561,-0.4737281035840511,0.6500768963977694
2024-12-07 20:07:09.976242700,1.42224267578125,0.7491220847785472,-0.2906096705049276,0.6520567451033741
2024-12-07 20:07:09.986255600,1.432255615234375,0.5215536845982074,-0.0571340921074152,0.4097878385931253
2024-12-07 20:07:09.996269800,1.442269775390625,0.1791829202610999,0.1090671084403991,0.0943567383036017
2024-12-07 20:07:10.006283800,1.45228369140625,0.0570399840831756,0.2600473589807748,0.0047624651614576
2024-12-07 20:07:10.016296700,1.462296630859375,0.2129763226609677,0.316330971738696,-0.0008807283572852
2024-12-07 20:07:10.026310700,1.472310546875,0.2931868275165558,0.1112631571799516,-0.031593115876615
2024-12-07 20:07:10.036324900,1.482324951171875,0.3645534431159496,-0.1806377221792936,-0.0282453398186713
2024-12-07 20:07:10.046337500,1.492337646484375,0.6781680685680359,-0.377732658162713,-0.0221496532920747
2024-12-07 20:07:10.056351700,1.502351806640625,0.9960007501065732,-0.371990315118432,0.0059833121933043
2024-12-07 20:07:10.066365700,1.51236572265625,1.01670802257061,-0.1740560057014226,-0.0240183697734028
2024-12-07 20:07:10.076378600,1.522378662109375,0.5681307268559932,0.1618447589039802,-0.0748005355708301
2024-12-07 20:07:10.086392600,1.532392578125,-0.1972141053836792,0.4798527239441871,-0.1531999724164605
2024-12-07 20:07:10.096406800,1.54240673828125,-0.9739770612817256,0.6533662933319807,-0.240175002970919
2024-12-07 20:07:10.106419500,1.55241943359375,-1.554472837257385,0.7274445059776306,-0.311402356230095
2024-12-07 20:07:10.116433700,1.56243359375,-1.739635343384743,0.8570867849349975,-0.3842576029520481
2024-12-07 20:07:10.126446800,1.57244677734375,-1.527697058534622,1.1094348215848209,-0.3096128424648195
2024-12-07 20:07:10.136460800,1.582460693359375,-1.0409528945762665,1.3201777591705322,-0.1420501443054527
2024-12-07 20:07:10.146474500,1.592474609375,-1.1771991018433123,1.1408517041116952,0.2982023175910115
2024-12-07 20:07:10.156488700,1.60248876953125,-1.6208943976700303,0.966438555535674,1.077663718792796
2024-12-07 20:07:10.166502000,1.612501953125,-1.7649954100906848,0.7214017186820506,1.6400576555624604
2024-12-07 20:07:10.176515600,1.622515625,-1.6972399707257746,0.5180348628222942,1.7747300376415251
2024-12-07 20:07:10.186529500,1.632529541015625,-0.8163993852376937,0.3861059342324733,1.5326860989935696
2024-12-07 20:07:10.196542700,1.642542724609375,-0.1998994720101356,0.1617822150617837,0.983548753355816
2024-12-07 20:07:10.206556700,1.652556640625,0.3670564023802056,-0.1024415528208017,0.3030858518488705
2024-12-07 20:07:10.216570600,1.662570556640625,0.6961269921720028,-0.2634416775941848,-0.2816934466648846
2024-12-07 20:07:10.226583800,1.672583740234375,0.0751414579629898,-0.1999240219295024,-0.3361351578831672
2024-12-07 20:07:10.236597800,1.68259765625,-0.105100542896986,0.1729161880165338,-0.2575599260792136
2024-12-07 20:07:10.246611700,1.69261181640625,0.3832546364545822,0.5575958888381719,-0.3862273686550557
2024-12-07 20:07:10.256624600,1.702624755859375,0.7418506324708461,0.782716895866394,-0.3280056274414062
2024-12-07 20:07:10.266638800,1.712638916015625,0.7058019984900951,0.7877893768250942,-0.1024421373426914
2024-12-07 20:07:10.276652500,1.722652587890625,0.4272527681350708,0.6137322020798921,-0.025952333510667
2024-12-07 20:07:10.286665700,1.732665771484375,0.2483294486582279,0.3266647342264652,0.0016207330696284
2024-12-07 20:07:10.296679700,1.7426796875,-0.1135316866338252,-0.0414735816389322,0.1746712149903178
2024-12-07 20:07:10.306694000,1.75269384765625,-0.585074847394228,-0.4961480251848697,0.6322156610146165
2024-12-07 20:07:10.316706600,1.76270654296875,-0.8255740408182144,-0.9981745870143176,1.1610495657488702
2024-12-07 20:07:10.326720800,1.772720703125,-0.9601356559991836,-1.5330395886063577,1.5031241966836153
2024-12-07 20:07:10.336734700,1.782734619140625,-0.8662053264141082,-2.101101341879368,1.5860218217313289
2024-12-07 20:07:10.346747600,1.79274755859375,-0.5448609104275703,-2.607582545030117,1.3381748958930373
2024-12-07 20:07:10.356761600,1.80276171875,-0.3641056993484496,-2.812322442808747,0.8182055578768253
2024-12-07 20:07:10.366775800,1.81277587890625,-0.2413742226928472,-2.5126193652659654,0.2370322479657828
2024-12-07 20:07:10.376788700,1.822788818359375,-0.0248433493554592,-1.90023565518558,-0.2421655192010104
2024-12-07 20:07:10.386802700,1.832802734375,0.0782172121465206,-1.2437865934073924,-0.6315471141032875
2024-12-07 20:07:10.396816600,1.842816650390625,0.0402028310507535,-0.6188882696688175,-0.9824090087361632
2024-12-07 20:07:10.406829600,1.85282958984375,-0.1008680016274563,-0.1823082857400178,-1.2577774170979856
2024-12-07 20:07:10.416843800,1.86284375,-0.2329810728788375,0.0188280345886945,-1.1299167608603835
2024-12-07 20:07:10.426857700,1.872857666015625,-0.1236643553252331,-0.0215641815543174,-0.5441175447143614
2024-12-07 20:07:10.436870700,1.88287060546875,0.0870692207770887,-0.3323988939642906,0.0906676745273172
2024-12-07 20:07:10.446884400,1.89288427734375,0.3691612291723489,-0.7710738043457269,0.5538137399509548
2024-12-07 20:07:10.456898600,1.902898681640625,0.6604501141130924,-1.0904121412068606,0.8017046510614454
2024-12-07 20:07:10.466911500,1.912911376953125,0.9041074793070554,-1.2564631196290257,0.7778922521889209
2024-12-07 20:07:10.476925700,1.92292578125,1.0064034861773252,-1.2177309456527232,0.5913629877530038
2024-12-07 20:07:10.486939400,1.932939453125,1.0639993505775929,-1.0853098496317863,0.3005402590192854
2024-12-07 20:07:10.496952600,1.94295263671875,0.8966752834796905,-0.8756786726802587,-0.0977232921272516
2024-12-07 20:07:10.506966500,1.952966552734375,0.6904314108788967,-0.5777227310657501,-0.6291425371795892
2024-12-07 20:07:10.516980500,1.96298046875,0.6556769083619117,-0.2945692217856645,-1.4502425013236702
2024-12-07 20:07:10.526993400,1.972993408203125,0.3299719590783119,-0.1044774425625801,-2.4827131795629858
2024-12-07 20:07:10.537007600,1.983007568359375,-0.4190811521172523,-0.1046364325165748,-3.454244966584444
2024-12-07 20:07:10.547021300,1.993021240234375,-1.4255074346482752,0.2186485961437225,-4.244515054309368
2024-12-07 20:07:10.557034500,2.003034423828125,-2.3749159449279307,1.29041624263525,-4.4549663154721255
2024-12-07 20:07:10.567048400,2.01304833984375,-2.4979484503567218,2.5034949785679577,-3.485353221553564
2024-12-07 20:07:10.577062700,2.023062744140625,-1.37167413765192,2.74036487557888,-1.866024758026004
2024-12-07 20:07:10.587075600,2.03307568359375,-0.0100397662435658,2.2973715174764395,-0.7934073628373444
2024-12-07 20:07:10.597089500,2.043089599609375,0.6371721143782139,1.6984078454613685,-0.179148652665317
2024-12-07 20:07:10.607103500,2.053103515625,0.1397428537437692,0.7745201454073191,0.1955330934941768
2024-12-07 20:07:10.617116400,2.063116455078125,-0.6000140578508377,-0.1142453878611326,0.3657387073777616
2024-12-07 20:07:10.627130600,2.073130615234375,-0.4161842616319656,-0.551553101542592,0.4068143757402896
2024-12-07 20:07:10.637144600,2.08314453125,0.7059703407943249,-0.6021586686640977,0.3250372791551053
2024-12-07 20:07:10.647157500,2.093157470703125,1.6076561459124088,-0.4100163866519927,0.1103223691985011
2024-12-07 20:07:10.657171500,2.10317138671875,1.814904227119684,-0.1275485215485096,-0.1019274658188223
2024-12-07 20:07:10.667185700,2.113185546875,1.439582721751928,0.0564881954193115,-0.257527485114336
2024-12-07 20:07:10.677198300,2.1231982421875,0.862000275939703,0.1338449913442135,-0.3668764792360365
2024-12-07 20:07:10.687212500,2.133212646484375,0.4439186562538146,0.1373737499922513,-0.3904800576634705
2024-12-07 20:07:10.697226500,2.1432265625,0.2952139494299888,0.191252639696002,-0.4179766980066895
2024-12-07 20:07:10.707239400,2.153239501953125,0.2251122391998767,0.2866226466953754,-0.4047321626387536
2024-12-07 20:07:10.717253400,2.16325341796875,0.2440775999000295,0.3229202870011329,-0.2759333487682044
2024-12-07 20:07:10.727267600,2.173267578125,0.4673719760229811,0.2605669989407062,0.0815378810018301
2024-12-07 20:07:10.737280500,2.183280517578125,0.7578782226860523,0.0965834744423627,0.5135382820554077
2024-12-07 20:07:10.747294500,2.19329443359375,0.9450948117990046,-0.1590764632344246,0.7356297121293842
2024-12-07 20:07:10.757308400,2.203308349609375,0.7589911523640155,-0.3313613676100969,0.8197646238870918
2024-12-07 20:07:10.767321600,2.213321533203125,0.2666307924916967,-0.3097287969946861,0.7887580757267773
2024-12-07 20:07:10.777335300,2.223335205078125,-0.2636942641157657,-0.0573521187722682,0.7387514974117279
2024-12-07 20:07:10.787349500,2.233349609375,-0.5576829825997353,0.2206499990940094,0.6561662993140518
2024-12-07 20:07:10.797362700,2.24336279296875,-0.6159213096220046,0.3664782736986875,0.5724085503056645
2024-12-07 20:07:10.807376600,2.253376708984375,-0.4841384384393691,0.3682651571154594,0.4763835865288973
2024-12-07 20:07:10.817390300,2.263390380859375,-0.3551906445521861,0.2234223864167928,0.3122213444627821
2024-12-07 20:07:10.827403500,2.273403564453125,-0.2340882304031401,-0.0131803840905427,0.0891105082131922
2024-12-07 20:07:10.837417700,2.283417724609375,0.0487749176282435,-0.1109761569321155,-0.0044487961024045
2024-12-07 20:07:10.847431400,2.293431396484375,0.3289057180862874,-0.0483078115731477,0.0656900312677025
2024-12-07 20:07:10.857444600,2.303444580078125,0.4839070408362895,0.008491349491477,0.0877684459544718
2024-12-07 20:07:10.867458600,2.31345849609375,0.4415245276588946,0.068740358749032,0.1249628889694809
2024-12-07 20:07:10.877472500,2.323472412109375,0.1971148097276687,0.0797778855919837,0.1221801263831555
2024-12-07 20:07:10.887486500,2.333486572265625,-0.0174105690062046,-0.0760953976869583,0.0137725047647953
2024-12-07 20:07:10.897499600,2.343499755859375,-0.3298128960590809,-0.3153384535700083,-0.1074976671665906
2024-12-07 20:07:10.907513600,2.353513671875,-0.5876045850675553,-0.4422065916389227,-0.0994930782787501
2024-12-07 20:07:10.917527600,2.363527587890625,-0.3979751626592129,-0.4948071319699287,0.0733908149033784
2024-12-07 20:07:10.927540500,2.37354052734375,0.2009002465505152,-0.4678215098887682,0.3482246779970824
2024-12-07 20:07:10.937554700,2.3835546875,0.5733972690820693,-0.2451099020898342,0.6513008852347731
2024-12-07 20:07:10.947568400,2.393568359375,0.4154978868030011,0.0189618901014328,0.9425744264759124
2024-12-07 20:07:10.957581600,2.40358154296875,-0.0927496684331446,0.0794037915825843,1.1627813579775392
2024-12-07 20:07:10.967595500,2.413595458984375,-0.6871908215224742,-0.089665657877922,1.4059646759189663
2024-12-07 20:07:10.977609500,2.423609375,-0.8571230983573943,-0.4344038089334964,1.4724413275197148
2024-12-07 20:07:10.987622400,2.433622314453125,-0.7224035161357373,-0.7683785739123821,1.4321822362370789
2024-12-07 20:07:10.997636600,2.44363671875,-0.5363794247429817,-0.8330448150902986,1.3872792646713554
2024-12-07 20:07:11.007650600,2.453650634765625,-0.3560159163951873,-0.6351578519463539,1.3140176291055976
2024-12-07 20:07:11.017663500,2.46366357421875,-0.3327414968568831,-0.3955143985688686,1.1871079899825154
2024-12-07 20:07:11.027677400,2.473677490234375,-0.3483248504359275,-0.3335521556526422,1.0516007645145058
2024-12-07 20:07:11.037691600,2.483691650390625,-0.2366600536525249,-0.4042372187286615,1.017054936312139
2024-12-07 20:07:11.047704600,2.49370458984375,-0.1232546237468719,-0.3983855700910091,1.069856479107961
2024-12-07 20:07:11.057718500,2.503718505859375,0.044127895539999,-0.3450046930372715,1.1259524603392927
2024-12-07 20:07:11.067732500,2.513732421875,0.1692365496557205,-0.3228027981013059,1.1032981454607098
2024-12-07 20:07:11.077745400,2.523745361328125,0.2403681874554604,-0.3692033147484064,0.928209654906392
2024-12-07 20:07:11.087759600,2.533759521484375,0.1789736614245921,-0.4546113151818514,0.7081772031888365
2024-12-07 20:07:11.097773600,2.543773681640625,-0.1472539234936237,-0.4848743514984845,0.4933958038672804
2024-12-07 20:07:11.107786500,2.553786376953125,-0.6079786800544709,-0.500655273476243,0.2355207474242895
2024-12-07 20:07:11.117800400,2.563800537109375,-1.040273460944742,-0.4698638293713331,-0.0214876822520047
2024-12-07 20:07:11.127814700,2.573814697265625,-1.0020354271609335,-0.3084071930021047,-0.1783726998567581
2024-12-07 20:07:11.137827300,2.583827392578125,-0.637271629229933,-0.1710702678889036,-0.3680846859820187
2024-12-07 20:07:11.147841500,2.593841552734375,-0.1629473133184015,0.0546627335578203,-0.3414858712613582
2024-12-07 20:07:11.157855500,2.60385546875,0.3383972575962543,0.4723381105303764,-0.1311744569607079
2024-12-07 20:07:11.167868700,2.61386865234375,0.5770552070677281,1.0710679737895727,0.2729564518492668
2024-12-07 20:07:11.177882400,2.62388232421875,0.482255108910799,1.518179873126745,0.6684799105074256
2024-12-07 20:07:11.187896600,2.633896484375,-0.0769675774116069,1.343203245449066,0.8403830490238964
2024-12-07 20:07:11.197909500,2.643909423828125,-0.732982193295285,0.8675982420772314,0.822711929385364
2024-12-07 20:07:11.207923500,2.65392333984375,-1.0538228975433857,0.3770774091243744,0.4381559280086308
2024-12-07 20:07:11.217937400,2.6639375,-1.2538707650482654,0.0243815770626068,0.0739153502341359
2024-12-07 20:07:11.227950600,2.67395068359375,-1.4235843576312064,0.1430219850122928,0.2263061982247978
2024-12-07 20:07:11.237964300,2.68396435546875,-1.417132405012846,0.5294792169004678,0.5637490777056664
2024-12-07 20:07:11.247978500,2.693978515625,-1.271478902453184,0.8341179972797632,0.8002817786514759
2024-12-07 20:07:11.257991700,2.70399169921875,-0.9496060056131332,0.9935200392067433,1.1292002100888638
2024-12-07 20:07:11.268005600,2.714005615234375,-0.5103483634402975,1.0277034638375042,1.642668276452273
2024-12-07 20:07:11.278019300,2.724019287109375,-0.5701684066960587,0.9927437941372392,2.155414677477628
2024-12-07 20:07:11.288032500,2.734032470703125,-1.6678361815869809,0.8835586122751236,2.3273973840363325
2024-12-07 20:07:11.298046500,2.74404638671875,-1.7946937982618807,0.6522340744316577,1.844105625554174
2024-12-07 20:07:11.308060400,2.754060302734375,-0.590830049920082,0.2860124058425426,1.1226267499826847
2024-12-07 20:07:11.318073600,2.764073486328125,0.1086550205081701,0.1710778666734695,0.7174918517619371
2024-12-07 20:07:11.328087600,2.774087646484375,0.1179600336032453,0.7647451858460903,0.7697584839634597
2024-12-07 20:07:11.338101500,2.7841015625,0.208695941928029,1.7035294262588023,0.7104642912127077
2024-12-07 20:07:11.348115500,2.794115478515625,0.4065256219267845,2.729047947272658,0.1550796486832201
2024-12-07 20:07:11.358128600,2.804128662109375,1.089318500751257,3.2780215537160635,-0.7788711802236735
2024-12-07 20:07:11.368142600,2.814142578125,1.4518956753581762,3.042186260449886,-1.6302198598980904
2024-12-07 20:07:11.378156500,2.824156494140625,1.147946630808711,2.2236124537825583,-2.17089106355086
2024-12-07 20:07:11.388169500,2.83416943359375,0.4027893945405259,1.2368582554489371,-2.3363962446585296
2024-12-07 20:07:11.398183700,2.84418359375,-0.3300537556102499,0.2826899834215641,-2.03764067709893
2024-12-07 20:07:11.408197400,2.854197265625,-0.6290133578419685,-0.5053595056444407,-1.3850605657085775
2024-12-07 20:07:11.418210600,2.86421044921875,-0.560012886852026,-1.048591938087344,-0.7527424672327935
2024-12-07 20:07:11.428224500,2.874224609375,-0.4843956280708312,-1.322455056452751,-0.1758092791095376
2024-12-07 20:07:11.438238700,2.88423876953125,-0.5984563070148229,-1.4228881920605898,0.5881638994507491
2024-12-07 20:07:11.448252200,2.894252197265625,-0.8483066816300153,-1.347787650629878,1.3038809966251252
2024-12-07 20:07:11.458266000,2.90426611328125,-0.8991688538610935,-1.1210276442229747,1.64443192512393
2024-12-07 20:07:11.468280000,2.914280029296875,-0.6905670930225402,-0.7290589554369449,1.71267193313539
2024-12-07 20:07:11.478293200,2.924293212890625,-0.1545897462744265,-0.5137906493812799,1.4108509866558014
2024-12-07 20:07:11.488307200,2.93430712890625,0.3258557559311389,-0.6235650293081998,0.6826565390937029
2024-12-07 20:07:11.498321200,2.944321044921875,0.4564239175617695,-0.8874304852724075,-0.3024459465101361
2024-12-07 20:07:11.508334000,2.954333984375,0.3089671649724245,-1.316776426294446,-0.8951711625270545
2024-12-07 20:07:11.518348300,2.964348388671875,0.4073375228315591,-1.851719753819704,-1.1420846069075166
2024-12-07 20:07:11.528362000,2.974362060546875,0.7730529954642057,-2.449433718034625,-1.2132839031159877
2024-12-07 20:07:11.538375200,2.984375244140625,1.2783423584818838,-3.1013065579384564,-1.187333469301462
2024-12-07 20:07:11.548389000,2.99438916015625,1.7410177376538514,-3.650670625004172,-1.0685653433188795
2024-12-07 20:07:11.558403000,3.004403076171875,1.8642776220977304,-3.890149827730656,-0.6685209001049399
2024-12-07 20:07:11.568416000,3.014416015625,1.4131500573784113,-3.766263335821032,0.1160989067733287
2024-12-07 20:07:11.578430200,3.02443017578125,0.6585779635656624,-3.1790251729130743,0.9034992842808364
2024-12-07 20:07:11.588444200,3.034444091796875,-0.2167611749619245,-2.607086285945773,1.3767854893162843
2024-12-07 20:07:11.598457000,3.04445703125,-0.6665175243932754,-2.1413988654762504,1.416568925911188
2024-12-07 20:07:11.608471000,3.054470947265625,-0.4266344170410185,-1.8712100517094128,0.8975529430970549
2024-12-07 20:07:11.618485200,3.0644853515625,-0.1347048230439424,-1.6239532007187605,0.1735185378238558
2024-12-07 20:07:11.628498200,3.074498291015625,0.0073380878031253,-1.1521750621587037,-0.28905718036592
2024-12-07 20:07:11.638512000,3.08451220703125,-0.0369780237853527,-0.4700695810765027,-0.6702075380176306
2024-12-07 20:07:11.648526000,3.094526123046875,-0.3529442538648843,0.1712047079235315,-1.122936108192801
2024-12-07 20:07:11.658539000,3.1045390625,-0.510575194466114,0.5273299299120903,-1.576308529229462
2024-12-07 20:07:11.668553200,3.11455322265625,-0.6678677699584513,0.9461340186536312,-1.7893460074931382
2024-12-07 20:07:11.678567200,3.124567138671875,-0.7601362307459115,2.114388693475723,-1.446452022999525
2024-12-07 20:07:11.688580000,3.134580078125,-0.5123521410107612,4.049328582295775,-0.9333902724146842
2024-12-07 20:07:11.698594000,3.144593994140625,0.7425000362902879,5.48778025419116,-0.6349018313586712
2024-12-07 20:07:11.708608300,3.154608154296875,2.239939757596701,5.8516971529692405,-0.4285170889824629
2024-12-07 20:07:11.718621000,3.164620849609375,2.6741379609555005,5.056414790040255,-0.3727215520024299
2024-12-07 20:07:11.728635100,3.17463525390625,1.1274451100498435,2.361706919264793,-1.061576215083897
2024-12-07 20:07:11.738649000,3.184649169921875,-0.8081243088454008,0.3043067719459533,-2.1384239413186905
2024-12-07 20:07:11.748663300,3.194663330078125,-1.373649821639061,-0.940337899595499,-3.124494541302324
2024-12-07 20:07:11.758676000,3.204676025390625,-0.3817494925886392,-1.574521938073635,-3.787459268584848
2024-12-07 20:07:11.768690200,3.214690185546875,0.7844120093464851,-1.4955834259152412,-4.057235409897566
2024-12-07 20:07:11.778704100,3.2247041015625,1.5098089351445436,-1.4270312832146883,-3.655283964018524
2024-12-07 20:07:11.788717000,3.234717041015625,1.878486180192232,-1.3584732952952383,-2.671373172417283
2024-12-07 20:07:11.798731000,3.24473095703125,1.9027040911257267,-0.8431669806540012,-1.7046150295384228
2024-12-07 20:07:11.808745200,3.2547451171875,1.6971026080816982,0.0375093541830778,-1.1065477218411863
2024-12-07 20:07:11.818758100,3.264758056640625,1.280729545879364,0.8261521329671144,-0.9066589173555374
2024-12-07 20:07:11.828772000,3.274772216796875,0.6209755973368882,1.330144441911578,-0.8891841970719396
2024-12-07 20:07:11.838786000,3.2847861328125,-0.3170908501952886,1.460140941134095,-0.79221713013947
2024-12-07 20:07:11.848799200,3.29479931640625,-0.5797761564642191,1.2037450903981923,-0.5852545878753066
2024-12-07 20:07:11.858813000,3.30481298828125,0.0569137182218488,0.6190805773705244,-0.4397789261005818
2024-12-07 20:07:11.868827100,3.3148271484375,0.5992389818251133,0.0350572848558425,-0.2875312859728932
2024-12-07 20:07:11.878840300,3.32484033203125,0.938939138713479,-0.394321973913908,0.0642246348902583
2024-12-07 20:07:11.888854000,3.33485400390625,1.144900687241554,-0.5787029742747545,0.4443843740694224
2024-12-07 20:07:11.898868000,3.344867919921875,0.933765535467863,-0.5361170474797486,0.7689402994483708
2024-12-07 20:07:11.908881200,3.354881103515625,0.8758452614188194,-0.3246586551010608,1.0669171377204358
2024-12-07 20:07:11.918895400,3.364895263671875,1.0319254654467105,-0.0191354931026697,1.246534430810809
2024-12-07 20:07:11.928909000,3.374908935546875,1.1415829409956932,0.1831482436954975,1.3270102355390787
2024-12-07 20:07:11.938922200,3.384922119140625,0.9595464579343796,0.3387128994166851,1.3090646828733383
2024-12-07 20:07:11.948936200,3.394936279296875,0.6308265447437763,0.3386474329650402,1.1099494931086895
2024-12-07 20:07:11.958950100,3.4049501953125,0.3053401883806101,0.2455968088239431,0.7853210870154201
2024-12-07 20:07:11.968963000,3.414963134765625,0.1202981120288372,0.1334866794258356,0.4146344018414616
2024-12-07 20:07:11.978977300,3.424977294921875,0.156126965779066,0.0127244570165872,0.0381239789500832
2024-12-07 20:07:11.988991000,3.434990966796875,0.1704828599223867,-0.1090583406120538,-0.2016860631659627
2024-12-07 20:07:11.999004200,3.445004150390625,0.088309530561231,-0.2127875951558351,-0.2935270192563534
2024-12-07 20:07:12.009018000,3.45501806640625,-0.1634884344577789,-0.343522930046916,-0.3221148158371448
2024-12-07 20:07:12.019032300,3.4650322265625,-0.6572668079018592,-0.3239917156249284,-0.2862273637674749
2024-12-07 20:07:12.029045000,3.475044921875,-0.9873930807590484,-0.1372387254357338,-0.1448560685716569
2024-12-07 20:07:12.039059200,3.48505908203125,-0.9772527950167657,0.0373684844076633,0.0572732083171606
2024-12-07 20:07:12.049073200,3.4950732421875,-0.8048854730546474,0.1448579682677984,0.3331622795522213
2024-12-07 20:07:12.059086000,3.505086181640625,-0.5632255287555977,0.2072650323420763,0.6381972196422517
2024-12-07 20:07:12.069100000,3.51510009765625,-0.4453296920955181,0.1695505109757185,0.8581430159896611
2024-12-07 20:07:12.079114200,3.5251142578125,-0.4912788847785442,-0.0163812259584665,0.9373777346156535
2024-12-07 20:07:12.089128000,3.5351279296875,-0.6850012755889445,-0.178673144108057,0.9119875650323926
2024-12-07 20:07:12.099141000,3.54514111328125,-0.7862614366054534,-0.2556523388922214,0.8455721420995891
2024-12-07 20:07:12.109155000,3.555155029296875,-0.7606383350491523,-0.3078209175467491,0.7677331156156957
2024-12-07 20:07:12.119169300,3.565169189453125,-0.4875052845239639,-0.3695820849329232,0.7421338333263993
2024-12-07 20:07:12.129182200,3.57518212890625,-0.2236731463074684,-0.5166583137720823,0.6657742317453026
2024-12-07 20:07:12.139196200,3.585196044921875,-0.1595627123814076,-0.6436772584885359,0.6632638563595712
2024-12-07 20:07:12.149210000,3.595210205078125,-0.2969335397642105,-0.7104027702838182,0.7570766970448195
2024-12-07 20:07:12.159223000,3.60522314453125,-0.5114215821623802,-0.6453127507358789,0.8925963436029851
2024-12-07 20:07:12.169237200,3.6152373046875,-0.5092554171044379,-0.560592732566595,1.0642258528098465
2024-12-07 20:07:12.179251200,3.625251220703125,-0.3917045579571276,-0.4163268849730491,1.1545686792969705
2024-12-07 20:07:12.189264100,3.63526416015625,-0.3288040843427181,-0.1436737269192934,1.0901654729694128
2024-12-07 20:07:12.199278000,3.645278076171875,-0.4665934293985366,0.1314087041079998,0.9102747697651384
2024-12-07 20:07:12.209292300,3.655292236328125,-0.7805741116840392,0.2654050866216421,0.792195648960024
2024-12-07 20:07:12.219305000,3.665304931640625,-1.152700547337532,0.1730705017954111,0.7231178749501704
2024-12-07 20:07:12.229319200,3.675319091796875,-1.3016577676177024,-0.0536363131195306,0.7199993045382201
2024-12-07 20:07:12.239333000,3.6853330078125,-0.8948223490893841,-0.2955745994359254,0.7335875387772918
2024-12-07 20:07:12.249346000,3.695345947265625,-0.3804945240914821,-0.4599222810715436,0.7186712708048522
2024-12-07 20:07:12.259360000,3.705360107421875,-0.2631856570065021,-0.6164315241664647,0.5510092039242387
2024-12-07 20:07:12.269374200,3.715374267578125,-0.3365503145553171,-0.7289467272341251,0.3348657224692404
2024-12-07 20:07:12.279387100,3.72538720703125,-0.0511013147491961,-0.8425748599797487,0.1468365748643875
2024-12-07 20:07:12.289401000,3.735401123046875,0.5686686331249773,-0.897550897270441,-0.0287232595287263
2024-12-07 20:07:12.299415000,3.7454150390625,1.1088600904367862,-0.8209533952802419,-0.185148477602005
2024-12-07 20:07:12.309428200,3.75542822265625,1.4757096816658972,-0.5983376490712166,-0.2334368538223206
2024-12-07 20:07:12.319442000,3.76544189453125,1.535556539863348,-0.2580623226433992,-0.1544593248277902
2024-12-07 20:07:12.329456000,3.7754560546875,1.0479508637048305,0.158249364760518,0.0816909526716917
2024-12-07 20:07:12.339469300,3.78546923828125,0.1451334242083132,0.355919470283389,0.2591697724286467
2024-12-07 20:07:12.349483000,3.79548291015625,-0.7273274554692208,0.3553010461241007,0.2597880504574626
2024-12-07 20:07:12.359497000,3.8054970703125,-1.3767629852235317,0.2101490633457899,0.0470074695643037
2024-12-07 20:07:12.369511200,3.81551123046875,-1.600182449030876,-0.042604046973586,-0.3990376773241907
2024-12-07 20:07:12.379524400,3.8255244140625,-1.166976909971237,-0.3216524590224027,-0.8517159055516124
2024-12-07 20:07:12.389538000,3.8355380859375,-0.4011960244018584,-0.6546323677450419,-1.1519279555298387
2024-12-07 20:07:12.399552000,3.845552001953125,0.4755972584567964,-0.9849895267486573,-1.0266318890832364
2024-12-07 20:07:12.409565200,3.855565185546875,1.5517499881647527,-0.7962491621345281,-0.324439678588137
2024-12-07 20:07:12.419579100,3.8655791015625,2.574049401001632,0.14864099393785,0.554929738368839
2024-12-07 20:07:12.429593000,3.875593017578125,2.9949264966249465,1.5640899759083986,1.3301846277914942
2024-12-07 20:07:12.439606300,3.885606201171875,2.7265631447196004,2.73021816009581,1.7357973726570606
2024-12-07 20:07:12.449620200,3.8956201171875,1.7121417717814444,2.8326000916838643,1.357594612764567
2024-12-07 20:07:12.459634200,3.90563427734375,-0.0766762663148343,2.116580066040158,0.2042931769244372
2024-12-07 20:07:12.469647000,3.915647216796875,-1.651422953055054,1.3969365892022847,-0.8630470815788954
2024-12-07 20:07:12.479661300,3.925661376953125,-1.919610656132549,0.8461778529077768,-1.681008382371068
2024-12-07 20:07:12.489675000,3.935675048828125,-1.1723835913203655,0.4547796574860811,-2.302287346568704
2024-12-07 20:07:12.499688200,3.945688232421875,-0.3819887812372297,0.2846317651391029,-2.5294600254297257
2024-12-07 20:07:12.509702100,3.9557021484375,0.1225814006604254,0.3713198685109615,-2.074099791576713
2024-12-07 20:07:12.519716000,3.965716064453125,0.250050208036229,0.6494125872701406,-0.8363472176365554
2024-12-07 20:07:12.529729000,3.97572900390625,0.142306384088844,0.7092325574606657,0.6081858565317466
2024-12-07 20:07:12.539743200,3.9857431640625,0.1515851576309651,0.3887456350862979,1.795772825670242
2024-12-07 20:07:12.549757200,3.995757080078125,0.1526617738865315,-0.1835281829237937,2.506212128572166
2024-12-07 20:07:12.559770000,4.00577001953125,0.0423275681197643,-0.7626216178208589,2.7170705092310903
2024-12-07 20:07:12.569784000,4.0157841796875,-0.2194143928844481,-1.1692606369942429,2.372052079929411
2024-12-07 20:07:12.579798300,4.02579833984375,-0.609350114538148,-1.2313766091674565,1.640972140058875
2024-12-07 20:07:12.589811200,4.035811279296875,-0.6278795315064489,-1.0541577555209398,0.9026737932421266
2024-12-07 20:07:12.599825200,4.0458251953125,-0.2425135289210826,-0.6843231571316719,0.334428901954554
2024-12-07 20:07:12.609839000,4.055839111328125,0.2539174779236317,-0.1145540154188871,-0.0355863867638632
2024-12-07 20:07:12.619852000,4.06585205078125,0.4459446091234684,0.5325912114411592,-0.0988065573193132
2024-12-07 20:07:12.629866200,4.0758662109375,0.1224982524216175,1.0568681835234164,0.1311270924213342
2024-12-07 20:07:12.639880200,4.085880126953125,-0.5237175115685909,1.2200018131941557,0.443749327568896
2024-12-07 20:07:12.649893000,4.09589306640625,-1.249509062707424,0.9560650455594062,0.7570650066070258
2024-12-07 20:07:12.659907000,4.105906982421875,-2.1687270173847675,0.4634738360732793,0.9536534543730318
2024-12-07 20:07:12.669921300,4.11592138671875,-2.7263772667586803,0.0135772744536399,0.8712310456216334
2024-12-07 20:07:12.679935200,4.125935302734375,-2.4178502467691896,-0.0866273130953311,0.5532170161668211
2024-12-07 20:07:12.689948200,4.1359482421875,-1.8059119423687453,0.2846849566310644,0.5017523845305666
2024-12-07 20:07:12.699962000,4.145962158203125,-0.2500924032101407,0.8716308585941791,0.8470083854477852
2024-12-07 20:07:12.709976300,4.155976318359375,1.728877802526951,1.3653659774184226,0.9860798062033952
2024-12-07 20:07:12.719989000,4.165989013671875,2.645720260244608,1.7542571584552529,0.7255019936077296
2024-12-07 20:07:12.730003200,4.176003173828125,2.372168692046404,1.882772479209304,0.4405873929392546
2024-12-07 20:07:12.740017200,4.18601708984375,1.4238076449930668,1.3662357459902763,-0.0646753012672066
2024-12-07 20:07:12.750030000,4.196030029296875,-0.225348349510692,0.8254203115612267,-0.5154236574105918
2024-12-07 20:07:12.760044000,4.2060439453125,-2.141948900574445,0.4261509443730115,-0.5550910664103925
2024-12-07 20:07:12.770058200,4.216058349609375,-3.286237008875608,0.0328308409780263,-0.4083708844672888
2024-12-07 20:07:12.780071000,4.22607080078125,-3.077515932506323,-0.2472550974249839,-0.2260326419804245
2024-12-07 20:07:12.790085000,4.236085205078125,-2.2512474796831605,-0.3377858476996421,0.023709303824231
2024-12-07 20:07:12.800099000,4.24609912109375,-1.234177053540945,-0.2924544215887785,0.3236610223658382
2024-12-07 20:07:12.810112300,4.2561123046875,0.0534685507706133,-0.2519967389941215,0.4557664765663444
2024-12-07 20:07:12.820126000,4.2661259765625,1.1834539975196123,-0.316437354722619,0.556898261962831
2024-12-07 20:07:12.830140200,4.27614013671875,1.5622943246632814,-0.5172925200223922,0.7732219222903252
2024-12-07 20:07:12.840153300,4.2861533203125,0.9689496615737676,-0.8844213665843009,1.082172574519366
2024-12-07 20:07:12.850167000,4.2961669921875,0.2982587422196753,-1.0462240399122238,1.2835688609585163
2024-12-07 20:07:12.860181000,4.306180908203125,0.0205015207588672,-0.9513163897275924,1.3446958220943808
2024-12-07 20:07:12.870194200,4.316194091796875,-0.0034907647252082,-0.7235697103708982,1.28417311046198
2024-12-07 20:07:12.880208100,4.3262080078125,0.0532300704061984,-0.4405295983374118,1.3588833374008535
2024-12-07 20:07:12.890222000,4.33622216796875,-0.0333925665140152,-0.2570791568249463,1.346775697108358
2024-12-07 20:07:12.900235300,4.3462353515625,-0.2513450336197391,-0.2131903307378292,1.0946670221723616
2024-12-07 20:07:12.910249200,4.356249267578125,-0.5738479354590177,-0.2183972517311573,0.5666382963411509
2024-12-07 20:07:12.920263200,4.36626318359375,-0.6233990250915289,-0.2354723051726818,0.0042506431818008
2024-12-07 20:07:12.930277000,4.376277099609375,-0.0935708486229181,-0.3386491865307092,-0.4482026171833276
2024-12-07 20:07:12.940290300,4.386290283203125,0.6369885745048522,-0.544872600865364,-0.7674481611944735
2024-12-07 20:07:12.950304000,4.396303955078125,1.0743681113135068,-0.7006856783896684,-0.9604868075244128
2024-12-07 20:07:12.960318200,4.406318115234375,1.0405332078594711,-0.743022014337778,-1.1255213023804127
2024-12-07 20:07:12.970331100,4.4163310546875,0.7642080102294683,-0.6911334216684103,-1.2261729030445216
2024-12-07 20:07:12.980345300,4.426345458984375,0.4345978702008723,-0.5958931785285473,-1.2199258253484964
2024-12-07 20:07:12.990359000,4.436359130859375,0.0084849928159266,-0.3970972838461399,-1.0897224053770302
2024-12-07 20:07:13.000372200,4.446372314453125,-0.3618167846936732,-0.1844552346408367,-0.8962073737069964
2024-12-07 20:07:13.010386200,4.45638623046875,-0.4530407048642635,-0.0179044900029897,-0.6510889960497618
2024-12-07 20:07:13.020400000,4.466400146484375,-0.1273082830518484,-0.0527782349854707,-0.4476826849624514
2024-12-07 20:07:13.030413000,4.4764130859375,0.5518634826660156,-0.4028104007959365,-0.4565633260324597
2024-12-07 20:07:13.040427300,4.48642724609375,1.193320142495632,-0.9994657958686352,-0.7657035094842314
2024-12-07 20:07:13.050441000,4.49644091796875,1.4150328023850918,-1.696866461238265,-1.171136075477302
2024-12-07 20:07:13.060454100,4.5064541015625,1.1628560306489466,-2.134743499240279,-1.6386282072812317
2024-12-07 20:07:13.070468000,4.516468017578125,0.8430804714143276,-2.228929264891148,-1.8563661183208229
2024-12-07 20:07:13.080482300,4.526482421875,0.4657172310858964,-1.9929706375062464,-1.7516186266452074
2024-12-07 20:07:13.090495200,4.5364951171875,0.3159434337258339,-1.547857803031802,-1.6300959412574767
2024-12-07 20:07:13.100509200,4.54650927734375,0.3391664884030819,-1.0117664745151995,-1.4882321863695978
2024-12-07 20:07:13.110523100,4.556523193359375,0.1886603581804782,-0.676939476621151,-1.2842948371455072
2024-12-07 20:07:13.120536000,4.5665361328125,0.1582985376644879,-0.6259142227828502,-1.1706041605576871
2024-12-07 20:07:13.130550300,4.57655029296875,0.0305892725963145,-0.8278104215681552,-1.2038459204241632
2024-12-07 20:07:13.140564200,4.586564208984375,-0.4113216240316629,-1.157788225865364,-1.3615268376469611
2024-12-07 20:07:13.150577200,4.5965771484375,-0.8263223019022494,-1.3608850326120852,-1.6021598865836857
2024-12-07 20:07:13.160591000,4.606591064453125,-1.0119885928332806,-1.2811352040708064,-1.677095592841506
2024-12-07 20:07:13.170605000,4.61660498046875,-0.8359487198382616,-0.7285363928675651,-1.2474229040831326
2024-12-07 20:07:13.180618000,4.626617919921875,-0.4702239679206162,0.3163596133112907,-0.3910124109745025
2024-12-07 20:07:13.190632200,4.636632080078125,0.1369791246514767,2.2796125734239814,0.577769492816925
2024-12-07 20:07:13.200646100,4.646646240234375,1.388964879670739,4.381604726663231,1.5711512925967572
2024-12-07 20:07:13.210659000,4.6566591796875,3.1434546778380867,5.722414939495921,2.375043078438938
2024-12-07 20:07:13.220673000,4.666673095703125,4.201202566805482,6.106695996388793,2.5411662453144785
2024-12-07 20:07:13.230687200,4.676687255859375,2.71625042501986,4.217701281663775,1.3094368771865963
2024-12-07 20:07:13.240701200,4.686701171875,-0.0205658181667327,1.2967542134851215,-0.6587038549676537
2024-12-07 20:07:13.250714000,4.696714111328125,-1.957437551832199,-0.274726457196474,-2.3093334656879305
2024-12-07 20:07:13.260728000,4.70672802734375,-2.161935457548499,-1.3243091598868368,-3.6580750560417767
2024-12-07 20:07:13.270742300,4.7167421875,-0.8464023093134164,-1.5629238547384738,-4.243734133064747
2024-12-07 20:07:13.280755000,4.7267548828125,0.4654927746802568,-1.2070090606302022,-4.058965886951983
2024-12-07 20:07:13.290769200,4.73676904296875,1.2524468697249889,-0.8668465469270944,-3.0776135476619
2024-12-07 20:07:13.300783000,4.746783203125,1.3582564376741646,-0.6581839227467775,-1.8582981092967088
2024-12-07 20:07:13.310796000,4.756796142578125,1.1486334440290926,-0.3187006234794854,-0.9870845993317664
2024-12-07 20:07:13.320810000,4.76681005859375,0.8503244511932134,0.0056242696225643,-0.3273611920580268
2024-12-07 20:07:13.330824200,4.77682421875,0.6826356424361467,0.1613724652171135,0.1995940593227744
2024-12-07 20:07:13.340837000,4.786837158203125,0.5326216065794229,0.1360720197439193,0.6709634709514677
2024-12-07 20:07:13.350851000,4.79685107421875,0.4163660479396581,0.1366740772902965,1.069850560823828
2024-12-07 20:07:13.360865000,4.806864990234375,0.4918313310295343,0.2656885797381401,1.4166431601911782
2024-12-07 20:07:13.370878200,4.816878173828125,0.3356120107918977,0.4066150537759065,1.449950386509299
2024-12-07 20:07:13.380892200,4.82689208984375,0.1015600938111543,0.3408972577184438,1.0133100506953894
2024-12-07 20:07:13.390906000,4.836906005859375,-0.033670798933506,0.1962812815129757,0.415208110076189
2024-12-07 20:07:13.400919300,4.846919189453125,0.0771557203948497,-0.0278951381415128,-0.126764385433495
2024-12-07 20:07:13.410933000,4.85693310546875,0.492458523017168,-0.2830249144643545,-0.5506814332745968
2024-12-07 20:07:13.420947200,4.866947265625,0.702033001345396,-0.4030447940737008,-0.8771997447676956
2024-12-07 20:07:13.430960000,4.876960205078125,0.4972691381692886,-0.3142600106835365,-1.0778789689786732
2024-12-07 20:07:13.440974300,4.886974365234375,0.2431120062708854,-0.098578447651863,-1.0915298931904136
2024-12-07 20:07:13.450988500,4.896988525390625,0.3175613903164863,0.0874433056533336,-1.1012564835652707
2024-12-07 20:07:13.461001700,4.907001708984375,0.5091863704562187,0.3075128745108842,-1.1016196177892386
2024-12-07 20:07:13.471015700,4.917015625,0.6274994461476803,0.5421352848559617,-1.0045524514831603
2024-12-07 20:07:13.481029600,4.927029541015625,0.7505132468760013,0.6129606331855059,-0.8402626375146209
2024-12-07 20:07:13.491043600,4.937043701171875,0.8868085539817809,0.4974778124839067,-0.7869730920061468
2024-12-07 20:07:13.501056800,4.947056884765625,1.0607774659216402,0.3874672857135534,-0.8071002264946698
2024-12-07 20:07:13.511070700,4.95707080078125,1.111733746176958,0.2373363454788923,-0.8912222787708044
2024-12-07 20:07:13.521084700,4.967084716796875,1.0558347488224509,0.0797743784606456,-0.9614493689462542
2024-12-07 20:07:13.531097600,4.97709765625,0.8906289890527724,0.0053653264254331,-0.9646142627179622
2024-12-07 20:07:13.541111800,4.98711181640625,0.544449407017231,-0.0120551794528961,-0.9569349602617324
2024-12-07 20:07:13.551125500,4.99712548828125,0.1896995650351047,-0.0582353313475847,-0.9550700431726872
2024-12-07 20:07:13.561138700,5.007138671875,-0.0477484241247177,0.0099245971649885,-0.9149268333546816
2024-12-07 20:07:13.571152600,5.017152587890625,-0.1659691636239178,0.3013192805677652,-0.8047770442441106
2024-12-07 20:07:13.581166800,5.027166748046875,0.0002548515439033,0.5466793580263852,-0.5753324749283493
2024-12-07 20:07:13.591179500,5.037179443359375,0.4045394165456294,0.5282400304943323,-0.3800935420751571
2024-12-07 20:07:13.601193700,5.04719384765625,0.7523451384782791,0.263514158308506,-0.3482232166923582
2024-12-07 20:07:13.611207700,5.057207763671875,0.8563456111788749,-0.1077186164408922,-0.4163859216839075
2024-12-07 20:07:13.621220600,5.067220703125,0.567474929828383,-0.5190542689979076,-0.5775669559821486
2024-12-07 20:07:13.631234600,5.077234619140625,-0.0885140766900032,-0.8260165238887072,-0.6716628513924777
2024-12-07 20:07:13.641248800,5.087248779296875,-0.8336790213406086,-0.8119482510477304,-0.386762936836481
2024-12-07 20:07:13.651261700,5.09726171875,-1.1856827794849871,-0.4591770156621932,0.4156413869269192
2024-12-07 20:07:13.661275600,5.107275634765625,-0.9865373407125472,-0.0405079514771699,1.419840494927764
2024-12-07 20:07:13.671289600,5.11728955078125,-0.6830488994121551,0.1872790598899125,2.212348132446408
2024-12-07 20:07:13.681302500,5.127302490234375,-0.447359188629128,0.1600152053892612,2.7504537233948705
2024-12-07 20:07:13.691316500,5.13731640625,-0.3260159149289131,-0.0553337646871805,3.14022227178812
2024-12-07 20:07:13.701330700,5.14733056640625,-0.4234275838237256,-0.3102572047829627,3.448081183257699
2024-12-07 20:07:13.711343600,5.157343505859375,-0.6214847159028053,-0.4625637354910373,3.6402316485762594
2024-12-07 20:07:13.721357600,5.167357666015625,-0.8126210357427597,-0.5163794968307018,3.536811021590233
2024-12-07 20:07:13.731371500,5.17737158203125,-1.1599066062588244,-0.3685796298921108,3.149960698731244
2024-12-07 20:07:13.741384700,5.187384765625,-1.531509310299158,-0.2321317625731229,2.4883605378001925
2024-12-07 20:07:13.751398700,5.197398681640625,-1.633935081028938,-0.2335837149471044,1.93727446924746
2024-12-07 20:07:13.761412600,5.20741259765625,-1.3796575376212596,-0.3194704388082027,1.4961265928812324
2024-12-07 20:07:13.771426600,5.217426513671875,-0.962690016657114,-0.3945815016329288,1.1326637214809656
2024-12-07 20:07:13.781439500,5.227439453125,-0.4650853629231453,-0.5414584085077047,0.7872631609939038
2024-12-07 20:07:13.791453700,5.23745361328125,0.0971416928470134,-0.67295011472404,0.5133920054525136
2024-12-07 20:07:13.801467600,5.247467529296875,0.5930711068451404,-0.7907002958357333,0.2019317084901034
2024-12-07 20:07:13.811480600,5.25748046875,0.9419675466239452,-0.8562626090705394,-0.1356206227146089
2024-12-07 20:07:13.821494500,5.26749462890625,1.165406884175539,-0.6982037984460592,-0.4892848614171147
2024-12-07 20:07:13.831508700,5.2775087890625,1.1969056728322058,-0.4209732494741678,-0.9271788505539298
2024-12-07 20:07:13.841521700,5.287521728515625,0.8263397644937038,-0.1001122330904007,-1.2981864382453263
2024-12-07 20:07:13.851535600,5.29753564453125,0.2852290734451264,0.0567325255692005,-1.4829856640182435
2024-12-07 20:07:13.861549600,5.307549560546875,-0.0332008433341979,0.0559334841459989,-1.3846816493935885
2024-12-07 20:07:13.871562800,5.317562744140625,0.1198421118896454,-0.0121714993089437,-1.016103626936674
2024-12-07 20:07:13.881576400,5.327576416015625,0.7254687489252537,-0.1296685824424028,-0.5775291081897914
2024-12-07 20:07:13.891590700,5.337590576171875,1.3537585417330265,-0.2668190450727939,-0.181442608821392
2024-12-07 20:07:13.901603600,5.347603515625,1.698960803169012,-0.3989548944115638,0.1184336333312094
2024-12-07 20:07:13.911617500,5.357617431640625,1.61765030118227,-0.4906389063745737,0.2994654693946242
2024-12-07 20:07:13.921631500,5.367631591796875,1.1942459521036597,-0.5839712700664996,0.4193031243048608
2024-12-07 20:07:13.931644700,5.377644775390625,0.5719863793708384,-0.5621884773254394,0.5123879429765046
2024-12-07 20:07:13.941658600,5.38765869140625,-0.1636006626605987,-0.4739566516429185,0.498201888974756
2024-12-07 20:07:13.951672600,5.397672607421875,-0.8888345068514346,-0.3500461943358183,0.3361616074986756
2024-12-07 20:07:13.961685800,5.407685791015625,-1.4910358456134796,-0.3146592391341924,0.2009429897136986
2024-12-07 20:07:13.971699700,5.41769970703125,-1.833717794791609,-0.3635135786741972,0.1947111826520413
2024-12-07 20:07:13.981713400,5.42771337890625,-1.4404478141486643,-0.5633072522222995,0.3998221057001501
2024-12-07 20:07:13.991726600,5.4377265625,-0.4556629431266337,-0.7510252880513668,0.7618221380062401
2024-12-07 20:07:14.001740800,5.44774072265625,0.3329213834684342,-0.8381424304902553,1.0598883350621908
2024-12-07 20:07:14.011754500,5.45775439453125,0.5775368531048297,-0.8291098137289286,1.249329468356818
2024-12-07 20:07:14.021768400,5.4677685546875,0.5454641370177269,-0.467269721224904,1.621356169962883
2024-12-07 20:07:14.031781600,5.47778173828125,0.2970224601566791,0.1725362487882375,2.246869264598936
2024-12-07 20:07:14.041795800,5.4877958984375,-0.1819068653322756,0.937764249715209,2.5744459991037845
2024-12-07 20:07:14.051809500,5.4978095703125,-0.7008920146167278,1.5821932033538817,2.380133679576218
2024-12-07 20:07:14.061822700,5.50782275390625,-1.1266099013347175,1.986805685135722,1.7805099362172183
2024-12-07 20:07:14.071836700,5.517836669921875,-1.4563010707102717,2.19830207143724,0.9822611977633088
2024-12-07 20:07:14.081850600,5.5278505859375,-1.7253484593570232,2.3298873011559245,0.2074254836007952
2024-12-07 20:07:14.091863600,5.537863525390625,-1.963013890659809,2.523053080996871,-0.3824868669524788
2024-12-07 20:07:14.101877800,5.547877685546875,-2.183053502770514,2.828334835454821,-0.703284462711215
2024-12-07 20:07:14.111891700,5.5578916015625,-2.1864264863349496,3.0797797857850786,-0.7420690244618803
2024-12-07 20:07:14.121904600,5.567904541015625,-1.9558979211747645,2.9223996050745247,-0.5022911310497671
2024-12-07 20:07:14.131918600,5.577918701171875,-1.4956804565489292,2.430958150145411,-0.0246065449248999
2024-12-07 20:07:14.141932800,5.587932861328125,-0.9399287342727184,1.8152783211290835,0.5695538915269076
2024-12-07 20:07:14.151945500,5.597945556640625,-0.5389245061159134,1.1382347996115685,0.8920447741348296
2024-12-07 20:07:14.161959700,5.607959716796875,-0.2444353638291359,0.4821522330582141,1.009009211696312
2024-12-07 20:07:14.171973600,5.6179736328125,-0.7280851419687271,-0.0942787046313285,1.0576577264659106
2024-12-07 20:07:14.181986600,5.627986572265625,-1.1041887376248836,-0.4624596905946731,0.9839955472752452
2024-12-07 20:07:14.192000500,5.63800048828125,-0.277674730809126,-0.5901537580937147,0.8088679668195545
2024-12-07 20:07:14.202014700,5.6480146484375,0.9858522810578344,-0.6464432160705328,0.3209505943633616
2024-12-07 20:07:14.212027600,5.658027587890625,1.3446937762677669,-0.5546370390325784,-0.1783341214120388
2024-12-07 20:07:14.222041600,5.66804150390625,0.6757341924846172,-0.2483417236179113,-0.2704713570352643
2024-12-07 20:07:14.232055600,5.6780556640625,-0.2529039169669151,0.0554734654188156,-0.22624387357831
2024-12-07 20:07:14.242068500,5.688068359375,-0.6513023465394974,0.2644850491672754,-0.1631765920296311
2024-12-07 20:07:14.252082700,5.698082763671875,-0.5697784940630197,0.4149275395691394,-0.0350076004952192
2024-12-07 20:07:14.262096600,5.7080966796875,-0.3006552819673903,0.4240267918258905,0.1108364562004804
2024-12-07 20:07:14.272110600,5.718110595703125,0.0488689525872468,0.3345516880840063,0.258433786304295
2024-12-07 20:07:14.282123500,5.72812353515625,0.1772107068726792,0.2096352686047554,0.4301822457157075
2024-12-07 20:07:14.292137700,5.7381376953125,0.1152051728039979,0.0684025050967931,0.5978840600848198
2024-12-07 20:07:14.302151700,5.748151611328125,0.043620530539751,-0.0796323396414518,0.720423813560605
2024-12-07 20:07:14.312164600,5.75816455078125,-0.046045127338171,-0.1527092662900686,0.8968268207795917
2024-12-07 20:07:14.322178600,5.768178466796875,0.0637713016321882,-0.2086041719913482,0.9315973976485432
2024-12-07 20:07:14.332192800,5.77819287109375,0.3356464610507711,-0.1947100866734981,0.793253049058467
2024-12-07 20:07:14.342205400,5.788205322265625,0.34750297612641,-0.150511463984847,0.6152966749176383
2024-12-07 20:07:14.352219600,5.7982197265625,0.201120574770309,-0.140729490160942,0.2352425880700349
2024-12-07 20:07:14.362233600,5.808233642578125,0.3039754210997372,-0.218252290302515,-0.3671647946581244
2024-12-07 20:07:14.372246800,5.818246826171875,0.435555317056179,-0.3531394841760397,-0.9903815950505436
2024-12-07 20:07:14.382260500,5.828260498046875,0.415140890058875,-0.3890226984620094,-1.4430984747879203
2024-12-07 20:07:14.392274700,5.838274658203125,0.2119213337153196,-0.4332826959490776,-1.54743767792359
2024-12-07 20:07:14.402287600,5.84828759765625,0.2898124557126313,-0.5115899244666099,-1.2991042837426066
2024-12-07 20:07:14.412301600,5.858301513671875,0.7113994531709701,-0.6670178020656109,-0.949355318787694
2024-12-07 20:07:14.422315500,5.8683154296875,1.122588390733674,-0.8111597310185432,-0.5881776357151568
2024-12-07 20:07:14.432328700,5.87832861328125,1.3450877440214155,-0.8951204552531242,-0.243539876294136
2024-12-07 20:07:14.442342400,5.88834228515625,1.4957307254314425,-0.8982108224838972,0.0449798361942172
2024-12-07 20:07:14.452356000,5.898356201171875,1.4301333408832548,-0.7266290979415178,0.2640089560881257
2024-12-07 20:07:14.462369300,5.908369384765625,0.8032709505300969,-0.3779138599485159,0.3084595077112317
2024-12-07 20:07:14.472383000,5.918383056640625,-0.1137630842369049,-0.0522597640693187,0.1961716836586594
2024-12-07 20:07:14.482397200,5.928397216796875,-0.4201800532698631,0.1530436128109693,0.0029217326655983
2024-12-07 20:07:14.492411100,5.9384111328125,0.1777132130347192,0.1314402682900428,-0.3100511608168482
2024-12-07 20:07:14.502424300,5.94842431640625,1.2084931617081165,-0.2182540438681841,-0.7521677360847592
2024-12-07 20:07:14.512438000,5.95843798828125,1.7546324215084312,-0.6252794320106506,-1.321250356838107
2024-12-07 20:07:14.522452200,5.9684521484375,1.4114759866863489,-0.9677063835144042,-1.7943959843590855
2024-12-07 20:07:14.532465200,5.978465087890625,0.526373652100563,-1.1956447860509156,-2.082585149718821
2024-12-07 20:07:14.542479000,5.98847900390625,-0.2896498855620622,-1.2204630009651185,-2.3674936859726903
2024-12-07 20:07:14.552493000,5.9984931640625,-0.7417880886286496,-1.0944044257134198,-2.600051565003395
2024-12-07 20:07:14.562506200,6.00850634765625,-0.8866898229729384,-1.060401033824682,-2.491870007225871
2024-12-07 20:07:14.572520000,6.01852001953125,-0.9616074821174144,-1.1052262639790773,-1.9440265738561748
2024-12-07 20:07:14.582534100,6.0285341796875,-0.6084159754931926,-1.0988415313780306,-0.9049535747423768
2024-12-07 20:07:14.592547000,6.038547119140625,-0.3224557382293045,-0.8866980793446302,0.2578445882394909
2024-12-07 20:07:14.602561300,6.048561279296875,-0.2378584696568548,-0.6972825919479131,0.7516723537832498
2024-12-07 20:07:14.612575000,6.058574951171875,-0.0139536334853619,-0.808599525141716,0.3183294520795345
2024-12-07 20:07:14.622588200,6.068588134765625,0.0129120885431766,-0.8477046240836381,-0.0766410488709807
2024-12-07 20:07:14.632602000,6.07860205078125,0.1183710164237767,-0.9225146581351756,-0.0377311802402138
2024-12-07 20:07:14.642616000,6.088615966796875,0.6629542058885097,-1.1873083348602056,0.0802218299672007
2024-12-07 20:07:14.652629200,6.098629150390625,1.1808346088014543,-1.280402798143029,0.1478375686004757
2024-12-07 20:07:14.662643200,6.108643310546875,1.1057277837604285,-1.2528256399095057,0.1761930177301168
2024-12-07 20:07:14.672657000,6.118656982421875,0.3452026998274028,-1.234607846173644,0.0735810767784714
2024-12-07 20:07:14.682670000,6.128670166015625,-0.4294366880454123,-1.290483462652564,-0.2236798683091998
2024-12-07 20:07:14.692684300,6.138684326171875,-0.6536246520072221,-1.4232605325043202,-0.5670435161411762
2024-12-07 20:07:14.702698200,6.1486982421875,-0.1857001932006329,-1.5703507898688316,-0.7968105954095721
2024-12-07 20:07:14.712711200,6.158711181640625,0.1573972049105912,-1.6251304278045893,-0.8226353570178151
2024-12-07 20:07:14.722725000,6.16872509765625,0.329417832326889,-1.4950029956787825,-0.6597486878454685
2024-12-07 20:07:14.732739300,6.1787392578125,0.2189274861503392,-1.0342284816920757,-0.5763990812465548
2024-12-07 20:07:14.742752000,6.188751953125,-0.1590933413039892,0.1832096184939146,-0.5044400527119636
2024-12-07 20:07:14.752766200,6.19876611328125,-0.576284807217121,2.766525152751804,-0.2886331097349524
2024-12-07 20:07:14.762780200,6.2087802734375,-0.884287584136799,5.485751963233947,0.5660688258901239
2024-12-07 20:07:14.772794400,6.21879443359375,-0.1291407591760158,7.380942025467753,2.0568749544009566
2024-12-07 20:07:14.782807000,6.22880712890625,1.8532371726453305,7.918583506035804,2.7301345734655857
2024-12-07 20:07:14.792821200,6.2388212890625,3.161183811274171,5.332049594253301,1.5004378802090883
2024-12-07 20:07:14.802835200,6.248835205078125,2.2509271616876125,1.183040740543604,-0.769141374978423
2024-12-07 20:07:14.812848000,6.25884814453125,-0.1122287142764776,-0.676571812352538,-3.147821056354046
2024-12-07 20:07:14.822862000,6.268862060546875,-1.3604296900600197,-1.663195662304759,-5.0933992435663935
2024-12-07 20:07:14.832876300,6.278876220703125,-0.6150912154734134,-2.037125421053171,-5.985657295125723
2024-12-07 20:07:14.842889000,6.288888916015625,0.8529173902958631,-1.8281436479210853,-5.763299323070049
2024-12-07 20:07:14.852903200,6.298903076171875,1.8321914620071649,-1.335051503175497,-4.496052066837251
2024-12-07 20:07:14.862917000,6.308917236328125,1.6926561500668524,-0.75493573949337,-2.427261633715033
2024-12-07 20:07:14.872930000,6.318929931640625,0.9731050276875496,-0.1924544167011976,-0.6118281220242381
2024-12-07 20:07:14.882944000,6.328944091796875,0.4268078739117831,0.0993593688964843,0.6256092484869062
2024-12-07 20:07:14.892958200,6.338958251953125,0.1901759869078174,0.0395060809582471,1.4683822613872586
2024-12-07 20:07:14.902971100,6.34897119140625,-0.0566483544170856,-0.0955523778289556,2.048939339096099
2024-12-07 20:07:14.912985000,6.358985107421875,-0.6387129140794277,-0.0603022007495164,2.2612720300912854
2024-12-07 20:07:14.922999000,6.3689990234375,-1.1546259624421595,0.205644737663865,2.024481189665943
2024-12-07 20:07:14.933012200,6.37901220703125,-1.027176225093007,0.3978472254306078,1.601879169946164
2024-12-07 20:07:14.943026200,6.389026123046875,-0.5917191442469134,0.2473456983178854,1.1837348602876063
2024-12-07 20:07:14.953040100,6.3990400390625,-0.5306868025919422,-0.1086567740738391,0.9780274326510728
2024-12-07 20:07:14.963053300,6.40905322265625,-0.4669663543641567,-0.473726350018382,0.913737477439642
2024-12-07 20:07:14.973067000,6.41906689453125,-0.2029681936646811,-0.615754063296318,0.8807293801985681
2024-12-07 20:07:14.983081200,6.429081298828125,-0.2244131510198116,-0.4643739997833967,0.6802282890334725
2024-12-07 20:07:14.993094100,6.43909423828125,-0.2637269060100428,-0.1933843910276889,0.336881592336297
2024-12-07 20:07:15.003108000,6.449108154296875,-0.2812187418252229,0.0288280350774526,-0.0161997319117188
2024-12-07 20:07:15.013122000,6.4591220703125,-0.3807347625881433,0.1297118370622396,-0.1825645985886454
2024-12-07 20:07:15.023136300,6.46913623046875,-0.2841904511123895,0.0853133078873157,-0.1408884801149368
2024-12-07 20:07:15.033149200,6.479149169921875,0.0872808085680007,-0.0356043973445892,-0.0097862116076052
2024-12-07 20:07:15.043163100,6.4891630859375,0.2341255667388439,-0.0807002611339092,0.0801309368133544
2024-12-07 20:07:15.053177000,6.499177001953125,0.1736427487254142,-0.0599982493668794,0.0065858081310987
2024-12-07 20:07:15.063190300,6.509190185546875,0.0877799902617931,-0.0779541772961616,-0.2123625016115605
2024-12-07 20:07:15.073204000,6.519203857421875,0.0775602278088219,-0.0595434913367032,-0.461958170813322
2024-12-07 20:07:15.083218200,6.52921826171875,-0.070336688029766,-0.0062789341390132,-0.7152326746582984
2024-12-07 20:07:15.093231000,6.539231201171875,-0.2154500923633575,-0.0171358437180519,-0.8838831680543721
2024-12-07 20:07:15.103245000,6.5492451171875,-0.2283809038733132,-0.1016945338457822,-0.9991356871314346
2024-12-07 20:07:15.113259000,6.559259033203125,-0.1230196094145998,-0.1831003129005432,-0.948181891094148
2024-12-07 20:07:15.123272200,6.569272216796875,-0.0221042432477697,-0.3126344553083181,-0.7638568587042391
2024-12-07 20:07:15.133286100,6.5792861328125,0.1801263020584359,-0.3524924184441566,-0.4644226612307131
2024-12-07 20:07:15.143300000,6.589300048828125,0.4542612231025472,-0.3268558728843927,-0.1325927993260323
2024-12-07 20:07:15.153313300,6.599313232421875,0.6343067880749702,-0.223213127580285,0.2024330821409821
2024-12-07 20:07:15.163327200,6.6093271484375,0.7026292136728763,-0.0184685536265373,0.4492350289709866
2024-12-07 20:07:15.173341000,6.6193408203125,0.6379109500467777,0.2476286069124937,0.6263242648884654
2024-12-07 20:07:15.183354000,6.62935400390625,0.4811445538530126,0.4364595724195241,0.6425453318491577
2024-12-07 20:07:15.193368300,6.639368408203125,0.147755516340211,0.5406704730004072,0.5064078456535935
2024-12-07 20:07:15.203382000,6.649382080078125,-0.128401923507452,0.4804290625274181,0.3070557783931493
2024-12-07 20:07:15.213395200,6.659395263671875,0.0658393400778993,0.2168564520299434,0.0270306302666664
2024-12-07 20:07:15.223409200,6.6694091796875,0.2982231411833316,-0.1002548564314842,-0.2960324262060225
2024-12-07 20:07:15.233423400,6.67942333984375,0.2829763626148924,-0.261020587927103,-0.5448753773443401
2024-12-07 20:07:15.243437000,6.68943701171875,0.1619745227634906,-0.2708160057544708,-0.6302377850703895
2024-12-07 20:07:15.253450200,6.6994501953125,0.082886373001337,-0.1200339081346988,-0.5221538424484431
2024-12-07 20:07:15.263464200,6.709464111328125,0.0928723449647426,0.1215302841722965,-0.3444378529347479
2024-12-07 20:07:15.273478100,6.71947802734375,0.1618926531663164,0.258439339262247,-0.2774174498461186
2024-12-07 20:07:15.283491000,6.729490966796875,0.2540332132577896,0.2605588156342506,-0.19242197573632
2024-12-07 20:07:15.293505300,6.73950537109375,0.3118856097023934,0.1463613585680723,-0.0764861505702138
2024-12-07 20:07:15.303519200,6.749519287109375,0.384570870152302,-0.037419337812066,0.0134554016396403
2024-12-07 20:07:15.313532200,6.7595322265625,0.5247521883785724,-0.2142383784860372,0.1140221004992723
2024-12-07 20:07:15.323546000,6.769546142578125,0.654343029409647,-0.354772638335824,0.2025225139901041
2024-12-07 20:07:15.333560300,6.779560302734375,0.5967500145535916,-0.4639385309755802,0.2223011273019015
2024-12-07 20:07:15.343573000,6.789572998046875,0.4723251779835671,-0.4925041157245636,0.2149069253973662
2024-12-07 20:07:15.353587200,6.799587158203125,0.4053109854400157,-0.3275970466405153,0.221407831723988
2024-12-07 20:07:15.363601200,6.80960107421875,0.3625765900850295,-0.0560959812313318,0.1956890147082507
2024-12-07 20:07:15.373614000,6.819614013671875,0.2919102317094803,0.1902162823855877,0.1930899381257593
2024-12-07 20:07:15.383628000,6.8296279296875,0.1566215443629771,0.3578752805262803,0.2242071070536971
2024-12-07 20:07:15.393642200,6.839642333984375,0.0241526636775583,0.3751291976660489,0.2968205078437924
2024-12-07 20:07:15.403655200,6.8496552734375,-0.1179799712795764,0.3104652945756912,0.4148825313836335
2024-12-07 20:07:15.413669000,6.859669189453125,-0.2485364424724131,0.2116957082659006,0.5269879846066237
2024-12-07 20:07:15.423683000,6.86968310546875,-0.3357669821579009,-0.0039519524961709,0.5122716231204569
2024-12-07 20:07:15.433697300,6.879697265625,-0.4297908352453261,-0.1459118612349033,0.4477127878397703
2024-12-07 20:07:15.443710200,6.889710205078125,-0.4885550127726047,-0.2677279766112566,0.3636252223551273
2024-12-07 20:07:15.453724200,6.89972412109375,-0.4000900359213352,-0.4645721527040004,0.2653193080343305
2024-12-07 20:07:15.463738000,6.909738037109375,-0.1151835454940795,-0.6628864013493061,0.1849827656462788
2024-12-07 20:07:15.473751000,6.9197509765625,0.3086087799888104,-0.7414116565316915,0.1791631195820867
2024-12-07 20:07:15.483765200,6.92976513671875,0.6576607025902718,-0.7759124765485524,0.172757198062539
2024-12-07 20:07:15.493779200,6.939779296875,0.7418285667695105,-0.6340344008743762,0.1529128260381519
2024-12-07 20:07:15.503792400,6.94979248046875,0.5193054672800004,-0.4768722468286752,0.0902278218053281
2024-12-07 20:07:15.513806000,6.95980615234375,0.1263724635064601,-0.3620090193301439,0.0493814321540296
2024-12-07 20:07:15.523820300,6.9698203125,-0.2507762572884559,-0.3092284462571144,0.0114924310036003
2024-12-07 20:07:15.533833200,6.979833251953125,-0.4978900465466082,-0.2760270184010267,-0.0235889653801918
2024-12-07 20:07:15.543847200,6.98984716796875,-0.5640075825113803,-0.1051461356043815,0.0767030081912875
2024-12-07 20:07:15.553861000,6.999861083984375,-0.5803402200877666,0.0113163437843322,0.212773712760955
2024-12-07 20:07:15.563874300,7.009874267578125,-0.5942530101060867,-0.0113718733638525,0.4362313166216016
2024-12-07 20:07:15.573888000,7.019887939453125,-0.6352572206676006,-0.1017167456775903,0.6894790055248886
2024-12-07 20:07:15.583902200,7.029902099609375,-0.6549157147310674,-0.1817570815980434,0.958617433455959
2024-12-07 20:07:15.593915100,7.0399150390625,-0.7025334982134401,-0.2257879465043544,1.2169283970981837
2024-12-07 20:07:15.603929300,7.049929443359375,-0.7927791479364037,-0.2346042901664972,1.398532626222074
2024-12-07 20:07:15.613943000,7.059943115234375,-0.983728274641186,-0.3585831365346908,1.4744981139190494
2024-12-07 20:07:15.623956200,7.069956298828125,-1.121231203971058,-0.4297510146915912,1.551528162107617
2024-12-07 20:07:15.633970200,7.07997021484375,-1.1208896970570086,-0.4872890114247798,1.670306955614686
2024-12-07 20:07:15.643984100,7.089984130859375,-1.090261919081211,-0.525413282635808,1.7762217375040052
2024-12-07 20:07:15.653998000,7.099998046875,-1.1126865168571471,-0.6249088451325893,1.7320413811244069
2024-12-07 20:07:15.664011300,7.11001123046875,-1.0922598149001597,-0.6409674150079488,1.790344370880723
2024-12-07 20:07:15.674025000,7.12002490234375,-1.1974949439622462,-0.6070511168807745,1.9381968447893856
2024-12-07 20:07:15.684039200,7.1300390625,-1.3655167840659617,-0.6652507923930883,2.083677036608756
2024-12-07 20:07:15.694052000,7.140052001953125,-1.2798667915701865,-0.7332733582615852,2.2852573013126847
2024-12-07 20:07:15.704066300,7.15006640625,-0.7228925417616963,-0.3575988016724586,2.7379309264302254
2024-12-07 20:07:15.714080000,7.160080078125,0.0223321702521294,0.7305202601611613,3.2470436471283435
2024-12-07 20:07:15.724093200,7.17009326171875,0.3936861602284014,2.17812028415203,3.60642728639096
2024-12-07 20:07:15.734107100,7.180107177734375,0.0107986035205423,3.544710250407457,3.714543669977784
2024-12-07 20:07:15.744121000,7.19012109375,-1.1755610523127018,4.510646701639891,3.598217676450312
2024-12-07 20:07:15.754134300,7.20013427734375,-2.6513620655238626,4.69207645097971,3.1131337738543747
2024-12-07 20:07:15.764148200,7.210148193359375,-3.203841634261608,3.807933901336789,2.082844677437842
2024-12-07 20:07:15.774162200,7.220162109375,-2.3999638769447804,2.7826626330822704,0.959138388590142
2024-12-07 20:07:15.784175000,7.230175048828125,-0.9732827223420144,1.9378490542650224,-0.1657512648232281
2024-12-07 20:07:15.794189300,7.240189208984375,0.1906815618097782,1.1660399213820696,-1.2507077709726988
2024-12-07 20:07:15.804203300,7.250203369140625,0.8033341519594192,0.484946247690916,-2.1855866745099424
2024-12-07 20:07:15.814216200,7.26021630859375,1.0017138670563697,0.2097182707130908,-2.832584017331898
2024-12-07 20:07:15.824230100,7.270230224609375,0.991354970127344,0.3925976343393325,-3.1192364746436474
2024-12-07 20:07:15.834244400,7.280244384765625,0.903330649715662,1.0255793112903833,-2.751560807853937
2024-12-07 20:07:15.844257000,7.290257080078125,0.7706681461542845,1.6819933017551898,-2.230335040035844
2024-12-07 20:07:15.854271200,7.300271240234375,0.7519482481151819,1.7790525770157577,-1.8354453492365777
2024-12-07 20:07:15.864285200,7.31028515625,0.7414040577471256,1.4523895963549611,-1.6010754523478448
2024-12-07 20:07:15.874299400,7.32029931640625,0.7796838117808104,1.027027172011137,-1.379771665520221
2024-12-07 20:07:15.884312000,7.33031201171875,0.5122989495187997,0.6661760905444621,-1.0680924651101231
2024-12-07 20:07:15.894326300,7.340326171875,-0.0780611448019742,0.1996457895100116,-0.7214961189672351
2024-12-07 20:07:15.904340200,7.35034033203125,-0.6667249565988779,-0.3022866642951965,-0.441491721367836
2024-12-07 20:07:15.914353200,7.360353271484375,-0.904852160194516,-0.5806646297365426,-0.128463298305869
2024-12-07 20:07:15.924367000,7.3703671875,-0.6224690507650374,-0.7507377032816409,0.1231644612453877
2024-12-07 20:07:15.934381300,7.38038134765625,-0.1275847984382882,-0.7329302439123392,0.5280632126227021
2024-12-07 20:07:15.944394000,7.39039404296875,0.4024724740784615,-0.5560755474030972,1.117625434564054
2024-12-07 20:07:15.954408200,7.400408203125,0.5608107592314482,-0.4595522787153721,1.5132269268944858
2024-12-07 20:07:15.964422100,7.410422119140625,0.5325976411819457,-0.4310141664952039,1.325698568418622
2024-12-07 20:07:15.974435000,7.42043505859375,0.6380816304385661,-0.5843178915470838,0.6628469461217522
2024-12-07 20:07:15.984449000,7.430448974609375,0.7613053475905209,-0.7930921594083309,-0.1442877671644091
2024-12-07 20:07:15.994463200,7.440463134765625,0.7755653436113148,-1.022884665378928,-0.9135103906854988
2024-12-07 20:07:16.004476200,7.45047607421875,0.631715091081336,-1.226321663865447,-1.6028247802332043
2024-12-07 20:07:16.014490000,7.460489990234375,0.5071667742621153,-1.416339793330431,-2.1645804190993307
2024-12-07 20:07:16.024504000,7.470504150390625,0.297055704839155,-1.5597189212173224,-2.451582712762057
2024-12-07 20:07:16.034517200,7.480517333984375,0.0502478397250175,-1.5280074396580456,-2.473741645339131
2024-12-07 20:07:16.044531200,7.49053125,0.1553122883953154,-1.453731074091792,-2.2469617651879785
2024-12-07 20:07:16.054545200,7.500545166015625,0.2390039864301681,-1.2768617645353078,-1.7171455714181063
2024-12-07 20:07:16.064559000,7.51055908203125,0.2085575563706457,-1.155039219418168,-0.8037067846640944
2024-12-07 20:07:16.074572000,7.520572021484375,0.1240240006841719,-1.2441776385515928,0.3296083864629268
2024-12-07 20:07:16.084586200,7.530586181640625,-0.3128209908563643,-1.3744418487995862,1.4798182860285043
2024-12-07 20:07:16.094600200,7.54060009765625,-0.5900298394531012,-1.5029986706078051,2.308306460727751
2024-12-07 20:07:16.104613000,7.550613037109375,-0.1952636289030313,-1.6820903323888778,2.1827593421295286
2024-12-07 20:07:16.114627000,7.560626953125,0.2807839306045323,-1.8105390176475047,0.9732932437360288
2024-12-07 20:07:16.124641300,7.570641357421875,1.1092008666984736,-1.889444796580076,0.1658376279324293
2024-12-07 20:07:16.134654200,7.580654296875,1.4506623341709377,-2.046871739041805,-0.3823959737986326
2024-12-07 20:07:16.144668200,7.590668212890625,0.9384760512463748,-2.155668798369169,-0.7026759754240512
2024-12-07 20:07:16.154682000,7.60068212890625,0.1755214020788669,-2.0963778204888106,-0.6919666576221585
2024-12-07 20:07:16.164695300,7.6106953125,0.0176082104701548,-1.9965812292188403,-0.8540557466760277
2024-12-07 20:07:16.174709000,7.620708984375,0.2016179663658142,-1.8688006524801253,-1.4720581734210252
2024-12-07 20:07:16.184723200,7.63072314453125,0.3959473831586539,-1.83690037035048,-2.227549793231487
2024-12-07 20:07:16.194736000,7.640736083984375,0.7182207505583763,-1.8642302758246656,-2.7219918912813066
2024-12-07 20:07:16.204750000,7.65075,1.0897598147779703,-2.2166642420798537,-2.835424209193885
2024-12-07 20:07:16.214764000,7.660763916015625,1.7020570156186818,-2.814707292118668,-2.6473016842171546
2024-12-07 20:07:16.224777200,7.670777099609375,2.394845364887267,-3.1539363243639467,-2.213428036637604
2024-12-07 20:07:16.234791200,7.680791259765625,2.060264304578304,-2.708068287608027,-1.6073077708661556
2024-12-07 20:07:16.244805000,7.69080517578125,0.4751514874506741,-0.3877916953623294,-0.8905746285170316
2024-12-07 20:07:16.254819000,7.700819091796875,-1.0752904868554325,3.7330373580455776,0.0365229734942317
2024-12-07 20:07:16.264832300,7.710832275390625,-1.1832312946796415,7.58229403437376,1.7403998980164528
2024-12-07 20:07:16.274846000,7.720845947265625,0.4668927776712924,10.19042836806774,3.503654894180596
2024-12-07 20:07:16.284860200,7.730860107421875,1.9007044417411088,11.211192972552777,3.550770573359728
2024-12-07 20:07:16.294873300,7.740873291015625,0.9304799379259348,9.953360318136214,0.5967866202369332
2024-12-07 20:07:16.304887000,7.750886962890625,-1.908468061479926,4.582271675914526,-3.789007959331572
2024-12-07 20:07:16.314901000,7.76090087890625,-2.941379030832648,0.4053296901404857,-5.973272445327043
2024-12-07 20:07:16.324914200,7.7709140625,-0.933487887570262,-1.4704326180458067,-6.441560988205671
2024-12-07 20:07:16.334928400,7.780928466796875,1.2004419571995737,-2.631534498503804,-6.260946062380075
2024-12-07 20:07:16.344942000,7.790942138671875,2.1004653820633887,-3.109973263996839,-5.491650958144665
2024-12-07 20:07:16.354955300,7.800955322265625,2.643644038492441,-2.768309113559127,-4.238546793554723
2024-12-07 20:07:16.364969200,7.81096923828125,2.9698738884329794,-2.151819721725583,-2.393736965253949
2024-12-07 20:07:16.374983200,7.820983154296875,2.4458237108439205,-1.3039426636844873,-0.2684288183569908
2024-12-07 20:07:16.384996000,7.83099609375,1.2006699207365512,-0.3384130396872759,1.6043755168065428
2024-12-07 20:07:16.395010300,7.84101025390625,0.2193956151187419,0.2625444364935159,2.940463961814344
2024-12-07 20:07:16.405024300,7.851024169921875,0.1332102005720138,0.3404851697862148,3.52776116143316
2024-12-07 20:07:16.415037200,7.861037109375,0.1256926645487547,0.1784808364063501,3.037628743276
2024-12-07 20:07:16.425051100,7.871051025390625,-0.283725171688199,0.2266401794195175,2.142543651597202
2024-12-07 20:07:16.435065300,7.8810654296875,-0.7386632346063852,0.1967138277113437,1.4430729019552468
2024-12-07 20:07:16.445078000,7.891078125,-0.7134884613394736,-0.11566752961874,0.580953091289103
2024-12-07 20:07:16.455093500,7.901093505859375,-0.5862772089213133,-0.3598188158094882,-0.1818200638316571
2024-12-07 20:07:16.465107200,7.911107177734375,-0.7485445771515369,-0.309509016764164,-0.6866163826353847
2024-12-07 20:07:16.475121200,7.92112109375,-0.9558236380189656,-0.0557277324408292,-1.0418475783936678
2024-12-07 20:07:16.485134300,7.93113427734375,-0.905202873328328,0.1862988166809082,-1.1723115489974618
2024-12-07 20:07:16.495148300,7.941148193359375,-0.724519558441639,0.3058966714859009,-1.0207749797485768
2024-12-07 20:07:16.505162200,7.951162353515625,-0.308923325830698,0.2877379144608974,-0.6646689008519053
2024-12-07 20:07:16.515175400,7.961175537109375,0.3621680092841386,0.2132756709337234,-0.2238582936160266
2024-12-07 20:07:16.525189400,7.971189453125,0.7688485295116901,0.1549491541713476,0.1173543136619031
2024-12-07 20:07:16.535203300,7.981203369140625,0.8459177406668662,0.0830646521776914,0.284046804857999
2024-12-07 20:07:16.545216300,7.99121630859375,0.8222808444917201,0.0470469978570938,0.3341374081946909
2024-12-07 20:07:16.555230500,8.00123046875,0.6753378866434097,-0.01275660572052,0.2795728743143379
2024-12-07 20:07:16.565244200,8.011244140625,0.4854068509399891,-0.1177998654723167,0.0652823272496461
2024-12-07 20:07:16.575257300,8.02125732421875,0.2776467650899663,-0.208481422394514,-0.3001787322305143
2024-12-07 20:07:16.585271300,8.031271240234375,-0.1147825452114455,-0.2045920137405395,-0.6296541399635374
2024-12-07 20:07:16.595285500,8.041285400390626,-0.099173490935564,-0.0967336965680122,-0.7508326880887151
2024-12-07 20:07:16.605298200,8.051298095703125,0.2053460287119261,0.0484036731630563,-0.7915420073568821
2024-12-07 20:07:16.615312400,8.0613125,0.6134966397583484,0.2407131284356117,-0.7469137610793113
2024-12-07 20:07:16.625326300,8.071326416015625,0.9897627324998378,0.417606403389573,-0.5835770100519061
2024-12-07 20:07:16.635340300,8.08134033203125,1.1361012947142124,0.5190379023849964,-0.3565795416273176
2024-12-07 20:07:16.645353200,8.091353271484374,1.0967477739691731,0.4515788156181574,-0.1389388073518872
2024-12-07 20:07:16.655367400,8.101367431640625,1.0459037219166756,0.3571294305950403,0.0588961333438754
2024-12-07 20:07:16.665381000,8.111381103515624,0.9747767602920532,0.2814186483114957,0.2001595842510461
2024-12-07 20:07:16.675394300,8.121394287109375,0.7947206373929977,0.1733206771641969,0.1555709393315017
2024-12-07 20:07:16.685408300,8.131408203125,0.4583329295208677,0.0962117185205221,0.0208437583252787
2024-12-07 20:07:16.695422500,8.14142236328125,0.0983960402896627,0.015673369950056,-0.1574723890386521
2024-12-07 20:07:16.705435400,8.151435302734376,-0.1649568265099078,0.0823988817453384,-0.3100955844804644
2024-12-07 20:07:16.715449300,8.161449462890625,-0.3620317791512236,0.1428711783647537,-0.4575649042904376
2024-12-07 20:07:16.725463300,8.17146337890625,-0.3232359288215637,0.1792342851221561,-0.5399646628186107
2024-12-07 20:07:16.735476200,8.181476318359374,-0.1388707470843568,0.2193044297039508,-0.5397404986739158
2024-12-07 20:07:16.745490400,8.191490478515625,-0.0711971042513847,0.2193640509366989,-0.5650238468818366
2024-12-07 20:07:16.755504400,8.20150439453125,-0.0749461911192163,0.1645247917681932,-0.6062948916859925
2024-12-07 20:07:16.765517300,8.211517333984375,-0.0453577295958995,0.072058104994893,-0.5492138449400663
2024-12-07 20:07:16.775531300,8.22153125,-0.0215618799993768,0.0027402386188507,-0.429867042286694
2024-12-07 20:07:16.785545500,8.23154541015625,-0.0959469301044941,0.0111959322750568,-0.2499269469827413
2024-12-07 20:07:16.795559400,8.241559326171876,-0.1520692148208618,-0.0442974068880081,-0.0491501076161861
2024-12-07 20:07:16.805572400,8.251572265625,-0.0447603116920217,-0.1267512336909771,0.2131885771721601
2024-12-07 20:07:16.815586300,8.26158642578125,0.1135527659544721,-0.1872504183173179,0.5083334068886936
2024-12-07 20:07:16.825600500,8.2716005859375,0.1811199162056669,-0.2520803256243467,0.6453009141676127
2024-12-07 20:07:16.835613200,8.28161328125,0.2980383592009544,-0.3050415159612893,0.7685013235092163
2024-12-07 20:07:16.845627400,8.29162744140625,0.2988917246272787,-0.3161977007478475,0.8562026955768466
2024-12-07 20:07:16.855641300,8.301641357421875,0.1183645866829901,-0.3367079893350601,0.8615934487044811
2024-12-07 20:07:16.865654300,8.311654296875,-0.1224573724219575,-0.2843617160260677,0.8748971669137477
2024-12-07 20:07:16.875668200,8.321668212890625,-0.4036673464188352,-0.1739431929767131,0.8461110712818801
2024-12-07 20:07:16.885682400,8.331682373046876,-0.6003050766866653,-0.1612391942262649,0.7233700961455702
2024-12-07 20:07:16.895695000,8.341695068359375,-0.7117523582618683,-0.1707066952735185,0.5430694969661534
2024-12-07 20:07:16.905709300,8.351709228515626,-0.6075882194321602,-0.2755138081818818,0.382369085791707
2024-12-07 20:07:16.915723300,8.36172314453125,-0.1117032290976494,-0.3323673297822475,0.3371430197514593
2024-12-07 20:07:16.925736200,8.371736083984375,0.3376571798186749,-0.3391179730862378,0.3460783136181533
2024-12-07 20:07:16.935750100,8.381750244140624,0.6035737230937928,-0.3246381968349218,0.3568500291317701
2024-12-07 20:07:16.945764400,8.391764404296875,0.7790542817056179,-0.3643208034038543,0.4000438586920499
2024-12-07 20:07:16.955778300,8.4017783203125,0.7752911297798156,-0.4931903444230556,0.5212181690335274
2024-12-07 20:07:16.965791200,8.411791259765625,0.5231400039415807,-0.6507113949090242,0.7217515550330281
2024-12-07 20:07:16.975805200,8.42180517578125,0.1215443857628852,-0.6913210531949997,0.9726549458324908
2024-12-07 20:07:16.985819400,8.4318193359375,-0.3191232328057289,-0.6577788490772247,1.1664721753194929
2024-12-07 20:07:16.995832300,8.441832275390626,-0.7899475047070532,-0.5139426250725985,1.292781218200922
2024-12-07 20:07:17.005846300,8.45184619140625,-1.1719185310918838,-0.4248690878689289,1.300246731775999
2024-12-07 20:07:17.015860200,8.461860107421876,-1.1418377925395964,-0.4794909048944711,1.2637252195864914
2024-12-07 20:07:17.025873200,8.471873046875,-0.7547265537220984,-0.5796586675643921,1.2343206997953355
2024-12-07 20:07:17.035887400,8.481887451171875,-0.1656745463252067,-0.6999035881012677,1.0946151458546518
2024-12-07 20:07:17.045901300,8.4919013671875,0.3321544907491654,-0.794494427421689,0.8317014376573264
2024-12-07 20:07:17.055914500,8.50191455078125,0.2808300347685813,-0.8460778996646404,0.5329527382299304
2024-12-07 20:07:17.065928200,8.51192822265625,-0.1877133596539497,-0.8595078746020793,0.2142364787898957
2024-12-07 20:07:17.075942400,8.5219423828125,-0.6909843685865402,-0.7662573439747095,0.0389526848591864
2024-12-07 20:07:17.085955300,8.531955322265626,-1.1162276235301047,-0.7110042433083057,-0.0829381031885743
2024-12-07 20:07:17.095969300,8.54196923828125,-1.4183096320986748,-0.613844430282712,-0.0866219062678515
2024-12-07 20:07:17.105983200,8.551983154296876,-1.2983224857151507,-0.4000602253049611,0.1189021276257932
2024-12-07 20:07:17.115997400,8.56199755859375,-0.8909188388448208,-0.2935392942160368,0.4225834611497819
2024-12-07 20:07:17.126010000,8.572010009765625,-0.4237701867163181,-0.4117325429201126,0.7515630481898784
2024-12-07 20:07:17.136024300,8.5820244140625,-0.1425217804051935,-0.6599684680759906,0.8795312564551829
2024-12-07 20:07:17.146038300,8.592038330078125,0.0198702371180057,-0.8945207357943058,0.931567879293114
2024-12-07 20:07:17.156051500,8.602051513671874,0.2099788944106549,-1.0688321775615215,0.8732268956139683
2024-12-07 20:07:17.166065200,8.612065185546875,0.2784954543411732,-1.1611930658727885,0.6110595488045364
2024-12-07 20:07:17.176079400,8.622079345703124,0.1422362414620816,-1.0143769492745398,0.4239161710582673
2024-12-07 20:07:17.186092300,8.63209228515625,-0.1932232091166079,-0.693795334354043,0.2689399827495217
2024-12-07 20:07:17.196106200,8.642106201171876,-0.5869933943666518,-0.2633925777554511,0.3120599433559924
2024-12-07 20:07:17.206120200,8.6521201171875,-0.5927833759449422,0.2126069778919219,0.6537902908977121
2024-12-07 20:07:17.216133400,8.66213330078125,0.0133119015157222,0.7209305940389633,1.2444205073967576
2024-12-07 20:07:17.226147300,8.672147216796875,1.0657821423411369,1.3397183259427548,1.8919284300893544
2024-12-07 20:07:17.236161300,8.682161376953125,2.220698027640581,2.1469564996033905,2.272159627069533
2024-12-07 20:07:17.246174200,8.69217431640625,2.662030759054422,2.6979946373611687,2.0312324174918235
2024-12-07 20:07:17.256188400,8.7021884765625,1.8426972200609744,2.300669389978052,0.7996757025171071
2024-12-07 20:07:17.266202000,8.7122021484375,0.3891372647523879,1.8234154503554103,-0.536394403116405
2024-12-07 20:07:17.276216300,8.72221630859375,-0.8399275603413582,1.7025246331304311,-1.3026467786550522
2024-12-07 20:07:17.286229200,8.732229248046876,-1.5197453688777982,1.6297645173460245,-1.9095660858497023
2024-12-07 20:07:17.296243200,8.7422431640625,-1.5602759705781937,1.6666694758951663,-2.383047228935361
2024-12-07 20:07:17.306257200,8.752257080078126,-1.087975269448757,1.8086428286373613,-2.3794892441928384
2024-12-07 20:07:17.316270300,8.762270263671875,-0.4768564647376537,1.91329036706984,-1.7666934461802244
2024-12-07 20:07:17.326284300,8.7722841796875,-0.304770736195892,1.8104659524112936,-0.7544507324554026
2024-12-07 20:07:17.336298200,8.78229833984375,-0.6585211188118905,1.4746201328635216,0.3061104603670537
2024-12-07 20:07:17.346311400,8.7923115234375,-1.0965642340958115,1.041758877196908,1.1296682659920303
2024-12-07 20:07:17.356325400,8.802325439453124,-1.4268249469876289,0.4798077157586812,1.5397329487651583
2024-12-07 20:07:17.366339300,8.81233935546875,-1.5152584327220917,0.0139636434227228,1.613396150869131
2024-12-07 20:07:17.376352300,8.822352294921876,-1.2650386402726173,-0.2994797901809215,1.4918334257319568
2024-12-07 20:07:17.386366500,8.832366455078125,-0.9919721521776168,-0.4777425999224186,1.1849451128602029
2024-12-07 20:07:17.396380200,8.842380126953126,-0.4532510596793144,-0.6037246028065681,0.7398613583497703
2024-12-07 20:07:17.406394400,8.852394287109375,0.3784194713830948,-0.6800660842090844,0.3738391578555107
2024-12-07 20:07:17.416407300,8.8624072265625,1.032816276806593,-0.7016425407230854,0.2198718543283641
2024-12-07 20:07:17.426421500,8.87242138671875,1.266738429927826,-0.6348422101259231,0.2306220155972987
2024-12-07 20:07:17.436435200,8.882435302734375,1.0818296063005923,-0.5307704257547855,0.2820225324887782
2024-12-07 20:07:17.446448400,8.892448486328124,0.6767132666498422,-0.4781131868004799,0.4088412784580141
2024-12-07 20:07:17.456461000,8.9024609375,0.2838870842516422,-0.4400245714247226,0.6114296972911805
2024-12-07 20:07:17.466475000,8.91247509765625,0.0646498562986962,-0.3604197043120861,0.9066044837545604
2024-12-07 20:07:17.476488200,8.92248828125,0.0231511402185074,-0.1355208156019449,1.1464568306423724
2024-12-07 20:07:17.486502000,8.932501953125,-0.0038292028993368,0.127571902424097,1.138828016264364
2024-12-07 20:07:17.496516000,8.94251611328125,-0.3126508219212293,0.3664607380419969,1.035296037858352
2024-12-07 20:07:17.506529000,8.952529052734375,-0.7489578341275454,0.5686538739472627,1.0097250318154691
2024-12-07 20:07:17.516543000,8.96254296875,-0.8312906648993492,0.6280857216030359,0.9085013303518296
2024-12-07 20:07:17.526557000,8.972556884765625,-0.6362000544756651,0.6178361302673816,0.620338176216185
2024-12-07 20:07:17.536571100,8.982571044921874,-0.6807417915135622,0.6508633706003427,0.2910987691961229
2024-12-07 20:07:17.546583800,8.992583740234375,-1.2042056936472654,0.8344207796186208,0.0111317809976637
2024-12-07 20:07:17.556598000,9.002597900390626,-1.9856039081305263,1.1477999158143997,-0.0311731368988752
2024-12-07 20:07:17.566612000,9.012612060546877,-1.8129010706037283,1.3256412852734327,0.2306122979208827
2024-12-07 20:07:17.576625200,9.022625244140626,-0.3689700905144214,1.187780044025183,0.7534561684601009
2024-12-07 20:07:17.586638800,9.032638916015625,1.2740572285085916,0.7417717220157385,1.1632662188850342
2024-12-07 20:07:17.596653000,9.042653076171876,1.7166116106718778,0.097217096170783,1.558894306961447
2024-12-07 20:07:17.606666000,9.052666015625,1.0642372509866953,-0.7717495116502047,1.9171032033562656
2024-12-07 20:07:17.616680000,9.062679931640623,0.2433265988696366,-1.68743870767951,1.9286857968613504
2024-12-07 20:07:17.626694000,9.07269384765625,-0.1832716508794575,-2.226111869382858,1.1070400354027747
2024-12-07 20:07:17.636707000,9.08270703125,-0.6597451807141304,-2.1108254480361937,-0.1040881509840488
2024-12-07 20:07:17.646721000,9.092720947265626,-0.980082392419502,-1.604063674378395,-0.9571886427618562
2024-12-07 20:07:17.656735000,9.10273486328125,-0.914331863136217,-0.8205757941395044,-1.3692461798526343
2024-12-07 20:07:17.666749000,9.1127490234375,-0.5444902504842728,-0.0036047464936971,-1.3267770113050936
2024-12-07 20:07:17.676762000,9.12276220703125,-0.0239284995328634,0.5231704721450805,-0.9315728477291764
2024-12-07 20:07:17.686775800,9.13277587890625,0.3294686857312917,0.7624006685465574,-0.3338919090010225
2024-12-07 20:07:17.696790000,9.1427900390625,0.4569588281560689,0.593607113417983,0.2908370495200157
2024-12-07 20:07:17.706803200,9.15280322265625,0.5005898800898343,-0.0516857635736465,0.6392730321802198
2024-12-07 20:07:17.716817000,9.16281689453125,0.2663233705103397,-0.7615589570254087,0.7712801405727863
2024-12-07 20:07:17.726830800,9.172830810546875,-0.0911152721643447,-1.2024462827593088,0.6600790888436138
2024-12-07 20:07:17.736844000,9.182843994140624,-0.2763824077099561,-1.3023872509360312,0.1489740252844989
2024-12-07 20:07:17.746858200,9.192858154296877,0.0048235476989299,-1.026225207978487,-0.2917738919787109
2024-12-07 20:07:17.756872000,9.202871826171876,0.6921656873255968,-0.6181055948585271,-0.3943235813491046
2024-12-07 20:07:17.766885000,9.212885009765625,1.2000783845841885,-0.297214767858386,-0.3504638352259993
2024-12-07 20:07:17.776899000,9.222899169921876,1.4172247594714165,0.0018418284744024,-0.2259502974592149
2024-12-07 20:07:17.786913000,9.2329130859375,1.3663380373209717,0.2555330964267254,-0.0740755822971463
2024-12-07 20:07:17.796927000,9.242927001953126,0.8259884668380022,0.5075754281282424,0.1231713293775916
2024-12-07 20:07:17.806940200,9.252940185546874,0.1578624112695455,0.757222389125824,0.4539209948301315
2024-12-07 20:07:17.816953900,9.262953857421875,-0.1588419238261878,0.9989204369455577,0.8732347866594791
2024-12-07 20:07:17.826968000,9.272968017578124,0.0393758056420832,1.0223375528901817,1.1665367649883032
2024-12-07 20:07:17.836981000,9.28298095703125,0.4542670317888259,0.7904816846489906,1.0056564672023058
2024-12-07 20:07:17.846995200,9.2929951171875,0.6356866981260478,0.3974824837714433,0.3623316754132509
2024-12-07 20:07:17.857009000,9.3030087890625,0.5014513922899961,-0.0358498965382576,-0.4893631873503327
2024-12-07 20:07:17.867022000,9.31302197265625,0.4316999568022787,-0.334015096989274,-1.210123977780342
2024-12-07 20:07:17.877036000,9.3230361328125,0.5022476572342217,-0.4888730657458305,-1.7041837985143065
2024-12-07 20:07:17.887050000,9.333050048828126,0.4514401377998292,-0.5109790990918874,-2.009230867433548
2024-12-07 20:07:17.897063000,9.34306298828125,0.427135717626661,-0.433960741341114,-2.1275120866820214
2024-12-07 20:07:17.907077000,9.3530771484375,0.8046702228687703,-0.2994213379919528,-1.9741493249192832
2024-12-07 20:07:17.917090800,9.3630908203125,0.9848590322367846,-0.2293213813275098,-1.73724377207309
2024-12-07 20:07:17.927105000,9.37310498046875,0.8721955067396163,-0.2082102042376995,-1.4881488920003174
2024-12-07 20:07:17.937118000,9.383117919921874,0.6723427964806556,-0.2351408812612295,-1.307880003133416
2024-12-07 20:07:17.947132200,9.393132080078123,0.4497380100570619,-0.2689683320611715,-1.1660457666009665
2024-12-07 20:07:17.957145900,9.403145751953126,0.3711484574668109,-0.4163800764650106,-1.0528989876314998
2024-12-07 20:07:17.967159000,9.413158935546877,0.5867968488812446,-0.6726449942976236,-0.96892628069818
2024-12-07 20:07:17.977173000,9.423173095703126,0.7592940808333456,-0.986188965666294,-0.983466262704134
2024-12-07 20:07:17.987187000,9.43318701171875,0.6620582799620925,-1.275936466383934,-1.1173127153530715
2024-12-07 20:07:17.997200100,9.4432001953125,0.5534184570230544,-1.5475316398173569,-1.2345689754679798
2024-12-07 20:07:18.007214000,9.453214111328125,0.4288976127326488,-1.8118787418186664,-1.2663807025313376
2024-12-07 20:07:18.017227800,9.463227783203124,0.4553828840762376,-2.0836171231150624,-1.4250477081820367
2024-12-07 20:07:18.027242000,9.473241943359374,0.5555196670860052,-2.3510031544208525,-1.6851222474306822
2024-12-07 20:07:18.037255200,9.483255126953123,0.7776648731738328,-2.558589673802256,-1.899833211864531
2024-12-07 20:07:18.047269000,9.49326904296875,0.9798539174258708,-2.657906372600794,-1.9242206341460344
2024-12-07 20:07:18.057282800,9.50328271484375,0.8542524382919072,-2.5783459291517734,-1.7108324427485464
2024-12-07 20:07:18.067296000,9.5132958984375,0.6895277400374412,-2.2593092055857182,-1.3813660951048137
2024-12-07 20:07:18.077310200,9.523310302734377,0.6733195325583219,-1.80325529038012,-1.007472576713562
2024-12-07 20:07:18.087324000,9.533323974609376,0.2404407412350177,-0.9956126275718212,-0.5271408370807766
2024-12-07 20:07:18.097337000,9.543337158203125,-0.3817798877269029,0.5826327149391174,0.1744900132045149
2024-12-07 20:07:18.107351000,9.55335107421875,-0.4247514528386295,3.7283266961365937,1.1288327650159595
2024-12-07 20:07:18.117365200,9.563365234375,0.2080313405394554,7.66176153884232,2.3157298887267705
2024-12-07 20:07:18.127378000,9.5733779296875,0.5845728161562234,8.935028493756056,3.470979536025226
2024-12-07 20:07:18.137392000,9.58339208984375,0.0744418583262711,6.952065455523133,3.330145708706975
2024-12-07 20:07:18.147406000,9.593406005859377,-1.0283487760037182,2.5305975050270555,0.2780360201358795
2024-12-07 20:07:18.157420000,9.603419921875,-1.0737531212203204,0.2976478985786437,-2.45982330236286
2024-12-07 20:07:18.167433000,9.613432861328125,-0.2604099086828529,-0.8874334078818559,-4.2487548838362095
2024-12-07 20:07:18.177447200,9.623447265625,0.5905553246319294,-1.530934725281596,-5.278865116554498
2024-12-07 20:07:18.187460900,9.6334609375,1.4391273791998624,-1.6498773310482502,-5.111731603592634
2024-12-07 20:07:18.197474000,9.64347412109375,1.8469763586848973,-1.394770935600996,-4.135611027476191
2024-12-07 20:07:18.207488000,9.653488037109376,1.4593021522223948,-0.7726631193637847,-2.458248015870154
2024-12-07 20:07:18.217502200,9.663502197265624,1.1211894837211818,-0.2717857275694608,-0.5268202268242835
2024-12-07 20:07:18.227515000,9.673514892578124,0.9798065711528062,-5.14379262924e-05,0.9685597854733466
2024-12-07 20:07:18.237529000,9.683529052734375,0.3094810327786952,0.1866091978043317,2.0466861533418297
2024-12-07 20:07:18.247543000,9.69354296875,-0.3508375639092177,0.2049567553997039,2.716094357675314
2024-12-07 20:07:18.257557000,9.703556884765623,-0.785406281080842,0.0184983642429113,2.7531056992083784
2024-12-07 20:07:18.267570000,9.71356982421875,-1.251068567109108,-0.270304549100995,2.015866798316688
2024-12-07 20:07:18.277584100,9.723584228515625,-1.0958125389456748,-0.5507476303786039,0.9824683377079664
2024-12-07 20:07:18.287597800,9.733597900390626,-0.3769996311804279,-0.7620154686212539,0.191987383711338
2024-12-07 20:07:18.297611000,9.743611083984376,0.24876963017378,-0.828497234788537,-0.3254169261224567
2024-12-07 20:07:18.307625000,9.753625,0.3651479384103789,-0.6478156734675169,-0.5862567506551742
2024-12-07 20:07:18.317639200,9.76363916015625,-0.0693634225508198,-0.3107978875309228,-0.6099741647206246
2024-12-07 20:07:18.327652000,9.773652099609375,-0.4217419322917237,0.0490899018615484,-0.3619415070518851
2024-12-07 20:07:18.337666000,9.783666015625,-0.4966595183709636,0.3236532774507999,0.1305434655807912
2024-12-07 20:07:18.347680000,9.793679931640623,-0.4581365666985511,0.5301970097810029,0.569513121125102
2024-12-07 20:07:18.357694000,9.80369384765625,-0.5170949516236781,0.4774859948128461,0.6499680291958153
2024-12-07 20:07:18.367707100,9.81370703125,-0.5915870057672262,0.1941495301812887,0.2819625459298491
2024-12-07 20:07:18.377721000,9.82372119140625,-0.6563000086963177,-0.0403805257052183,-0.2370839781530201
2024-12-07 20:07:18.387734800,9.83373486328125,-0.4428337836265563,-0.2242763728976249,-0.6352905384153127
2024-12-07 20:07:18.397748000,9.843748046875,-0.033670798933506,-0.273678409448266,-0.8780506625086069
2024-12-07 20:07:18.407762200,9.85376220703125,0.4516021964937448,-0.1828705957978963,-1.0291726596072317
2024-12-07 20:07:18.417776000,9.863776123046875,0.54269817943573,0.0051946460336446,-1.074018786419183
2024-12-07 20:07:18.427789000,9.8737890625,0.3652542848616838,0.2303162375837564,-0.9526483689837156
2024-12-07 20:07:18.437803000,9.883802978515623,0.4495663067519664,0.3758686178565025,-0.7629889898285269
2024-12-07 20:07:18.447817000,9.89381689453125,0.6170329971909523,0.4500906228870153,-0.6414036144681274
2024-12-07 20:07:18.457831000,9.903830810546877,0.6113315706789493,0.4534598070591688,-0.5438172465935349
2024-12-07 20:07:18.467843800,9.91384375,0.497436311429739,0.4390133485555648,-0.520027936335653
2024-12-07 20:07:18.477857800,9.92385791015625,0.2214870527063496,0.3803232591778039,-0.6470403051808477
2024-12-07 20:07:18.487872000,9.9338720703125,-0.2542903846229426,0.2774520827680826,-0.9417790383145213
2024-12-07 20:07:18.497885000,9.943885009765625,-0.4448012843072414,0.1597375574916601,-1.0558749347023666
2024-12-07 20:07:18.507899000,9.95389892578125,-0.072181475646235,-0.0282628024101257,-0.9532190084785224
2024-12-07 20:07:18.517912800,9.963912841796876,0.3916822365274652,-0.1531359672695398,-0.7344711897440255
2024-12-07 20:07:18.527926000,9.973926025390623,0.7833002487123012,-0.1875216364741325,-0.4392725840136408
2024-12-07 20:07:18.537939700,9.983939697265624,1.0798387247443195,-0.0935141499996185,-0.1073126659885048
2024-12-07 20:07:18.547954000,9.993953857421875,1.1126748264193531,0.143778940859437,0.1656321684882044
2024-12-07 20:07:18.557966800,10.003966796875,0.7219055765509605,0.4822469256043434,0.3132476187705993
2024-12-07 20:07:18.567980800,10.013980712890625,0.1897556791365146,0.6871171717643737,0.4206798194855451
2024-12-07 20:07:18.577994800,10.023994873046876,-0.0726912152666598,0.6051864920526743,0.4885555242292583
2024-12-07 20:07:18.588009000,10.034009033203125,0.0165736067254096,0.3266045284718274,0.5285406208761037
2024-12-07 20:07:18.598022000,10.04402197265625,0.3038203766684979,-0.0827303056567907,0.5520990449875592
2024-12-07 20:07:18.608035800,10.054035888671876,0.4866261270692572,-0.4748147297769785,0.5569796566359698
2024-12-07 20:07:18.618049800,10.0640498046875,0.3434778487961739,-0.7328145085781812,0.5536163176827132
2024-12-07 20:07:18.628063000,10.07406298828125,0.0695885000109672,-0.7237742930322885,0.6358046254172921
2024-12-07 20:07:18.638076700,10.08407666015625,-0.0786591106951236,-0.5121025501638651,0.6485489561781287
2024-12-07 20:07:18.648091000,10.0940908203125,-0.1075051928859204,-0.1742518205344677,0.5889097493819893
2024-12-07 20:07:18.658104000,10.10410400390625,-0.0214296684544533,0.0863677853763103,0.4917454063117504
2024-12-07 20:07:18.668118000,10.114117919921876,0.143877725058794,0.2300321599453687,0.3472010340377688
2024-12-07 20:07:18.678131700,10.124131591796877,0.2721124753057956,0.1913911713838577,0.2362824525117874
2024-12-07 20:07:18.688146000,10.13414599609375,0.259076321991533,0.0034662148058414,0.0696555738978087
2024-12-07 20:07:18.698159000,10.1441591796875,0.1955271752100437,-0.32939737406075,-0.0749994191437959
2024-12-07 20:07:18.708172800,10.1541728515625,0.074989409206435,-0.6104448509722947,-0.1347121295675635
2024-12-07 20:07:18.718186800,10.164186767578125,-0.1158125641126185,-0.7361199798643588,-0.2011182001501321
2024-12-07 20:07:18.728200000,10.174199951171875,-0.3895861775636672,-0.6555354540646076,-0.1865069064736366
2024-12-07 20:07:18.738214000,10.1842138671875,-0.5869288777630776,-0.4712900627821683,-0.0509308535531163
2024-12-07 20:07:18.748227800,10.194227783203123,-0.5295311662834138,-0.278941444543004,0.1747771595828235
2024-12-07 20:07:18.758241000,10.204240966796876,-0.1693477549452334,-0.0870469998121261,0.4070648433700203
2024-12-07 20:07:18.768255000,10.2142548828125,0.3434018609505146,-0.029161212554574,0.5555876177556812
2024-12-07 20:07:18.778269000,10.22426904296875,0.6666997490923852,-0.1699409715980291,0.645818800561875
2024-12-07 20:07:18.788283000,10.234282958984377,0.7831167088389396,-0.3589116378366947,0.6533879206418991
2024-12-07 20:07:18.798296000,10.244296142578126,0.7455646845579147,-0.4000128790318966,0.7045571129955351
2024-12-07 20:07:18.808309800,10.254309814453125,0.562440990781784,-0.4330266753613948,0.7105953702464699
2024-12-07 20:07:18.818324000,10.264323974609376,0.3568496638055891,-0.508227170035243,0.6975020799174905
2024-12-07 20:07:18.828337000,10.2743369140625,0.1451835469603538,-0.3774257841706275,0.722491121353954
2024-12-07 20:07:18.838350800,10.284350830078123,-0.1731529193818569,-0.0444119731783866,0.7117956859469413
2024-12-07 20:07:18.848364800,10.29436474609375,-0.5370201337993145,0.154659231314063,0.4430063637144863
2024-12-07 20:07:18.858378000,10.3043779296875,-0.7343127112466842,0.4107300878793001,0.198612793200463
2024-12-07 20:07:18.868392000,10.314391845703126,-0.7197581161934882,0.631601036247611,-0.0177099903441965
2024-12-07 20:07:18.878406000,10.324406005859377,-0.6075998368047177,0.7412900759786367,-0.1356657770305872
2024-12-07 20:07:18.888419800,10.334419921875,-0.5611516085583717,0.5871335334897041,-0.2101725903518498
2024-12-07 20:07:18.898433000,10.34443310546875,-0.4835189183015376,0.4196533990472555,-0.1506201850563287
2024-12-07 20:07:18.908446700,10.35444677734375,-0.3917243586361408,0.2174082406938076,-0.0355358621530234
2024-12-07 20:07:18.918461000,10.3644609375,-0.3339315103590488,0.0086544310986995,0.0443546900331974
2024-12-07 20:07:18.928473900,10.374473876953124,-0.2037130389489233,-0.169144852784276,0.1365929748781025
2024-12-07 20:07:18.938487800,10.38448779296875,-0.0676001026727259,-0.3511754906266927,0.2784223891049623
2024-12-07 20:07:18.948501800,10.394501708984375,0.0365526379801332,-0.5209668246209621,0.393209482627362
2024-12-07 20:07:18.958515000,10.404514892578124,0.0983178970195352,-0.5666361043840646,0.524981467089802
2024-12-07 20:07:18.968529000,10.41452880859375,0.1492342836558818,-0.341049817931652,0.7597298419021069
2024-12-07 20:07:18.978542800,10.42454296875,0.0791958479203283,0.003121931412816,1.0510023602299392
2024-12-07 20:07:18.988556800,10.434556884765623,-0.1766517212830483,0.2013356422930955,1.302573567288369
2024-12-07 20:07:18.998570000,10.444570068359376,-0.512611668729782,0.1423579681456089,1.4278985675685107
2024-12-07 20:07:19.008583700,10.454583740234376,-0.6870682180561125,-0.2065197669327259,1.304221919017285
2024-12-07 20:07:19.018598000,10.464597900390626,-0.61530281239748,-0.6574526858627796,1.1276573645610362
2024-12-07 20:07:19.028611000,10.474611083984374,-0.4455142548821866,-0.985994904398918,0.9199984375305472
2024-12-07 20:07:19.038624800,10.484624755859375,-0.273510651665926,-1.0428004952043295,0.8265036498185246
2024-12-07 20:07:19.048638700,10.494638671875,-0.3509329140424728,-0.8511965578526258,0.7817728930145501
2024-12-07 20:07:19.058652000,10.50465185546875,-0.8611971428632735,-0.440163687634468,0.8326162144146859
2024-12-07 20:07:19.068665900,10.514665771484376,-1.300265436476469,-0.2412625790119171,0.8946472117181867
2024-12-07 20:07:19.078679800,10.5246796875,-1.0617499642156063,-0.4052291523754596,0.6416195953063667
2024-12-07 20:07:19.088693800,10.53469384765625,-0.6442271474562585,-0.7016402026355266,0.2794989322952926
2024-12-07 20:07:19.098707000,10.54470703125,-0.4202922814726829,-0.917439254567027,0.1366850370757281
2024-12-07 20:07:19.108721000,10.554720947265626,-0.3175147746957838,-0.956332172062993,0.3574233720403164
2024-12-07 20:07:19.118734800,10.56473486328125,-0.0518763177096843,-0.5175245752125979,1.0081320635356008
2024-12-07 20:07:19.128748000,10.574748046875,0.4199915449604391,0.4349281250685453,1.769279224889725
2024-12-07 20:07:19.138762000,10.584761962890624,0.6741011844553053,1.5744447811841964,2.212049441760778
2024-12-07 20:07:19.148776000,10.59477587890625,0.3378885774217546,2.4598995824694634,2.2743623978108167
2024-12-07 20:07:19.158788900,10.604788818359374,-0.475969014378637,2.753673854485154,1.932843793323636
2024-12-07 20:07:19.168803000,10.614802978515623,-1.1485843441903592,2.772816946372389,1.2422209515258669
2024-12-07 20:07:19.178816800,10.624816650390626,-1.5091221219241615,2.6501334005117414,0.3584024462055414
2024-12-07 20:07:19.188831000,10.6348310546875,-1.919091892955452,2.4280109907776115,-0.4448256150308996
2024-12-07 20:07:19.198844000,10.644843994140626,-2.1144446614466608,2.1954057654738426,-0.8136196913912892
2024-12-07 20:07:19.208857900,10.65485791015625,-1.9041253561005,1.990090698155761,-0.7242500938504934
2024-12-07 20:07:19.218871800,10.664871826171876,-1.585707202824205,1.7240210101455449,-0.4723856029339134
2024-12-07 20:07:19.228885000,10.674885009765624,-1.4713291284941137,1.387747320574522,-0.1498471548572182
2024-12-07 20:07:19.238899000,10.68489892578125,-1.5870447350382804,1.0417729057222604,0.269331027893722
2024-12-07 20:07:19.248913000,10.694912841796874,-1.6379495773673056,0.6001841537207364,0.7161875642303377
2024-12-07 20:07:19.258925800,10.70492578125,-1.4543150114595889,0.140474054095149,1.1416839171521365
2024-12-07 20:07:19.268940000,10.71493994140625,-1.0971873344302177,-0.2804834132879972,1.4933618043430148
2024-12-07 20:07:19.278953700,10.72495361328125,-0.6250117209851741,-0.6826070008635521,1.7342267623394727
2024-12-07 20:07:19.288968000,10.734968017578124,-0.0099509006500244,-1.0129337647289036,1.8586790714383123
2024-12-07 20:07:19.298980900,10.74498095703125,0.668136576962471,-1.2216156781315803,1.8932707846090195
2024-12-07 20:07:19.308994800,10.754994873046876,1.1043570799291134,-1.3307967683404682,1.8319510773800312
2024-12-07 20:07:19.319008800,10.7650087890625,1.0619359883069992,-1.219402678257227,1.6704435876064
2024-12-07 20:07:19.329022000,10.77502197265625,0.7139344515413045,-0.6290875921219587,1.4921373771145938
2024-12-07 20:07:19.339036000,10.785035888671874,0.4681640397161245,0.4003425493776798,1.2034133742257953
2024-12-07 20:07:19.349049900,10.7950498046875,0.5067179345160723,1.3330290574371817,0.7977695766348392
2024-12-07 20:07:19.359062800,10.805062744140624,1.0856465342402457,1.746872308900952,0.3803103266309947
2024-12-07 20:07:19.369077000,10.815076904296877,1.4229372918993233,1.8920073405444624,0.4216486645177006
2024-12-07 20:07:19.379090700,10.825090576171876,1.2822463801831006,1.8218699744790792,0.6928133375793695
2024-12-07 20:07:19.389105000,10.83510498046875,1.0927496442437172,1.349100486794114,0.8779853421874344
2024-12-07 20:07:19.399117800,10.845117919921876,0.9696511609066276,0.7369622759073973,0.8905892415642738
2024-12-07 20:07:19.409131800,10.8551318359375,0.8717156142681837,0.1976274354249239,0.7193503391101956
2024-12-07 20:07:19.419145700,10.865145751953126,0.7785743892341852,-0.2102110226660966,0.5335685320407152
2024-12-07 20:07:19.429159000,10.875158935546876,0.6745499511361122,-0.4919365449696778,0.4077291524976492
2024-12-07 20:07:19.439172900,10.8851728515625,0.485268903774023,-0.6612222675293684,0.446304236216098
2024-12-07 20:07:19.449186800,10.895186767578124,0.4005038043539971,-0.6759498810619116,0.743152654980123
2024-12-07 20:07:19.459201300,10.905201171875,0.3300846987377852,-0.5148772755742073,1.002945600808412
2024-12-07 20:07:19.469214500,10.91521435546875,0.1830331659484654,-0.3127309014201164,1.1025171511508525
2024-12-07 20:07:19.479228400,10.925228515625,0.0986925024855881,-0.0831301186293363,1.1654540843181311
2024-12-07 20:07:19.489242400,10.935242431640624,-0.013666706302762,0.1273696578502655,1.1225456475704907
2024-12-07 20:07:19.499255300,10.94525537109375,0.0931471433181315,0.3075537910431623,0.9155163236804306
2024-12-07 20:07:19.509269500,10.95526953125,0.551788079342246,0.4158060759693384,0.4726438154786825
2024-12-07 20:07:19.519283200,10.965283203125,0.9645475541573018,0.4495318199604749,-0.3078045509338378
2024-12-07 20:07:19.529296400,10.97529638671875,1.2289619492411612,0.3471680085510015,-1.2340227397620678
2024-12-07 20:07:19.539310300,10.985310302734376,1.0452199043709784,0.2296200720131397,-1.805367752489448
2024-12-07 20:07:19.549324300,10.99532421875,0.4661504348713904,0.0277186125308275,-1.8345923856690525
2024-12-07 20:07:19.559338200,11.005338134765625,0.1945212861031293,-0.2188368121922016,-1.5489698559269307
2024-12-07 20:07:19.569351400,11.015351318359375,0.4839788639634847,-0.5052969618022441,-1.4758908834517002
2024-12-07 20:07:19.579365400,11.025365478515624,1.183710018107295,-0.7140735677510499,-1.616382765464485
2024-12-07 20:07:19.589379300,11.03537939453125,1.4932698882758615,-0.8571066586792468,-1.6663713697314262
2024-12-07 20:07:19.599392500,11.045392578125,0.5585043819852173,-0.8577952254652976,-1.525355171583593
2024-12-07 20:07:19.609406500,11.055406494140623,-0.3459457732796668,-0.7784072159737349,-1.3737301933988928
2024-12-07 20:07:19.619420400,11.06542041015625,0.022333412361145,-0.7913958768844604,-1.6277333037793635
2024-12-07 20:07:19.629433300,11.075433349609376,0.7806342443734406,-0.8709142347574234,-1.9671005754515527
2024-12-07 20:07:19.639447600,11.085447509765626,1.298308311059326,-0.8990624708771705,-1.9491496159583328
2024-12-07 20:07:19.649461200,11.095461181640625,1.5187586959280073,-0.9381436044216156,-1.9473525034084915
2024-12-07 20:07:19.659475200,11.10547509765625,1.4396834056474268,-0.9627654199808836,-2.155370399944484
2024-12-07 20:07:19.669488400,11.11548828125,0.7507092078395188,-0.9358885189712048,-2.103411956909299
2024-12-07 20:07:19.679502600,11.125502685546875,-0.2008376296430826,-0.9443149865329266,-1.908544633847475
2024-12-07 20:07:19.689516300,11.135516357421874,-0.4576403076142072,-1.15171562795341,-1.862869508865476
2024-12-07 20:07:19.699529500,11.145529541015623,-0.5839424823634326,-1.5519582240879537,-1.942467069454491
2024-12-07 20:07:19.709543400,11.15554345703125,-0.5114790114380419,-1.9492717810332767,-2.2011185901626944
2024-12-07 20:07:19.719557400,11.165557373046877,-0.3001876461893319,-2.030163180825114,-2.4178227742403746
2024-12-07 20:07:19.729570300,11.1755703125,-0.5827250693976879,-1.851403527477384,-2.2256635410934686
2024-12-07 20:07:19.739584500,11.18558447265625,-0.6299256503812969,-1.6308838767647742,-1.7259034628912806
2024-12-07 20:07:19.749598200,11.19559814453125,0.0504283108584582,-1.3661042285650968,-1.1761389983311294
2024-12-07 20:07:19.759612400,11.2056123046875,1.1539181064337491,-1.2026245619356632,-0.7580830976083874
2024-12-07 20:07:19.769625300,11.215625244140623,2.055093039420247,-1.133371577489376,-0.5745078606724738
2024-12-07 20:07:19.779639600,11.2256396484375,2.577031923943758,-1.1993231823027133,-0.4950874102160334
2024-12-07 20:07:19.789653200,11.2356533203125,2.3189175788521763,-1.4386995091766115,-0.5955053482547402
2024-12-07 20:07:19.799666400,11.24566650390625,1.6448901902854445,-1.5982359911382198,-0.8332572887971996
2024-12-07 20:07:19.809680400,11.255680419921877,0.7703146565414964,-1.3458622355252503,-0.9030950873941184
2024-12-07 20:07:19.819694300,11.2656943359375,0.0051760874636471,-0.3254448370426893,-0.7058651268541812
2024-12-07 20:07:19.829707300,11.275707275390625,-0.7650367892038077,2.2360610164672137,-0.2516331663787365
2024-12-07 20:07:19.839721500,11.285721435546876,-1.6585175874911249,5.811122565996646,0.6739937785580754
2024-12-07 20:07:19.849735400,11.2957353515625,-2.1106718649096785,8.195185109454393,2.302991695445776
2024-12-07 20:07:19.859749400,11.305749267578124,-0.996331004974246,9.298745486047864,4.526833866330981
2024-12-07 20:07:19.869762300,11.31576220703125,0.849941004833579,7.606457584771514,4.744160858482122
2024-12-07 20:07:19.879776500,11.325776611328124,1.7622598476469515,2.454001172080636,1.415146199631691
2024-12-07 20:07:19.889790200,11.335790283203124,1.3651391829252242,-0.42691842161417,-2.1017864015340804
2024-12-07 20:07:19.899803400,11.345803466796877,-0.1482722336906939,-1.7905524606734513,-4.486206672388315
2024-12-07 20:07:19.909817300,11.3558173828125,-0.5870061807829886,-2.7110107708007094,-6.026107963457704
2024-12-07 20:07:19.919831300,11.365831298828123,0.5703712723243981,-2.95262289390266,-6.210327635776996
2024-12-07 20:07:19.929845200,11.37584521484375,1.9614152232915163,-2.620315769875049,-5.241420644301176
2024-12-07 20:07:19.939858400,11.3858583984375,2.44095581254661,-1.712683623573184,-3.347730172975361
2024-12-07 20:07:19.949872400,11.395872314453126,2.0901088232219216,-0.4945306531161069,-1.2851467777997254
2024-12-07 20:07:19.959886300,11.40588623046875,1.1809656878352164,0.506817303237319,0.1005985553026199
2024-12-07 20:07:19.969899500,11.4158994140625,0.0201893860697746,1.24642103356421,0.9138447372063994
2024-12-07 20:07:19.979913500,11.42591357421875,-0.6695873602926731,1.5288357071757317,1.3816741381406783
2024-12-07 20:07:19.989927200,11.43592724609375,-0.5999269640892744,1.198451075643301,1.206468377882242
2024-12-07 20:07:19.999940400,11.4459404296875,-0.36489531535618,0.4773807808727026,0.3583995966613292
