time,seconds_elapsed,z,y,x
2024-12-07 20:29:19.172297200,0.019297119140625,0.2295715566962957,-0.1595201153486967,-0.2200514486789703
2024-12-07 20:29:19.182311400,0.0293115234375,0.1371469554990529,-0.0601174918323755,-0.2207031905859708
2024-12-07 20:29:19.192325400,0.039325439453125,0.0723806880127638,0.0122509942859411,-0.2784001772731542
2024-12-07 20:29:19.202339300,0.04933935546875,0.0907541107017546,-0.0695101740777492,-0.1596434494674205
2024-12-07 20:29:19.212352300,0.059352294921875,0.1189450169194489,-0.2818015101492405,0.1297971772581339
2024-12-07 20:29:19.222366200,0.0693662109375,0.0476117190677672,-0.5255535678893327,0.4140361436873674
2024-12-07 20:29:19.232380400,0.07938037109375,0.0714449415326118,-0.5551958419591189,0.4522124373465776
2024-12-07 20:29:19.242393300,0.089393310546875,0.1035462991923093,-0.3231003197431564,0.3543926991075277
2024-12-07 20:29:19.252407300,0.0994072265625,0.1049140073489397,-0.3813537712693214,0.1321884563088416
2024-12-07 20:29:19.262421200,0.109421142578125,0.340911870765686,-0.9689128366947174,-0.2937491375744342
2024-12-07 20:29:19.272434200,0.11943408203125,0.6186211431652308,-1.6607774952471257,-0.4231365649878978
2024-12-07 20:29:19.282448400,0.129448486328125,0.4520469445865601,-2.1616583941727874,-0.8476397421538829
2024-12-07 20:29:19.292462300,0.13946240234375,0.2323555613916367,-1.817353373837471,-1.1422551411688326
2024-12-07 20:29:19.302475300,0.149475341796875,0.1457979159990325,-0.791911425191164,-1.406709210675955
2024-12-07 20:29:19.312489200,0.1594892578125,0.0844441603699699,-0.3832768482863903,-1.3755343202114103
2024-12-07 20:29:19.322503400,0.16950341796875,-0.0286591082513332,0.0035568156987428,-1.055414477583766
2024-12-07 20:29:19.332516400,0.179516357421875,0.1125836286613717,0.0860503899902105,-0.6192664553314448
2024-12-07 20:29:19.342530300,0.1895302734375,0.4132429109504446,-0.1432914496034383,-0.2511269704222679
2024-12-07 20:29:19.352544300,0.199544189453125,0.1213514204740524,-0.931522140455246,0.1019891328781843
2024-12-07 20:29:19.362557400,0.209557373046875,-0.2322486669510602,-1.4031938960313797,0.226253225928545
2024-12-07 20:29:19.372571100,0.219571044921875,-0.2717804668724536,-1.542721609187126,-0.2754050871104002
2024-12-07 20:29:19.382585300,0.22958544921875,-0.4630073510726913,-1.078838607791066,-0.9429325922638178
2024-12-07 20:29:19.392598300,0.239598388671875,-0.499964916591905,-0.6754086137920617,-1.471307062792778
2024-12-07 20:29:19.402612200,0.2496123046875,-0.41636254080832,-0.5039648364156484,-1.8093556530818344
2024-12-07 20:29:19.412626200,0.259626220703125,-0.2671154342034831,-0.7230196752727032,-1.815838585360348
2024-12-07 20:29:19.422639400,0.269639404296875,-0.0118061548615805,-1.27497375883162,-1.1803475559368728
2024-12-07 20:29:19.432653300,0.2796533203125,0.2442868952691554,-1.6621967143952845,-0.2493099841281771
2024-12-07 20:29:19.442667300,0.289667236328125,0.338373255666159,-1.3097925587564705,0.1981584735617041
2024-12-07 20:29:19.452681200,0.29968115234375,0.3615080840706825,-1.2900123380094766,0.6094318745374679
2024-12-07 20:29:19.462694400,0.3096943359375,0.2711778248041868,-1.2582494185239077,0.8467614980146289
2024-12-07 20:29:19.472708400,0.319708251953125,0.3290051598727703,-1.1960276478886605,0.8334501810207963
2024-12-07 20:29:19.482722300,0.329722412109375,0.3232803524851799,-1.1652239288240671,0.6090230014756322
2024-12-07 20:29:19.492735500,0.339735595703125,0.3298042012959719,-1.0890297469377517,0.3284995484381914
2024-12-07 20:29:19.502749200,0.349749267578125,0.3792722888201475,-0.964273486456275,-0.0798544579595327
2024-12-07 20:29:19.512763100,0.35976318359375,0.3366939608097076,-1.0366975021541118,-0.4134115820482373
2024-12-07 20:29:19.522776300,0.3697763671875,0.1871300068080425,-1.2025585109621286,-0.7363596338391304
2024-12-07 20:29:19.532790500,0.37979052734375,0.0730722504734993,-1.364240772780776,-0.9216258926019072
2024-12-07 20:29:19.542804200,0.38980419921875,0.0488157610952854,-1.5563240180820226,-1.0844389120161533
2024-12-07 20:29:19.552817400,0.3998173828125,0.0857248204308096,-1.6449883899629114,-1.3446478912994264
2024-12-07 20:29:19.562831400,0.409831298828125,-0.0643196014310233,-1.625188879993558,-1.39148124640584
2024-12-07 20:29:19.572845300,0.41984521484375,-0.1836345476414076,-1.766196018052101,-1.2199421919614075
2024-12-07 20:29:19.582858200,0.429858154296875,0.024388591325283,-1.2594576252698897,-0.7174303308330476
2024-12-07 20:29:19.592872400,0.43987255859375,0.0021475334227085,1.0288426970005036,0.0755827719897031
2024-12-07 20:29:19.602886400,0.449886474609375,-0.2376092806687578,3.600658347600698,1.2960945805326105
2024-12-07 20:29:19.612899300,0.4598994140625,-0.5314905932554975,7.294823830938339,2.7734780406296253
2024-12-07 20:29:19.622913300,0.469913330078125,-0.7460440655726939,10.266806674349308,3.271198429697752
2024-12-07 20:29:19.632927500,0.479927490234375,-1.0243535688877106,11.448643299800157,2.282904308445751
2024-12-07 20:29:19.642941200,0.489941162109375,-1.222078619468212,8.780508963173627,-0.703140962587297
2024-12-07 20:29:19.652954400,0.499954345703125,-1.0551952818751336,2.7210347366869447,-2.298127304279804
2024-12-07 20:29:19.662968300,0.50996826171875,-0.4716635722696781,-0.2567097389906644,-1.1244472434081136
2024-12-07 20:29:19.672982300,0.519982177734375,-0.2811772042384371,-1.5412258176714182,-0.2651471663378179
2024-12-07 20:29:19.682995200,0.5299951171875,-0.451594634241797,-1.8642028032958504,-0.0606852087177336
2024-12-07 20:29:19.693009400,0.540009521484375,-0.3791337571322917,-1.5183563987374304,-0.1621997098214924
2024-12-07 20:29:19.703023400,0.5500234375,-0.0032756972024217,-1.0562865842431783,-0.1986002259798348
2024-12-07 20:29:19.713036300,0.560036376953125,0.0434872595489025,-0.5690998641490936,-0.1589969682574272
2024-12-07 20:29:19.723050200,0.57005029296875,-0.1092003794312477,-5.78676670789e-05,-0.1061697795636951
2024-12-07 20:29:19.733064400,0.580064453125,-0.1903168566832318,0.3500491169452667,-0.0660097647413611
2024-12-07 20:29:19.743077400,0.590077392578125,-0.1670949710497632,0.420265977987647,-0.0810360689595341
2024-12-07 20:29:19.753091300,0.60009130859375,-0.1122726630160585,0.4338385762661695,-0.2373585573107004
2024-12-07 20:29:19.763105300,0.610105224609375,-0.0755833930442109,0.47460663998425,-0.5108494813628495
2024-12-07 20:29:19.773118200,0.6201181640625,-0.1326116501569748,0.3910802155137062,-0.6916453167133033
2024-12-07 20:29:19.783132400,0.63013232421875,-0.2981716667244211,0.1457867735505104,-0.6837761907733977
2024-12-07 20:29:19.793146400,0.640146484375,-0.3239057909071445,-0.0497539187282323,-0.4886395492509007
2024-12-07 20:29:19.803159300,0.6501591796875,-0.3232137535223737,-0.138566174647212,-0.3522980649158358
2024-12-07 20:29:19.813173200,0.66017333984375,-0.1606079836506396,-0.2067372090756893,-0.2973733194209635
2024-12-07 20:29:19.823187500,0.6701875,0.0321323373198509,-0.2960989155709743,-0.2920378036119043
2024-12-07 20:29:19.833200000,0.6802001953125,0.1982253647854551,-0.3755763569116592,-0.2666990719549357
2024-12-07 20:29:19.843214300,0.69021435546875,0.3553226003687829,-0.2940577651321888,-0.08505348790735
2024-12-07 20:29:19.853228300,0.700228271484375,0.3311199600696563,-0.1363689568638801,0.1064566336810588
2024-12-07 20:29:19.863241500,0.710241455078125,0.0176888014256954,-0.0542208350092172,0.1973456958740949
2024-12-07 20:29:19.873255200,0.720255126953125,-0.2518295657336711,-0.0405798476696014,0.2607302266784012
2024-12-07 20:29:19.883269400,0.730269287109375,-0.3325975948741659,-0.0552443328380584,0.2829420584864914
2024-12-07 20:29:19.893283300,0.740283447265625,-0.3425217171151191,-0.1016360816568136,0.2429706981040537
2024-12-07 20:29:19.903296300,0.750296142578125,-0.3157692827353254,-0.1072077443093061,0.2123974267944693
2024-12-07 20:29:19.913310200,0.760310302734375,-0.2581471148500219,-0.0755693279862403,0.1816485066570341
2024-12-07 20:29:19.923324400,0.770324462890625,-0.1839642362534999,-0.1219184067070484,0.1148835396341979
2024-12-07 20:29:19.933337000,0.780337158203125,-0.1241092312822118,-0.190001178330183,-0.0067063657708466
2024-12-07 20:29:19.943351000,0.79035107421875,-0.0833902308702468,-0.2276373737633228,-0.0171425657197833
2024-12-07 20:29:19.953365000,0.800364990234375,-0.0509703818459063,-0.1897632779210805,0.0863970114707946
2024-12-07 20:29:19.963378000,0.8103779296875,0.0113164168495684,-0.1254968497157096,0.2191920553706586
2024-12-07 20:29:19.973392100,0.82039208984375,0.1329178665619343,-0.0903682531893253,0.3095981563523411
2024-12-07 20:29:19.983406000,0.830406005859375,0.2419335005434229,-0.1166939500570297,0.3429363623306155
2024-12-07 20:29:19.993419300,0.840419189453125,0.2389185366364195,-0.145931150457263,0.3405360231906175
2024-12-07 20:29:20.003433000,0.850432861328125,0.0670422130616381,-0.1380827750444412,0.314565861762315
2024-12-07 20:29:20.013447200,0.860447265625,-0.1971230660993605,-0.1433516553580761,0.2876030360348522
2024-12-07 20:29:20.023460000,0.870460205078125,-0.4347194872865453,-0.1615443146526813,0.3236898100689053
2024-12-07 20:29:20.033474000,0.88047412109375,-0.515592839965038,-0.1515899068713188,0.367270008598268
2024-12-07 20:29:20.043488000,0.890488037109375,-0.4868552961826324,-0.1555178939700126,0.3184600927218795
2024-12-07 20:29:20.053501200,0.900501220703125,-0.3882511295676231,-0.143331197091937,0.1946130560398101
2024-12-07 20:29:20.063515100,0.91051513671875,-0.2034673205595463,-0.081114687153697,0.0345437823757529
2024-12-07 20:29:20.073529000,0.920529052734375,-0.0429109209656715,-0.0182505269616842,-0.0859472218766808
2024-12-07 20:29:20.083542000,0.9305419921875,0.0919406901378184,-0.0268652105718851,-0.1034497069500386
2024-12-07 20:29:20.093556200,0.94055615234375,0.276263822831586,-0.0439981316804885,-0.0697528967924416
2024-12-07 20:29:20.103570000,0.95056982421875,0.358567938965559,-0.058685997724533,-0.0388040701687335
2024-12-07 20:29:20.113583000,0.9605830078125,0.3648948038995265,-0.0992623382627964,0.047784226090461
2024-12-07 20:29:20.123597000,0.97059716796875,0.4418962835807353,-0.1309258890271186,0.08887684558779
2024-12-07 20:29:20.133611000,0.980611083984375,0.480457119578123,-0.1030412722796201,-0.0351668827101588
2024-12-07 20:29:20.143625000,0.990625,0.5094131649494171,-0.0574450577527284,-0.2898838404484093
2024-12-07 20:29:20.153638100,1.00063818359375,0.3563023321211337,0.0307516966164112,-0.5222432742975652
2024-12-07 20:29:20.163652000,1.010652099609375,0.0757365743119269,0.1305780985027551,-0.5965412671737372
2024-12-07 20:29:20.173666000,1.020666015625,-0.107739001641795,0.1534323198676109,-0.4844004503764212
2024-12-07 20:29:20.183679000,1.030678955078125,-0.0691314769584685,0.0499491490393877,-0.2748981605015695
2024-12-07 20:29:20.193693200,1.040693115234375,0.177896825973317,-0.0969984849840402,-0.056432227448374
2024-12-07 20:29:20.203707000,1.050706787109375,0.4996433930199593,-0.2312263381659984,0.1510819573491811
2024-12-07 20:29:20.213720000,1.060719970703125,0.7268633450888097,-0.2795511008739471,0.3452842406310141
2024-12-07 20:29:20.223734000,1.070734130859375,0.7331834149558096,-0.2395405775249004,0.517816105505079
2024-12-07 20:29:20.233748000,1.080748046875,0.6013116964459418,-0.2186561949282884,0.6155743228152394
2024-12-07 20:29:20.243761200,1.09076123046875,0.3363245429754257,-0.2011252144128084,0.6120591543011367
2024-12-07 20:29:20.253775000,1.100775146484375,0.2002806533474475,-0.166681093019247,0.477994382726401
2024-12-07 20:29:20.263789000,1.1107890625,0.1589150621276348,-0.0683545743018388,0.312065715509653
2024-12-07 20:29:20.273802000,1.120802001953125,0.1880161419928074,0.0295861599683761,0.1705795617625117
2024-12-07 20:29:20.283816200,1.130816162109375,0.2684171279191971,0.0444353540539741,0.0512198996275663
2024-12-07 20:29:20.293830100,1.140830078125,0.4699461738925427,0.020300445228815,-0.0182120946474373
2024-12-07 20:29:20.303843000,1.150843017578125,0.6864707636196166,-0.0497410592466592,-0.0089138126872479
2024-12-07 20:29:20.313857000,1.16085693359375,0.8387445611018687,-0.179230777990818,0.0937577494971454
2024-12-07 20:29:20.323871200,1.170871337890625,0.8798644339323043,-0.2965951746553182,0.2108349997833371
2024-12-07 20:29:20.333884000,1.1808837890625,0.8080967632513493,-0.3655798635542392,0.3155100107446312
2024-12-07 20:29:20.343898000,1.190898193359375,0.7711457005381583,-0.359449982497096,0.3330710941374302
2024-12-07 20:29:20.353912000,1.200912109375,0.6754466077148914,-0.1875496935248375,0.1223572365157306
2024-12-07 20:29:20.363925000,1.210925048828125,0.4676817360918968,0.0666419251650571,-0.2091099295563995
2024-12-07 20:29:20.373939000,1.22093896484375,0.1512543182414025,0.2652151170074939,-0.4796674305051565
2024-12-07 20:29:20.383953200,1.230953125,-0.1686006629049778,0.3736328216284513,-0.5691739522986113
2024-12-07 20:29:20.393966000,1.240966064453125,-0.3142307845890522,0.4185819704234599,-0.4992755095556378
2024-12-07 20:29:20.403980000,1.25097998046875,-0.2444681701201945,0.3377297335982323,-0.3418674179248511
2024-12-07 20:29:20.413994000,1.260993896484375,-0.0112263274133205,0.1453004513382911,-0.2011363203287124
2024-12-07 20:29:20.424007200,1.271007080078125,0.2426491379994899,-0.0854062468677759,-0.1487207811757922
2024-12-07 20:29:20.434021000,1.281021240234375,0.3913817557435483,-0.2709644743144512,-0.1741715949051082
2024-12-07 20:29:20.444035000,1.29103515625,0.3398737598896026,-0.2628606628358364,-0.2358651038825512
2024-12-07 20:29:20.454048300,1.30104833984375,0.2344693386752158,-0.1965986768990755,-0.2606326115228236
2024-12-07 20:29:20.464062000,1.31106201171875,0.1714157203257083,-0.1073725794821977,-0.2205886242955922
2024-12-07 20:29:20.474076200,1.321076171875,0.1836882688563317,-0.0024286884516477,-0.1736322273313999
2024-12-07 20:29:20.484090000,1.331090087890625,0.2321427954237908,0.02094400382936,-0.0529971384331584
2024-12-07 20:29:20.494103000,1.34110302734375,0.259596546473354,-0.0335194077640771,0.1356599318116903
2024-12-07 20:29:20.504117000,1.351116943359375,0.4670574667137115,-0.0877028333723545,0.3564671672940254
2024-12-07 20:29:20.514131000,1.361130859375,0.842778785054013,-0.1193850888371467,0.5194178416132926
2024-12-07 20:29:20.524144000,1.37114404296875,1.0805330636840311,-0.1295347269296646,0.5466578768469393
2024-12-07 20:29:20.534158000,1.381157958984375,1.1009084007799623,-0.0840524941712617,0.4365178784780204
2024-12-07 20:29:20.544172000,1.391172119140625,1.0932581782877444,-0.0177934308439493,0.2147531961403787
2024-12-07 20:29:20.554185200,1.401185302734375,0.8659961406428366,0.0460825367391109,-0.1267453884720802
2024-12-07 20:29:20.564199000,1.411198974609375,0.4924748896300792,0.085294018664956,-0.3908506445415318
2024-12-07 20:29:20.574213000,1.421213134765625,0.1823018559992313,0.0554015692263841,-0.5675803994968533
2024-12-07 20:29:20.584226000,1.43122607421875,0.1287292557656764,0.0727110159456729,-0.7661262649409473
2024-12-07 20:29:20.594240300,1.441240234375,0.2037935568392276,0.0953887116998434,-0.9950478332959116
2024-12-07 20:29:20.604254000,1.45125390625,0.3039174803674221,0.0696679949879646,-1.150243071182817
2024-12-07 20:29:20.614267100,1.46126708984375,0.3217372146964073,0.0323696532070636,-1.177713261910528
2024-12-07 20:29:20.624281000,1.471281005859375,0.2281061603188514,-0.0176057993173599,-1.0089106466926634
2024-12-07 20:29:20.634295000,1.481294921875,0.036865868647769,-0.1250134501129388,-0.7018177511595189
2024-12-07 20:29:20.644308000,1.491307861328125,-0.0723732353586703,-0.226029354044795,-0.3333886356540024
2024-12-07 20:29:20.654322200,1.501322265625,-0.1346435213107615,-0.2491968791425228,-0.019460341142863
2024-12-07 20:29:20.664336000,1.5113359375,-0.1681670937933027,-0.2775041052162647,0.2040399328157305
2024-12-07 20:29:20.674349000,1.52134912109375,-0.2535200030386448,-0.3152040135353803,0.4266137395791709
2024-12-07 20:29:20.684363000,1.531363037109375,-0.3984137002069502,-0.359714770913124,0.6878511851273477
2024-12-07 20:29:20.694377200,1.541377197265625,-0.5517090958219021,-0.3124912474453449,0.9257564165353774
2024-12-07 20:29:20.704390100,1.55139013671875,-0.6492284628748893,-0.1361240421921014,1.2156528242044151
2024-12-07 20:29:20.714404000,1.561404052734375,-0.6399766504049301,0.119765028065443,1.487795256257057
2024-12-07 20:29:20.724418000,1.57141796875,-0.479334910615161,0.3132879507809877,1.725400481805205
2024-12-07 20:29:20.734431000,1.581430908203125,-0.3402233770448714,0.4698316806674003,1.9840942342199384
2024-12-07 20:29:20.744445200,1.591445068359375,-0.4627322239257395,0.6143184775352478,2.2208039722330866
2024-12-07 20:29:20.754459100,1.601459228515625,-0.8602735252123326,0.7293167295902967,2.4101518012210725
2024-12-07 20:29:20.764472000,1.61147216796875,-1.3203519466936589,0.8864759610265492,2.561298348239064
2024-12-07 20:29:20.774486000,1.621486083984375,-1.4599275906443594,1.080399865758419,2.5910721397340297
2024-12-07 20:29:20.784500200,1.631500244140625,-1.256823769634962,1.1744786639034748,2.3170925553821027
2024-12-07 20:29:20.794514200,1.64151416015625,-0.891708016461134,1.133640457558632,1.758249150700867
2024-12-07 20:29:20.804527000,1.651527099609375,-0.4788192892432212,0.9537889173209668,1.1482891606360672
2024-12-07 20:29:20.814541000,1.661541015625,-0.3440683620352298,0.8152437854617833,0.6655731562152505
2024-12-07 20:29:20.824555300,1.67155517578125,-0.8203437389492988,0.7481196297377347,0.1322808107674122
2024-12-07 20:29:20.834568000,1.68156787109375,-1.4028152719773352,0.8107716084837913,-0.2270376543045043
2024-12-07 20:29:20.844582100,1.69158203125,-1.9298165544569488,0.9174632199645042,-0.2411116262339055
2024-12-07 20:29:20.854596000,1.70159619140625,-3.0453309882164,0.9208739051908256,-0.0508136569142341
2024-12-07 20:29:20.864609000,1.711609130859375,-3.9553731182694434,0.6369885745048522,0.1839187896765768
2024-12-07 20:29:20.874623000,1.721623046875,-2.8984546658635137,0.0330225641578435,0.4506877119973301
2024-12-07 20:29:20.884637200,1.73163720703125,0.4123041687956079,-0.6920633959949016,0.1835543402783572
2024-12-07 20:29:20.894649900,1.74164990234375,3.775190738642216,-1.2376520361751318,-0.3486738830693066
2024-12-07 20:29:20.904664000,1.7516640625,5.392182868176699,-1.5867390300899744,-0.4431558551877737
2024-12-07 20:29:20.914678000,1.761677978515625,4.259312810468673,-1.8600760787546635,-0.2963600507251918
2024-12-07 20:29:20.924691000,1.77169091796875,1.0848819796085356,-1.6421125422656535,-0.3805126442700624
2024-12-07 20:29:20.934705000,1.781704833984375,-0.98712887686491,-0.9075579120218752,-0.9802107680395244
2024-12-07 20:29:20.944719600,1.7917197265625,-1.0015899484157562,-0.4581868355810642,-1.3608816716112195
2024-12-07 20:29:20.954732500,1.801732666015625,0.181636670088768,-0.2763216174334287,-1.4446845749355852
2024-12-07 20:29:20.964746500,1.81174658203125,0.8676374050438403,-0.0916787512660026,-1.4786064260207117
2024-12-07 20:29:20.974760400,1.821760498046875,0.8938099571764468,-0.0736480045348405,-1.4831645277164875
2024-12-07 20:29:20.984773400,1.8317734375,0.5157634107589721,-0.2070768162935972,-1.4353326630920171
2024-12-07 20:29:20.994787300,1.841787353515625,-0.0162976758608594,-0.4580488884150981,-1.2949544705867766
2024-12-07 20:29:21.004801500,1.851801513671875,-0.9724293203830718,-0.6772440125256777,-1.102208231332153
2024-12-07 20:29:21.014814500,1.861814453125,-1.8913456617653368,-0.7490683087646961,-0.8981538315996527
2024-12-07 20:29:21.024828400,1.871828369140625,-2.4087433957278725,-0.7593243298411368,-0.568799858289212
2024-12-07 20:29:21.034842400,1.88184228515625,-2.451242813283205,-1.021727312037349,-0.0823338536851108
2024-12-07 20:29:21.044855300,1.891855224609375,-1.6996365104734896,-1.6279565911412237,0.3777370420768857
2024-12-07 20:29:21.054869500,1.901869384765625,-0.6639747811079025,-2.3946961656749246,0.5927616025045513
2024-12-07 20:29:21.064883500,1.911883544921875,-0.4111632185995578,-3.1933570651263,0.4370303580448031
2024-12-07 20:29:21.074896400,1.921896484375,-0.6740623868148774,-3.780446759474277,0.181204854542762
2024-12-07 20:29:21.084910300,1.931910400390625,-0.7152607317090034,-3.572110883030295,0.0832319715686142
2024-12-07 20:29:21.094924500,1.941924560546875,-0.8925777850329876,-2.450857028836012,-0.0039665655434131
2024-12-07 20:29:21.104937500,1.9519375,-1.2301239787578582,-0.966399392569065,-0.0508434675306081
2024-12-07 20:29:21.114951400,1.961951416015625,-0.5010719645183533,0.5655535698443651,0.2939896683320402
2024-12-07 20:29:21.124965400,1.97196533203125,1.5910568932890892,1.776703383541107,0.4827691959127783
2024-12-07 20:29:21.134978600,1.981978515625,3.303842808192968,2.328383326333761,0.2780579397067427
2024-12-07 20:29:21.144992300,1.9919921875,3.406912722045183,2.338774956488609,-0.0485322679787874
2024-12-07 20:29:21.155006500,2.00200634765625,2.170376538157463,2.6490385910123586,-0.7917644179359078
2024-12-07 20:29:21.165020400,2.0120205078125,0.1589291637182235,3.5286569412291047,-1.4283061254560947
2024-12-07 20:29:21.175033300,2.022033447265625,-1.1333621520739048,4.055333375668526,-1.195196457761526
2024-12-07 20:29:21.185047300,2.03204736328125,-0.4556487684708088,3.598978431689739,-0.3215840699613094
2024-12-07 20:29:21.195061500,2.0420615234375,1.1178794093251228,2.2804572075545786,-0.2080745951592922
2024-12-07 20:29:21.205074400,2.052074462890625,1.3855752372324466,0.5781237130820751,-0.9414153195686638
2024-12-07 20:29:21.215088400,2.06208837890625,1.046798040407896,-0.9037865767896176,-1.913148182120174
2024-12-07 20:29:21.225102300,2.072102294921875,0.8982815496325492,-1.6226888798713683,-2.51420546541363
2024-12-07 20:29:21.235115500,2.082115478515625,0.8762216935157775,-1.693804151058197,-2.8252012136042115
2024-12-07 20:29:21.245129500,2.09212939453125,0.9050245941519736,-1.3478905264824628,-3.150257343590259
2024-12-07 20:29:21.255143400,2.102143310546875,0.9027028732061384,-0.7521990080058574,-3.20962927775234
2024-12-07 20:29:21.265156600,2.112156494140625,0.8303250347375869,-0.1117822126179933,-2.7968735292643307
2024-12-07 20:29:21.275170300,2.12217041015625,0.6651695438504218,0.4654366605788469,-2.0363024142324924
2024-12-07 20:29:21.285184300,2.132184326171875,0.5144376785805449,0.7141384496808052,-0.929028570073843
2024-12-07 20:29:21.295197400,2.142197509765625,0.3709189595598727,0.5914888060897588,0.2756236982971429
2024-12-07 20:29:21.305211600,2.152211669921875,0.2567418876945972,0.195586869508028,1.3441152457274497
2024-12-07 20:29:21.315225300,2.162225341796875,0.3159399265944957,-0.2172632792651653,2.2002526209831235
2024-12-07 20:29:21.325238500,2.172238525390625,0.4592997287264093,-0.4821726913243532,2.7190058612078425
2024-12-07 20:29:21.335252500,2.18225244140625,0.2530745608260855,-0.5395896920263767,2.667633401367068
2024-12-07 20:29:21.345266400,2.192266357421875,0.0788531354298815,-0.3999298769235611,2.133636707042158
2024-12-07 20:29:21.355279400,2.202279296875,0.0137386755604296,-0.2081225259542465,1.5808905963227151
2024-12-07 20:29:21.365293600,2.21229345703125,-0.1115034322092309,-0.0537508794099092,1.1161208752200007
2024-12-07 20:29:21.375307500,2.2223076171875,-0.2479367230135947,-0.0006745382606983,0.7721591153644025
2024-12-07 20:29:21.385320400,2.232320556640625,-0.3523370086867362,-0.041958734807372,0.5564379509747028
2024-12-07 20:29:21.395334400,2.24233447265625,-0.3522035915654152,-0.1749544158458709,0.5464063863039016
2024-12-07 20:29:21.405348600,2.2523486328125,-0.220533094716072,-0.315351897573471,0.5952750466302037
2024-12-07 20:29:21.415361300,2.262361328125,-0.0370201093614101,-0.3520703936398029,0.6602429011031985
2024-12-07 20:29:21.425375500,2.27237548828125,-0.0766752434015274,-0.2924415621072054,0.6718121967352927
2024-12-07 20:29:21.435389400,2.282389404296875,-0.3866307618241757,-0.1730617339670658,0.6551027617357671
2024-12-07 20:29:21.445402400,2.29240234375,-0.5570447577614337,-0.0681295333743095,0.6273948167294263
2024-12-07 20:29:21.455416300,2.302416259765625,-0.418606593408063,0.0282709857165813,0.6398172220595181
2024-12-07 20:29:21.465430500,2.312430419921875,-0.195924796225503,0.0807628049761056,0.6519143409579992
2024-12-07 20:29:21.475443500,2.322443359375,-0.1258616644401103,0.0383300229161977,0.582861993650347
2024-12-07 20:29:21.485457400,2.33245751953125,-0.2595592832028865,-0.0902168620198965,0.5267978688620031
2024-12-07 20:29:21.495471400,2.342471435546875,-0.5040764800965786,-0.2383352933883666,0.4737545531995594
2024-12-07 20:29:21.505484300,2.352484375,-0.7564590035378933,-0.245037421375513,0.5312137856081128
2024-12-07 20:29:21.515498500,2.36249853515625,-0.8841291056394577,0.0321165552288293,0.7764287555076181
2024-12-07 20:29:21.525512400,2.372512451171875,-0.9629553895950316,0.3323527167350054,1.221941695215553
2024-12-07 20:29:21.535526400,2.3825263671875,-1.084829372638464,0.2958902412563562,1.680472960320115
2024-12-07 20:29:21.545539300,2.392539306640625,-1.3474807766377923,-0.1036544357419013,2.084909939404577
2024-12-07 20:29:21.555553500,2.402553466796875,-1.763148320919275,-0.5174041637033224,2.520423317015171
2024-12-07 20:29:21.565567500,2.4125673828125,-2.182954280179739,-0.3937666781187057,3.1498020010381933
2024-12-07 20:29:21.575580400,2.422580322265625,-2.0374585985302924,0.3325087840795517,3.824650642859936
2024-12-07 20:29:21.585594400,2.432594482421875,-1.3259902448415757,1.2208698282003403,4.1417140205264085
2024-12-07 20:29:21.595608600,2.442608642578125,-1.2272715119361877,2.0186516067296267,4.310967594382166
2024-12-07 20:29:21.605621200,2.452621337890625,-2.371178511965274,2.377204932647943,4.147420999996364
2024-12-07 20:29:21.615635500,2.462635498046875,-4.069941746735573,2.4134920515596865,3.0410718694671988
2024-12-07 20:29:21.625649400,2.4726494140625,-4.223500323331356,2.095192410096526,0.8992385580964386
2024-12-07 20:29:21.635662600,2.48266259765625,-1.7442741091012954,1.4687421807408332,-1.0132339167192577
2024-12-07 20:29:21.645676300,2.49267626953125,1.888721158480644,0.8567255504071712,-1.7278890837505458
2024-12-07 20:29:21.655690500,2.5026904296875,3.392486721807718,0.6709457891643047,-1.4331643791422246
2024-12-07 20:29:21.665703400,2.512703369140625,2.450453708732128,0.6300970614254474,-0.7559184669204055
2024-12-07 20:29:21.675717400,2.52271728515625,0.8561807760059833,0.6479080279260874,-0.7267166300944984
2024-12-07 20:29:21.685731300,2.5327314453125,0.3618330782413482,0.4494733677715062,-1.804498422309011
2024-12-07 20:29:21.695744500,2.54274462890625,1.6583786174118518,-0.098020813769102,-2.522001818378269
2024-12-07 20:29:21.705758200,2.55275830078125,2.8361300193756818,-0.7359978147894144,-2.5341028827995062
2024-12-07 20:29:21.715772400,2.5627724609375,2.8753771571367976,-1.1029004513800142,-1.952830934819579
2024-12-07 20:29:21.725785600,2.57278564453125,2.141473099756241,-1.1384417203605175,-1.2193543090708554
2024-12-07 20:29:21.735799600,2.582799560546875,1.3468711203068493,-0.9763777657479048,-0.6196075238540768
2024-12-07 20:29:21.745813200,2.592813232421875,0.6686918727576733,-0.8678548471868037,-0.2740624403297901
2024-12-07 20:29:21.755826400,2.602826416015625,-0.0705266622104914,-0.8607406312674284,-0.1952533997699618
2024-12-07 20:29:21.765840600,2.612840576171875,-0.5705711057454347,-0.9379021968811748,-0.1699158371567726
2024-12-07 20:29:21.775854300,2.622854248046875,-0.8947732492506504,-0.97806528044343,-0.2243371631741523
2024-12-07 20:29:21.785867500,2.632867431640625,-1.152616960707307,-0.9289180954366922,-0.3161532770842313
2024-12-07 20:29:21.795881500,2.642881591796875,-0.9612398178488016,-0.8381085282206535,-0.447763641244173
2024-12-07 20:29:21.805895400,2.6528955078125,-0.8194979357749224,-0.7358908472836018,-0.7024474273651838
2024-12-07 20:29:21.815908400,2.662908447265625,-0.8940168779253959,-0.6891273425430059,-0.9288239874124526
2024-12-07 20:29:21.825922600,2.672922607421875,-0.7135130112588405,-0.8570867849349975,-0.9517159104391932
2024-12-07 20:29:21.835936500,2.6829365234375,-0.1891325422694906,-1.276380118498206,-0.9216156634688376
2024-12-07 20:29:21.845949400,2.692949462890625,0.2331616901427507,-1.6476082170724868,-0.897763370977342
2024-12-07 20:29:21.855963400,2.70296337890625,0.1903466490332968,-2.559636552506685,-0.9665826401814818
2024-12-07 20:29:21.865977600,2.7129775390625,0.1890419961755164,-2.851170936641097,-0.6852414410203694
2024-12-07 20:29:21.875990300,2.722990234375,0.5275988099813461,-2.875552513703704,-0.061864043238759
2024-12-07 20:29:21.886004500,2.73300439453125,0.952937853449583,-2.62305659301579,0.8274550322592258
2024-12-07 20:29:21.896018400,2.743018310546875,1.1386375351935625,-2.1203385417908427,1.7317571573555468
2024-12-07 20:29:21.906031400,2.75303125,1.0335305625557898,-1.3725877453655004,2.398181377442181
2024-12-07 20:29:21.916045300,2.76304541015625,0.3291261559039354,-0.8368857084274292,2.3613939077928663
2024-12-07 20:29:21.926059500,2.7730595703125,-0.4596802890092134,-0.9411176517963408,1.2150672794014217
2024-12-07 20:29:21.936072400,2.783072509765625,-0.0752834967821836,-1.2590098815023898,-0.0700657621338963
2024-12-07 20:29:21.946086700,2.793086669921875,0.1825742431998252,-1.468790696057677,-1.1143193787559866
2024-12-07 20:29:21.956100400,2.803100341796875,-0.1056172602474689,-1.5583178222477436,-1.7807354155361652
2024-12-07 20:29:21.966114600,2.813114501953125,-0.3798527190566063,-1.322516431251168,-1.9091274021714928
2024-12-07 20:29:21.976127700,2.823127685546875,-0.0977262147367,-0.4158651126801967,-1.5911813964515924
2024-12-07 20:29:21.986141700,2.8331416015625,0.5986556289792061,1.6066028374671937,-1.2651444387346504
2024-12-07 20:29:21.996155400,2.8431552734375,0.768816965329647,4.962611301705241,-0.9294359818309544
2024-12-07 20:29:22.006168600,2.85316845703125,0.3514215743422508,8.228093107321858,0.2672027836933732
2024-12-07 20:29:22.016182800,2.863182861328125,-0.1320423441027291,9.835960265636444,1.571279010629654
2024-12-07 20:29:22.026196500,2.873196533203125,-0.699009854131937,9.327470645272731,1.810812573891878
2024-12-07 20:29:22.036209700,2.883209716796875,-2.634668120354414,5.719481224131584,0.6699266752496361
2024-12-07 20:29:22.046223600,2.8932236328125,-3.866447465103864,1.147940785589814,-1.8446265806883573
2024-12-07 20:29:22.056237600,2.903237548828125,-2.5476900941252705,-2.3495558782219885,-3.487604507611692
2024-12-07 20:29:22.066250500,2.91325048828125,-0.2065969238221645,-4.778731236603856,-4.213159838841856
2024-12-07 20:29:22.076264700,2.9232646484375,2.0686182914257047,-6.181466282951831,-4.313905985921621
2024-12-07 20:29:22.086278700,2.933278564453125,3.1374574832499027,-5.871327736112475,-3.863958863158524
2024-12-07 20:29:22.096291600,2.94329150390625,2.851095533317327,-4.084093021684885,-3.3133310597673056
2024-12-07 20:29:22.106305500,2.953305419921875,2.182647990709543,-1.7966893559932708,-2.423249767725169
2024-12-07 20:29:22.116319700,2.96331982421875,1.876173811596632,0.3851233529359102,-0.6882073050886393
2024-12-07 20:29:22.126332400,2.97333251953125,1.6146856061577797,1.9704875875413417,1.048191248331964
2024-12-07 20:29:22.136346600,2.9833466796875,0.9321090004324912,2.672774271386862,1.9817222443915905
2024-12-07 20:29:22.146360600,2.993360595703125,0.2573684951603412,2.5666946543246505,2.4285598568320275
2024-12-07 20:29:22.156373500,3.00337353515625,-0.4193745821058749,1.9232360070228576,2.411543401709944
2024-12-07 20:29:22.166387500,3.013387451171875,-0.8539362119495868,0.9368751919209956,1.8854275237627327
2024-12-07 20:29:22.176401700,3.023401611328125,-0.6922855143129825,-0.0545598577052354,1.2025802844025193
2024-12-07 20:29:22.186414600,3.03341455078125,-0.5041840321242809,-0.6302104586720466,0.2704354820042848
2024-12-07 20:29:22.196428500,3.043428466796875,-0.5925754688153043,-0.8671054901242256,-1.0251721917942165
2024-12-07 20:29:22.206442500,3.0534423828125,-0.8239093224763869,-0.7935463329166174,-2.1834663213551044
2024-12-07 20:29:22.216455400,3.063455322265625,-1.0359295134562998,-0.5430570758759975,-2.79724762327373
2024-12-07 20:29:22.226469600,3.0734697265625,-0.6601846681099385,-0.1946831986665725,-2.733218510955572
2024-12-07 20:29:22.236483600,3.083483642578125,-0.030688568252325,0.0326361951887607,-2.081205824189633
2024-12-07 20:29:22.246496800,3.093496826171875,0.3196726833820343,0.1979413236796856,-1.0105800412096082
2024-12-07 20:29:22.256510500,3.103510498046875,0.4591746775746345,0.3046644993424415,0.1717643876329064
2024-12-07 20:29:22.266524700,3.113524658203125,0.7847253130793571,0.2490221070975065,0.9786826816894112
2024-12-07 20:29:22.276537600,3.12353759765625,0.8254828554034233,0.0680728347510099,1.2322665437445044
2024-12-07 20:29:22.286551600,3.133551513671875,0.5625952680280432,-0.1547790583014488,1.2171342949338255
2024-12-07 20:29:22.296565500,3.1435654296875,0.5476503219503909,-0.3141185563862324,1.2465648259490727
2024-12-07 20:29:22.306579700,3.153579833984375,0.8756816683549433,-0.3654138593375682,1.1796176342271267
2024-12-07 20:29:22.316592400,3.16359228515625,1.033820558478311,-0.3205132258594036,0.8310821367152035
2024-12-07 20:29:22.326606600,3.173606689453125,1.1291712031900882,-0.1405938810825348,0.4231301352471113
2024-12-07 20:29:22.336620500,3.18362060546875,1.1809246982377022,0.0169032040059566,0.1434194598972797
2024-12-07 20:29:22.346633700,3.1936337890625,1.1727343775194137,0.1570499258428812,-0.0015633037939667
2024-12-07 20:29:22.356647400,3.2036474609375,0.9090565530817956,0.2270160269945859,-0.096587712226063
2024-12-07 20:29:22.366661600,3.21366162109375,0.4568575597386807,0.1870166095614433,-0.1163718784958124
2024-12-07 20:29:22.376674600,3.223674560546875,0.2723288214702159,-0.0582312396943569,-0.0299376037545502
2024-12-07 20:29:22.386688500,3.2336884765625,0.3137771956026554,-0.3539782730877399,0.0691948245182633
2024-12-07 20:29:22.396702500,3.243702392578125,0.3263198663115501,-0.5402233137547969,0.1580484353609383
2024-12-07 20:29:22.406715600,3.253715576171875,0.2846937975246459,-0.5919990936994552,0.2589822139672935
2024-12-07 20:29:22.416729600,3.2637294921875,0.2657833453495055,-0.589310293006897,0.3365823171287775
2024-12-07 20:29:22.426743600,3.27374365234375,0.2155002881806343,-0.5230728569895029,0.395003672567755
2024-12-07 20:29:22.436756700,3.2837568359375,0.0401263317484408,-0.3965437416166067,0.4485333104424178
2024-12-07 20:29:22.446770700,3.293770751953125,-0.1265045654535293,-0.2355593989342451,0.4503367066025733
2024-12-07 20:29:22.456784400,3.303784423828125,-0.0808498987376689,-0.0353337637096643,0.4242170537009835
2024-12-07 20:29:22.466797600,3.313797607421875,0.0621359189826995,0.17333353664577,0.3474029863506555
2024-12-07 20:29:22.476811500,3.3238115234375,0.1373557028789073,0.3850257377803325,0.2086133782111108
2024-12-07 20:29:22.486825500,3.333825439453125,0.116409872418642,0.5409083734095096,0.0454977225884795
2024-12-07 20:29:22.496838700,3.343838623046875,0.0156803111474961,0.6420142937123775,-0.0725873895660042
2024-12-07 20:29:22.506852600,3.3538525390625,-0.1124140807807445,0.5992874971419573,-0.128422381773591
2024-12-07 20:29:22.516866600,3.363866455078125,-0.2729892581403255,0.4872276366263627,-0.0872528976477682
2024-12-07 20:29:22.526879500,3.37387939453125,-0.4504769187908619,0.3111766577154398,-0.0505379087127745
2024-12-07 20:29:22.536893700,3.383893798828125,-0.5678840586185455,0.1020025768816471,0.0442331094801425
2024-12-07 20:29:22.546907600,3.39390771484375,-0.5903647704958915,-0.132706342703104,0.1570205536179244
2024-12-07 20:29:22.556920600,3.403920654296875,-0.4483913446884602,-0.3242354612529277,0.3257622324287891
2024-12-07 20:29:22.566934500,3.4139345703125,-0.2851088080663234,-0.5571732795119285,0.4475698722377419
2024-12-07 20:29:22.576948700,3.42394873046875,-0.2918541176080703,-0.7289777068942784,0.5489584088742733
2024-12-07 20:29:22.586961400,3.43396142578125,-0.4450596429824829,-0.7615162869274615,0.6618991438776254
2024-12-07 20:29:22.596975600,3.4439755859375,-0.7376257082521915,-0.634132016029954,0.929787864008546
2024-12-07 20:29:22.606989600,3.453989501953125,-0.9875801277637482,-0.3629664661854505,1.358298815511167
2024-12-07 20:29:22.617002500,3.46400244140625,-1.1745371160924434,-0.0230576349824666,1.787564969295263
2024-12-07 20:29:22.627016400,3.474016357421875,-1.401932497793436,0.3004419132113456,2.0794934673137964
2024-12-07 20:29:22.637030700,3.48403076171875,-1.7662123846650122,0.5612246007293462,2.195694519287348
2024-12-07 20:29:22.647043600,3.494043701171875,-2.238521415231377,0.786363143414259,2.2313098764173684
2024-12-07 20:29:22.657057500,3.5040576171875,-2.640201204562187,0.9964099154293536,2.280859358614683
2024-12-07 20:29:22.667071500,3.514071533203125,-2.951493013089895,1.1107406434863805,2.3952207740709186
2024-12-07 20:29:22.677085700,3.524085693359375,-3.062542819780111,1.1066267784267665,2.646742296768725
2024-12-07 20:29:22.687098600,3.5340986328125,-2.7482231878638266,1.142719251549244,2.9315923808336257
2024-12-07 20:29:22.697112600,3.544112548828125,-2.0489584821879863,1.4111819721758363,3.02743672734648
2024-12-07 20:29:22.707126500,3.55412646484375,-1.3299297762475908,1.641475413405895,2.464131520950794
2024-12-07 20:29:22.717139500,3.564139404296875,-0.5455775342643261,1.5925813263773918,1.110424344078824
2024-12-07 20:29:22.727153700,3.574153564453125,0.2474222706854343,1.4729700275689364,-0.3870231221426278
2024-12-07 20:29:22.737167600,3.584167724609375,0.5011187262695282,1.22197048291862,-1.3607371485739943
2024-12-07 20:29:22.747180500,3.5941806640625,-0.1353858641106635,0.8265800029903649,-1.7993194122359155
2024-12-07 20:29:22.757194500,3.604194580078125,-0.3998972167629748,0.5622393307298421,-1.507116627320647
2024-12-07 20:29:22.767208700,3.614208740234375,0.0683060589849948,0.1740600973546505,-1.0311467361591755
2024-12-07 20:29:22.777221600,3.6242216796875,0.7673276035547256,-0.2990589344203472,-0.9356894892677664
2024-12-07 20:29:22.787235600,3.634235595703125,1.1295698471188544,-0.8873276094198227,-0.9385038160361348
2024-12-07 20:29:22.797249500,3.64424951171875,0.7602993123531341,-1.2978215504556894,-0.9756807233944534
2024-12-07 20:29:22.807262700,3.6542626953125,0.5649672943890094,-1.0504565629154443,-1.402339032767713
2024-12-07 20:29:22.817276400,3.6642763671875,0.8151368179559707,-0.1705214018344879,-2.2527771734684703
2024-12-07 20:29:22.827290600,3.67429052734375,1.0872831955313682,0.724299193689227,-2.883053098592162
2024-12-07 20:29:22.837303600,3.684303466796875,1.1844576216042042,1.3258131347090003,-3.149756992852688
2024-12-07 20:29:22.847317500,3.6943173828125,1.450122820466757,1.5915613356798886,-3.101584498097002
2024-12-07 20:29:22.857331500,3.70433154296875,2.1189444570839404,1.430921860912442,-2.857867511670291
2024-12-07 20:29:22.867344600,3.7143447265625,2.75289819393754,0.9325584977656602,-2.329509553884715
2024-12-07 20:29:22.877358600,3.724358642578125,2.703068871885538,0.2857920410901308,-1.4306037348739802
2024-12-07 20:29:22.887372500,3.73437255859375,2.002767808899283,-0.1822550942480564,-0.4897163847021758
2024-12-07 20:29:22.897385500,3.744385498046875,1.177294305846095,-0.4425532131195068,0.1471859728239476
2024-12-07 20:29:22.907399700,3.754399658203125,0.4228817134439945,-0.4991641581356525,0.5999314941339194
2024-12-07 20:29:22.917413400,3.764413330078125,-0.1736333598425611,-0.5815156936079263,0.6219076174899936
2024-12-07 20:29:22.927426600,3.774426513671875,-0.5019283621519803,-0.6114741940200329,0.3025475071884692
2024-12-07 20:29:22.937440500,3.7844404296875,-0.4250748395740986,-0.5920739125013351,-0.0494277555137872
2024-12-07 20:29:22.947453700,3.79445361328125,-0.2357803299422375,-0.5656318957775831,-0.2632461550220847
2024-12-07 20:29:22.957467000,3.804466796875,-0.0993476419260725,-0.5650350989282131,-0.407537429317832
2024-12-07 20:29:22.967480800,3.814480712890625,0.1382289420494809,-0.595112257283926,-0.4061483130469918
2024-12-07 20:29:22.977494800,3.824494873046875,0.3152765673149377,-0.6575427022337913,-0.3240677034705877
2024-12-07 20:29:22.987507700,3.8345078125,0.3967694035986438,-0.7041238361448049,-0.3372711761757731
2024-12-07 20:29:22.997522000,3.84452197265625,0.4276152082392945,-0.7115496022313833,-0.5339113541290164
2024-12-07 20:29:23.007535900,3.854535888671875,0.3623100846359506,-0.7226099254280328,-0.8301859185278415
2024-12-07 20:29:23.017549800,3.8645498046875,0.4198620002966374,-0.8226730586796999,-1.0910384564116598
2024-12-07 20:29:23.027562800,3.874562744140625,0.1372351452391594,-1.0002227517157791,-1.291602237549424
2024-12-07 20:29:23.037577000,3.884576904296875,-0.3679782299328595,-1.188914016491175,-1.4512845577225089
2024-12-07 20:29:23.047590700,3.894590576171875,-0.6013274420043453,-1.3218810559570788,-1.5321698200345035
2024-12-07 20:29:23.057603800,3.904603759765625,-0.935911899846792,-1.5273399156600236,-1.497314487491548
2024-12-07 20:29:23.067617800,3.91461767578125,-1.201412190471217,-1.7794979826956987,-1.2622569005995987
2024-12-07 20:29:23.077631700,3.9246318359375,-1.0073509961605072,-2.101651376977563,-0.9028060413196682
2024-12-07 20:29:23.087645000,3.93464501953125,-0.3128022861558944,-2.416443887102604,-0.39514819560498
2024-12-07 20:29:23.097659000,3.944658935546875,0.3626508243650198,-2.6139707847625018,0.3247244138136506
2024-12-07 20:29:23.107672800,3.9546728515625,0.5724889220654964,-2.647650351524353,1.2309072380900383
2024-12-07 20:29:23.117685800,3.964685791015625,0.3669090663313865,-2.406716858336329,2.025639273659885
2024-12-07 20:29:23.127700000,3.974699951171875,0.1078127244651317,-2.155710299423337,2.3885145544305444
2024-12-07 20:29:23.137714000,3.9847138671875,-0.1097468708654865,-2.055428554984927,2.24984082775563
2024-12-07 20:29:23.147726800,3.994726806640625,-0.3956616615524515,-1.911405283975601,1.72128837031126
2024-12-07 20:29:23.157740800,4.00474072265625,-0.2094996960589662,-1.3725649490118026,1.2973565632924438
2024-12-07 20:29:23.167755000,4.014755126953125,-0.2538993942776695,-0.5968079552859068,1.24654232185632
2024-12-07 20:29:23.177767700,4.024767578125,-0.0703653296023607,0.4159866932332515,1.1356360152900218
2024-12-07 20:29:23.187782000,4.034781982421875,0.2398930624906904,2.551937814697624,0.5876695400625467
2024-12-07 20:29:23.197795800,4.0447958984375,-0.1312713414639234,5.828527289783954,0.3265282483652234
2024-12-07 20:29:23.207808800,4.054808837890625,-0.6144686996608972,8.808146911683679,1.3736369621574878
2024-12-07 20:29:23.217822700,4.06482275390625,0.4124526738882064,10.20635542051792,2.9118223892197013
2024-12-07 20:29:23.227837000,4.0748369140625,2.0906150191783905,8.046409675481915,3.1802865711510178
2024-12-07 20:29:23.237849600,4.084849609375,0.4917892454534768,2.527784785693884,0.0893532309278845
2024-12-07 20:29:23.247863800,4.09486376953125,-3.788590318441391,-1.4802116692602634,-3.938521936711669
2024-12-07 20:29:23.257877800,4.104877685546875,-5.789636125853657,-3.440474799907207,-6.149491766542196
2024-12-07 20:29:23.267891000,4.114890869140625,-3.2429484867692,-4.28565312038362,-6.422447706934809
2024-12-07 20:29:23.277904600,4.124904541015625,0.4205360636333003,-4.300729693484306,-5.331205544644594
2024-12-07 20:29:23.287918800,4.1349189453125,2.9621137758255003,-3.921879429468512,-4.19745636601448
2024-12-07 20:29:23.297932000,4.14493212890625,3.607254677125811,-2.682894098863005,-3.356121276962757
2024-12-07 20:29:23.307945700,4.15494580078125,2.8826386725723743,-0.6748802060037851,-2.0535221368417145
2024-12-07 20:29:23.317959700,4.164959716796875,2.505111181592941,0.8226584456324577,-0.3796481363952159
2024-12-07 20:29:23.327972900,4.174972900390625,2.03986916680336,1.7157541170597077,0.7909013713657855
2024-12-07 20:29:23.337986800,4.18498681640625,0.954263549095392,2.419108137875796,1.5334525533214212
2024-12-07 20:29:23.348000800,4.195000732421875,-0.249821148520708,2.3956600422710177,2.0736109851464626
2024-12-07 20:29:23.358014700,4.2050146484375,-0.7243956398010254,1.4376011925458907,1.7493302234470842
2024-12-07 20:29:23.368028000,4.21502783203125,-0.6052560501575469,0.4479904357373714,0.9194935567483306
2024-12-07 20:29:23.378041900,4.225041748046875,-0.4758780116269365,-0.0546574728608131,0.3170525640115141
2024-12-07 20:29:23.388055800,4.235055908203125,-0.2468272639343514,-0.2548205642431974,-0.2627273918449878
2024-12-07 20:29:23.398069000,4.245069091796875,-0.0304933379411697,-0.3682464524149894,-0.7834770665839313
2024-12-07 20:29:23.408082700,4.255082763671875,-0.0212532524416223,-0.3914718451797962,-1.0908265672266482
2024-12-07 20:29:23.418097000,4.265096923828125,0.3166974304309115,-0.4309533762186765,-1.228655075249076
2024-12-07 20:29:23.428109800,4.27510986328125,0.8748141648054122,-0.5578805509984492,-1.400481422202289
2024-12-07 20:29:23.438123800,4.285123779296875,0.8922107052862643,-0.5896744501441716,-1.5923814198911188
2024-12-07 20:29:23.448137700,4.2951376953125,0.6867267111420631,-0.5394874006956816,-1.5579171324923633
2024-12-07 20:29:23.458151000,4.30515087890625,0.5461842679858208,-0.4218658143997192,-1.3375333831191063
2024-12-07 20:29:23.468164900,4.315164794921875,0.2448982321005314,-0.147850135821104,-0.8425476797118783
2024-12-07 20:29:23.478178800,4.3251787109375,-0.0128197340846061,0.1703933915406465,-0.2281790794245898
2024-12-07 20:29:23.488191700,4.335191650390625,-0.0310499123780056,0.4508049086362123,0.3046059010230004
2024-12-07 20:29:23.498206000,4.3452060546875,0.0601028057198971,0.6059960548698902,0.6444434205554426
2024-12-07 20:29:23.508219600,4.3552197265625,0.2123100042393431,0.594272883850336,0.7632828582085669
2024-12-07 20:29:23.518232800,4.36523291015625,0.3709480760565027,0.3803028009116649,0.7270061145603657
2024-12-07 20:29:23.528246800,4.375246826171875,0.4273778192868456,0.0026806173861026,0.5744882791891693
2024-12-07 20:29:23.538261000,4.385260986328125,0.4691583114504813,-0.3627262276887893,0.4806524960197508
2024-12-07 20:29:23.548274000,4.39527392578125,0.6100163964271546,-0.5912053129732608,0.4061969744943082
2024-12-07 20:29:23.558288000,4.405287841796875,0.6509423541206866,-0.6675970632582903,0.2869322971664368
2024-12-07 20:29:23.568301800,4.4153017578125,0.5753285294055939,-0.5786877767056227,0.1308292967848479
2024-12-07 20:29:23.578314800,4.425314697265625,0.4062942243237048,-0.4293149613618851,0.0295540112644433
2024-12-07 20:29:23.588329000,4.435328857421875,0.2253589805025607,-0.2769055548012256,-0.020882336769998
2024-12-07 20:29:23.598343000,4.445343017578125,-0.0705704967856407,-0.1538794791132211,-0.0272984874226152
2024-12-07 20:29:23.608355800,4.45535595703125,-0.5151438175559043,-0.0279337165862321,0.0311503405451774
2024-12-07 20:29:23.618369800,4.465369873046875,-0.4882219814259558,0.0765127463161945,0.2153174058943986
2024-12-07 20:29:23.628384000,4.475384033203125,-0.1909388245064765,0.2002466780126094,0.3525510167635977
2024-12-07 20:29:23.638396700,4.485396728515625,-0.1460791075605899,0.2282522907912731,0.3986244934134185
2024-12-07 20:29:23.648411000,4.495410888671875,-0.1742086389798671,0.0713695382088422,0.3953776204466819
2024-12-07 20:29:23.658424800,4.5054248046875,-0.0555623127460479,-0.1253548108965158,0.444567913942784
2024-12-07 20:29:23.668438800,4.515438720703125,0.1136415036838501,-0.1673836883306503,0.5517696669027209
2024-12-07 20:29:23.678451700,4.52545166015625,0.1922655430655926,-0.0507733249038457,0.686999098342657
2024-12-07 20:29:23.688466000,4.5354658203125,0.2473462097745388,0.2001286045908927,0.8953076483882964
2024-12-07 20:29:23.698479900,4.54547998046875,0.2168621511183679,0.4222738106787204,1.0817943888567387
2024-12-07 20:29:23.708492800,4.555492919921875,0.162314641438052,0.4644803827673197,1.178812601454556
2024-12-07 20:29:23.718506800,4.5655068359375,0.0051637394387274,0.3157522950679063,1.0704004497915505
2024-12-07 20:29:23.728521000,4.57552099609375,-0.1780758358020335,0.0716419254094362,0.8567702663317323
2024-12-07 20:29:23.738533600,4.58553369140625,-0.280549537326768,-0.1714981379121541,0.5929416352465748
2024-12-07 20:29:23.748547800,4.5955478515625,-0.2785292835455387,-0.4740817393273115,0.2464247840806841
2024-12-07 20:29:23.758561800,4.605561767578125,-0.2314496985930949,-0.754085260143876,-0.1262185881190002
2024-12-07 20:29:23.768574700,4.61557470703125,-0.0511035797715187,-0.8454138827979564,-0.4093285505183041
2024-12-07 20:29:23.778588700,4.625588623046875,0.2418727467995136,-0.7689788778930902,-0.5966456043310463
2024-12-07 20:29:23.788603000,4.635602783203125,0.5050844150301069,-0.6556663869678974,-0.7591609559729695
2024-12-07 20:29:23.798615800,4.64561572265625,0.7441570827823132,-0.508667315018177,-0.8643955005131662
2024-12-07 20:29:23.808629800,4.655629638671875,0.9971955128490924,-0.3824930044323206,-0.9575658055111764
2024-12-07 20:29:23.818643700,4.665643798828125,1.1570388688027855,-0.2714654095739126,-1.1153479911513626
2024-12-07 20:29:23.828657000,4.675656982421875,1.2020248424768447,-0.2177630454808473,-1.2807159557454286
2024-12-07 20:29:23.838670800,4.6856708984375,1.2595815439105034,-0.2298720009475946,-1.3794761897049843
2024-12-07 20:29:23.848684800,4.695684814453125,1.1711444779794662,-0.3262532308161258,-1.2961515714168548
2024-12-07 20:29:23.858698000,4.705697998046875,0.9227940595984458,-0.4331675451368093,-0.9353978128448128
2024-12-07 20:29:23.868711700,4.715711669921875,0.7016705977737904,-0.3801490716546774,-0.4176837064094841
2024-12-07 20:29:23.878726000,4.725725830078125,0.5247076916497201,-0.2734796720057725,0.1824859803944826
2024-12-07 20:29:23.888738800,4.73573876953125,0.3359562941849232,-0.2120984438478946,0.7604156322091817
2024-12-07 20:29:23.898753000,4.7457529296875,0.1823871231298893,-0.2548264094620943,1.08697193762511
2024-12-07 20:29:23.908766700,4.7557666015625,0.041878655308485,-0.2197667865186929,1.1884297401055692
2024-12-07 20:29:23.918780000,4.76577978515625,-0.1999814512051642,-0.0861421599268913,1.151904136262834
2024-12-07 20:29:23.928793900,4.7757939453125,-0.3794761408291757,0.0526864650487899,1.0905983114287257
2024-12-07 20:29:23.938807800,4.785807861328125,-0.5476068481348455,0.1225906068801879,0.9750339499235152
2024-12-07 20:29:23.948821800,4.79582177734375,-0.6442530125498771,0.1218383272081613,0.7330284435898066
2024-12-07 20:29:23.958835700,4.805835693359375,-0.7060488128580152,0.0449929879367351,0.3432363681904971
2024-12-07 20:29:23.968849700,4.815849609375,-0.916870514768362,-0.1776385403633117,0.0214355867385864
2024-12-07 20:29:23.978862800,4.82586279296875,-1.1590183521822095,-0.4241922115206718,0.1091197154104709
2024-12-07 20:29:23.988876500,4.83587646484375,-0.9387117596983908,-0.5339309356123209,0.4260210343830287
2024-12-07 20:29:23.998890800,4.845890869140625,-0.3855670050501823,-0.4867132573634385,0.6576693973533809
2024-12-07 20:29:24.008904700,4.85590478515625,0.0445756393074989,-0.3702537005841732,0.7187590221535414
2024-12-07 20:29:24.018918000,4.86591796875,0.2344410624288022,-0.1863309653848409,0.8291011920310556
2024-12-07 20:29:24.028931600,4.875931640625,0.2833830802522599,-0.0892155760228633,1.118245466158539
2024-12-07 20:29:24.038945800,4.88594580078125,0.0613664689801633,-0.168852007317543,1.386209589613229
2024-12-07 20:29:24.048958700,4.895958740234375,-0.4193080927409231,-0.4929314012259244,1.3560050054855644
2024-12-07 20:29:24.058972700,4.90597265625,-1.0902211486794051,-0.7408844177871942,1.2204633662912994
2024-12-07 20:29:24.068986600,4.915986572265625,-1.785133358234167,-0.7376473355621099,1.1168962435066698
2024-12-07 20:29:24.078999800,4.925999755859375,-2.2090239564597605,-0.5130447994500398,1.0996153652947396
2024-12-07 20:29:24.089013500,4.936013427734375,-2.3358361265577376,-0.43154374332726,1.1322330019135027
2024-12-07 20:29:24.099027700,4.94602783203125,-1.944327894890308,0.2080494607180356,1.3292802262976764
2024-12-07 20:29:24.109040600,4.95604052734375,-1.0441767519935965,1.1092986279845236,1.7192035268612205
2024-12-07 20:29:24.119054800,4.966054931640625,0.2143883083507418,2.085892082309723,1.995177499900758
2024-12-07 20:29:24.129068500,4.976068603515625,0.9730591427192092,2.6313141337513923,1.6363222684264185
2024-12-07 20:29:24.139081700,4.986081787109375,0.6913958719968796,2.921498856842517,1.0709371870167552
2024-12-07 20:29:24.149095700,4.996095703125,-0.3671346917808055,3.3794799407184124,0.8463852120481431
2024-12-07 20:29:24.159109600,5.006109619140625,-1.565255658686906,3.815934252440929,0.6821149795629083
2024-12-07 20:29:24.169122800,5.016122802734375,-2.617342891544104,4.041117803311348,0.1168211566332727
2024-12-07 20:29:24.179136800,5.02613671875,-2.972581393826008,3.9055093094259496,-0.6414105556655675
2024-12-07 20:29:24.189150700,5.036150634765625,-2.1516414425492285,3.3260599006980653,-1.1764259255137297
2024-12-07 20:29:24.199163600,5.04616357421875,-0.8043558962225914,2.399725392013788,-1.3723486759126189
2024-12-07 20:29:24.209177900,5.056177734375,0.3069615973036736,1.3801654871433973,-1.5034616119444368
2024-12-07 20:29:24.219191800,5.06619189453125,1.1050232887528837,0.3736228847563266,-1.92181444978714
2024-12-07 20:29:24.229204700,5.076204833984375,1.1081950506567957,-0.6418196479231119,-2.553125563177466
2024-12-07 20:29:24.239218700,5.08621875,0.4011982894241809,-1.3104197507441042,-2.6793323147282004
2024-12-07 20:29:24.249233000,5.09623291015625,-0.1492412979185581,-1.5165572403609753,-2.358864243184775
2024-12-07 20:29:24.259245600,5.10624560546875,0.5773088530352338,-1.2278934432268145,-2.0561103997692465
2024-12-07 20:29:24.269259800,5.116259765625,1.847687721824646,-0.6985907519370317,-1.7117245692826806
2024-12-07 20:29:24.279273700,5.126273681640625,2.5440683964967725,-0.2087795285582542,-1.517130364073813
2024-12-07 20:29:24.289287700,5.13628759765625,2.7132512432038784,0.3089057901740074,-1.3429285201609134
2024-12-07 20:29:24.299300600,5.146300537109375,2.346067451584339,0.7610521765470505,-1.0198296617224811
2024-12-07 20:29:24.309314800,5.156314697265625,1.652593019747734,1.0325415515184402,-0.7647507388040423
2024-12-07 20:29:24.319328800,5.166328857421875,1.1869663895547389,1.1647481280058622,-0.7996352974414825
2024-12-07 20:29:24.329341700,5.176341796875,1.067559088885784,0.832626297417283,-1.283877196255326
2024-12-07 20:29:24.339355600,5.186355712890625,1.0187082564771175,0.7844067486494779,-1.425831405905634
2024-12-07 20:29:24.349369900,5.196369873046875,1.066430961638689,0.6779226424396038,-1.61666187466681
2024-12-07 20:29:24.359382500,5.206382568359375,0.853316618746519,0.1335486387461423,-1.8971693994827568
2024-12-07 20:29:24.369396700,5.216396728515625,0.4922819974064826,-0.2839735934913158,-1.8239561331033705
2024-12-07 20:29:24.379410700,5.22641064453125,0.1299415541648864,-0.5619751268357038,-1.4440826635196804
2024-12-07 20:29:24.389423600,5.236423583984375,-0.0436333900213241,-0.5693816036999225,-0.7407207516580819
2024-12-07 20:29:24.399437600,5.2464375,-0.4210954145491123,-0.4366822752594947,0.4413162186704575
2024-12-07 20:29:24.409451800,5.25645166015625,-1.1525520787775516,-0.3132382664203643,1.6639632856763895
2024-12-07 20:29:24.419464700,5.266464599609375,-1.6804069093465803,-0.4068593839257955,2.2606422077551485
2024-12-07 20:29:24.429478700,5.276478759765625,-1.6127987694978714,-0.7057113975971937,2.4084452895641326
2024-12-07 20:29:24.439492600,5.28649267578125,-1.0205144291162491,-1.1090659882724283,1.947244220728427
2024-12-07 20:29:24.449505800,5.296505859375,-0.2028583218157291,-1.5244868643164633,0.8545695414170622
2024-12-07 20:29:24.459519700,5.306519775390625,0.3169534875512123,-1.7780208958804606,-0.253981044679135
2024-12-07 20:29:24.469533700,5.31653369140625,0.4262017977774143,-1.726127627035975,-0.8059495951548218
2024-12-07 20:29:24.479547000,5.326546875,0.4709726673960685,-1.6491478477299213,-0.8579425249814987
2024-12-07 20:29:24.489560600,5.336560546875,0.1921487117528915,-1.879049074772,-0.6221656839042902
2024-12-07 20:29:24.499574800,5.34657470703125,-0.3123813573300838,-2.164291080763936,-0.228157305984199
2024-12-07 20:29:24.509587700,5.356587646484375,-0.5339923104107379,-2.198776703211665,0.2007350460514426
2024-12-07 20:29:24.519601700,5.3666015625,-0.9477297634124756,-1.9764619857758283,0.7003729591786861
2024-12-07 20:29:24.529615600,5.37661572265625,-1.3603215535104274,-1.7303993130058049,1.30965373480767
2024-12-07 20:29:24.539628800,5.38662890625,-1.2918611807465552,-1.5577286241829391,1.972018742631376
2024-12-07 20:29:24.549642800,5.396642822265625,-0.7122247250139713,-1.509192264550924,2.390174888858199
2024-12-07 20:29:24.559656700,5.40665673828125,-0.2130442185317166,-1.5258786109358071,2.527788000564277
2024-12-07 20:29:24.569670700,5.416670654296875,-0.5439478872358798,-1.5365537342071531,2.5140704408571124
2024-12-07 20:29:24.579683800,5.426683837890625,-1.2259434782028198,-1.618131362697482,2.420206746767461
2024-12-07 20:29:24.589697500,5.436697509765625,-1.1882371401429177,-1.9689006106108424,2.47043412822634
2024-12-07 20:29:24.599711700,5.446711669921875,-0.2619967394828796,-2.487867785847187,2.399456219683588
2024-12-07 20:29:24.609724700,5.456724609375,1.0767851823925971,-2.863998269510269,1.8883625543013207
2024-12-07 20:29:24.619738600,5.466738525390625,1.88057876855731,-2.92149534971118,1.319071843755245
2024-12-07 20:29:24.629752600,5.476752685546875,1.9020482575654984,-2.4292829104095697,1.0620137297183274
2024-12-07 20:29:24.639765800,5.486765869140625,1.3281494687020778,-1.5270704510688782,0.9456874439299106
2024-12-07 20:29:24.649779700,5.49677978515625,-0.0427659595370292,0.0430102896869182,0.708808486829698
2024-12-07 20:29:24.659793700,5.506793701171875,-2.489463530606032,3.0025036538809537,-0.1980345549210906
2024-12-07 20:29:24.669806600,5.516806640625,-4.523446561980247,6.784377815809846,-1.4137562065780165
2024-12-07 20:29:24.679820800,5.52682080078125,-3.281436915117502,8.537878018417954,-1.3948916393712163
2024-12-07 20:29:24.689834500,5.53683447265625,0.5211457248518243,7.492420871224999,-1.6391142372325065
2024-12-07 20:29:24.699847700,5.54684765625,1.9253671738326548,4.778376431816816,-3.4969875452458856
2024-12-07 20:29:24.709861600,5.556861572265625,-0.3217618011483922,0.846964619371295,-5.139667073744535
2024-12-07 20:29:24.719875800,5.566875732421875,-2.106167977619171,-2.051644360271096,-5.474421006402373
2024-12-07 20:29:24.729888800,5.576888671875,-0.8162520857214928,-3.2675229560554024,-4.816532559470832
2024-12-07 20:29:24.739902700,5.58690283203125,1.5324983213365078,-3.197648040318489,-3.896996624885499
2024-12-07 20:29:24.749916700,5.596916748046875,2.933212675511837,-2.433623569962382,-3.363841934342682
2024-12-07 20:29:24.759929600,5.6069296875,3.204932352107764,-1.3878010965883731,-2.9489541422620413
2024-12-07 20:29:24.769943800,5.61694384765625,2.9750083287119864,-0.3809533737748861,-2.103153013712168
2024-12-07 20:29:24.779957800,5.626957763671875,2.4824679726302623,0.6448977401942014,-0.6688871030688286
2024-12-07 20:29:24.789970700,5.636970703125,1.5847686067998408,1.400725460091233,0.8664563785657287
2024-12-07 20:29:24.799984600,5.646984619140625,0.5965244256367906,1.6172598405599594,2.0814780652597547
2024-12-07 20:29:24.809998800,5.656998779296875,-0.0325111075043678,1.2810095318645238,2.526214467637241
2024-12-07 20:29:24.820011500,5.667011474609375,-0.1961374891281127,0.7354518713444471,2.0934479045167564
2024-12-07 20:29:24.830025700,5.677025634765625,0.0355517538418993,0.3391781788408756,1.2666101273730397
2024-12-07 20:29:24.840039700,5.687039794921875,0.2973579757213592,0.2324567567437887,0.3634488428749144
2024-12-07 20:29:24.850054000,5.697053955078125,0.4104454257190227,0.1897714612275362,-0.5144539355956018
2024-12-07 20:29:24.860066600,5.707066650390625,0.3771030915549024,0.079600190937519,-1.3697409776322542
2024-12-07 20:29:24.870080800,5.717080810546875,0.2244446786692366,-0.1173515371829271,-1.9924621034622192
2024-12-07 20:29:24.880094700,5.7270947265625,0.1424573733994737,-0.2945972788363695,-2.125703429824859
2024-12-07 20:29:24.890107600,5.737107666015625,0.2030687496960163,-0.428218398296833,-1.909987380001693
2024-12-07 20:29:24.900121600,5.74712158203125,0.3574936242649331,-0.4852975453466177,-1.5741476979337632
2024-12-07 20:29:24.910135800,5.7571357421875,0.5752011401662602,-0.5107090499788522,-1.3030664653718471
2024-12-07 20:29:24.920148700,5.767148681640625,0.7938765877842903,-0.4396709356814622,-1.0548564053095877
2024-12-07 20:29:24.930162700,5.77716259765625,0.961565396541357,-0.2803822910010815,-0.829630184341222
2024-12-07 20:29:24.940176600,5.7871767578125,0.9859668473482132,-0.0626525632679462,-0.5690555866159498
2024-12-07 20:29:24.950189800,5.79718994140625,0.9416589190661908,0.161045132958889,-0.3401427860893309
2024-12-07 20:29:24.960203800,5.807203857421875,0.841039320975542,0.2798854473948478,-0.1486434781558811
2024-12-07 20:29:24.970217700,5.8172177734375,0.6124818732252344,0.165830613669753,0.0216537595339119
2024-12-07 20:29:24.980231000,5.82723095703125,0.4117547547519207,-0.0389689053416252,0.1875206135608255
2024-12-07 20:29:24.990244900,5.837244873046875,0.3840157570201903,-0.1959931122213602,0.3363892787747085
2024-12-07 20:29:25.000258800,5.8472587890625,0.4593429833462462,-0.2842050641596317,0.4650301256045699
2024-12-07 20:29:25.010271700,5.857271728515625,0.489347697520256,-0.2715945889115333,0.5155909768015146
2024-12-07 20:29:25.020286000,5.867285888671875,0.3562181609690189,-0.2122568492799997,0.4880126495242118
2024-12-07 20:29:25.030300000,5.8772998046875,0.162105309536308,-0.1507043562084436,0.3756139124430716
2024-12-07 20:29:25.040312800,5.887312744140625,0.0339280616302043,-0.058488429325819,0.2277491635747253
2024-12-07 20:29:25.050326800,5.897326904296875,0.0037619098167866,0.0652414107173681,0.1648397029362618
2024-12-07 20:29:25.060341000,5.907341064453125,0.1088415560562163,0.1534913565784692,0.1397054078102111
2024-12-07 20:29:25.070353700,5.917353759765625,0.2649906606018543,0.1314876145631074,0.0991609237149357
2024-12-07 20:29:25.080367900,5.927367919921875,0.4913735773246735,0.1037339307188987,0.0184546712316572
2024-12-07 20:29:25.090381800,5.9373818359375,0.652920376195386,0.0472334603399038,-0.1693142180018126
2024-12-07 20:29:25.100396000,5.94739599609375,0.7593417924325913,0.0787362675845623,-0.3332626711867749
2024-12-07 20:29:25.110408700,5.95740869140625,0.9106102853298188,0.1927694739997386,-0.432669094095379
2024-12-07 20:29:25.120423000,5.9674228515625,1.0252747753858569,0.2749544207334518,-0.5295668951839209
2024-12-07 20:29:25.130436900,5.977436767578125,1.019023825232312,0.2904436662882566,-0.682914751638472
2024-12-07 20:29:25.140449800,5.98744970703125,0.8830033164799213,0.2517261053591966,-0.7538990899220108
2024-12-07 20:29:25.150463700,5.997463623046875,0.6477611668013036,0.1625812564849853,-0.7856089640460908
2024-12-07 20:29:25.160478000,6.00747802734375,0.3850678964216262,0.1040279452294111,-0.7305436410367488
2024-12-07 20:29:25.170490600,6.01749072265625,0.2201425610285252,0.0272281986653804,-0.5964750700697302
2024-12-07 20:29:25.180504800,6.0275048828125,0.1806605185329914,-0.1403548116296529,-0.4953041217066347
2024-12-07 20:29:25.190518800,6.037518798828125,0.2492144878644496,-0.3100970457851886,-0.3490579139508307
2024-12-07 20:29:25.200531700,6.04753173828125,0.4375649033129214,-0.4620505252718925,-0.2091495309144258
2024-12-07 20:29:25.210545700,6.057545654296875,0.719379272943735,-0.6030623395055532,-0.1430228617951273
2024-12-07 20:29:25.220560000,6.067559814453125,0.98234273856692,-0.6145259828060865,-0.1985204387418925
2024-12-07 20:29:25.230573000,6.077572998046875,1.1062498348731546,-0.5548100575119257,-0.3347330360002815
2024-12-07 20:29:25.240586800,6.087586669921875,1.0386684369008987,-0.3787035490214824,-0.3902513634741306
2024-12-07 20:29:25.250600700,6.0976005859375,0.7024096526380628,-0.1867015522629022,-0.2982417728185653
2024-12-07 20:29:25.260614000,6.10761376953125,0.187562699136883,-0.0235065477937459,-0.0184399120539426
2024-12-07 20:29:25.270627800,6.1176279296875,-0.3266145384091883,0.056171969076991,0.4461937615789473
2024-12-07 20:29:25.280641800,6.127641845703125,-0.7161551963306964,-0.0394482132911682,0.917050401379913
2024-12-07 20:29:25.290655000,6.137655029296875,-0.8876724773347378,-0.2540536715239286,1.225943185941875
2024-12-07 20:29:25.300668700,6.147668701171875,-0.8716028015434741,-0.5382160655856132,1.306509299302101
2024-12-07 20:29:25.310683000,6.157682861328125,-0.7638261713050305,-0.7718745993345976,1.256755526704341
2024-12-07 20:29:25.320695800,6.16769580078125,-0.6562497398138046,-0.778002142304182,1.2186511292375624
2024-12-07 20:29:25.330710000,6.1777099609375,-0.4819266806740313,-0.6602116291821003,1.1937822070494293
2024-12-07 20:29:25.340723700,6.1877236328125,-0.2936063681028783,-0.5321224248856306,1.104674767576158
2024-12-07 20:29:25.350737000,6.19773681640625,-0.2399089724458754,-0.3512164071589708,0.99730277261585
2024-12-07 20:29:25.360750800,6.207750732421875,-0.3533503504477441,-0.2397305471390485,0.8252424707762896
2024-12-07 20:29:25.370764800,6.217764892578125,-0.6239924609400331,-0.2033048965394497,0.6267141409888863
2024-12-07 20:29:25.380778800,6.22777880859375,-0.9435961707390844,-0.2725906142115593,0.4240960576698184
2024-12-07 20:29:25.390792000,6.2377919921875,-1.2008723114408553,-0.4110387154370546,0.1970278620965778
2024-12-07 20:29:25.400805600,6.2478056640625,-1.3272867143929004,-0.4864157357215881,0.0328232421934604
2024-12-07 20:29:25.410819800,6.25781982421875,-1.2888659444533288,-0.4701560903161764,-0.0783813166670501
2024-12-07 20:29:25.420832800,6.267832763671875,-1.1525133542023598,-0.427847226896882,-0.0797837308108806
2024-12-07 20:29:25.430847000,6.277846923828125,-1.0240051938414574,-0.3608434826821088,0.0361925724960863
2024-12-07 20:29:25.440860700,6.287860595703125,-0.8890322213806211,-0.3129308079063892,0.2542237673938274
2024-12-07 20:29:25.450873900,6.297873779296875,-0.6810230926729738,-0.3258721225440502,0.4482930719457566
2024-12-07 20:29:25.460887800,6.3078876953125,-0.4530184930324554,-0.37484745811522,0.5278530770033598
2024-12-07 20:29:25.470901800,6.31790185546875,-0.3302034297466278,-0.4241711687326431,0.5606064688310026
2024-12-07 20:29:25.480915000,6.3279150390625,-0.2988439764954149,-0.4301040659129619,0.6893348478138447
2024-12-07 20:29:25.490929000,6.337928955078125,-0.3433621865272522,-0.3572656241953372,0.9390479328501968
2024-12-07 20:29:25.500942600,6.347942626953125,-0.348911783478409,-0.2666337516337633,1.2819159791849553
2024-12-07 20:29:25.510955800,6.357955810546875,-0.1449720961667597,-0.0744347709983587,1.7258958641067146
2024-12-07 20:29:25.520970000,6.367969970703125,0.285889510115236,0.3956155208557844,2.363026185169816
2024-12-07 20:29:25.530984000,6.37798388671875,0.9179976191021502,1.201785773023963,3.060004825735092
2024-12-07 20:29:25.540996900,6.387996826171875,1.558980670070648,2.0919033054232594,3.524364212471246
2024-12-07 20:29:25.551010800,6.3980107421875,1.85225839074105,2.6226228777736424,3.309644480209053
2024-12-07 20:29:25.561025000,6.40802490234375,1.5498562833726406,2.856206008198857,2.4283364233396947
2024-12-07 20:29:25.571037700,6.41803759765625,0.7558207056343555,3.267726954194903,1.5414648871243
2024-12-07 20:29:25.581052000,6.428052001953125,-0.3830325181365013,3.829151461410522,0.6583138327367604
2024-12-07 20:29:25.591065900,6.43806591796875,-1.5633026249229909,4.317401426821947,-0.2539362556893378
2024-12-07 20:29:25.601078800,6.448078857421875,-2.551117730486393,4.59729564204514,-1.0633404482774436
2024-12-07 20:29:25.611092700,6.4580927734375,-3.3047219291150567,4.522364027440548,-1.8128065241880715
2024-12-07 20:29:25.621107000,6.46810693359375,-3.5754409042358395,3.7743180474609135,-2.3957255087226628
2024-12-07 20:29:25.631119600,6.47811962890625,-3.0617922936737534,2.483057755216956,-2.471220017907023
2024-12-07 20:29:25.641133800,6.4881337890625,-1.804978022519499,1.220282968223095,-2.216129258420318
2024-12-07 20:29:25.651147800,6.498147705078125,-0.3125987994730472,0.1126934822440147,-2.014744516288489
2024-12-07 20:29:25.661162000,6.508161865234375,0.6504606350183486,-0.9964449867427349,-1.8222215643957256
2024-12-07 20:29:25.671174700,6.518174560546875,0.5329321338333189,-2.084148453512788,-1.540466085345298
2024-12-07 20:29:25.681188900,6.52818896484375,-0.454027231683582,-2.76254046702981,-1.1931170942042022
2024-12-07 20:29:25.691202800,6.538202880859375,-1.604210973894596,-2.897930349728465,-0.6912894159477204
2024-12-07 20:29:25.701215700,6.5482158203125,-2.2830267657816408,-2.524446581181884,-0.1723887300763279
2024-12-07 20:29:25.711229700,6.558229736328125,-1.9852526104748247,-1.8981816452652207,0.1264547349624335
2024-12-07 20:29:25.721244000,6.568243896484375,-0.6460954255461693,-1.209329612532258,0.0894274652078747
2024-12-07 20:29:25.731256800,6.5782568359375,1.0718774635415524,-0.3855149826020002,-0.0718365711987018
2024-12-07 20:29:25.741270800,6.588270751953125,2.1923007851958274,0.3909364231288433,0.0112045539729297
2024-12-07 20:29:25.751284700,6.59828466796875,2.751337520492077,0.8913234010577201,0.3385700568798929
2024-12-07 20:29:25.761297700,6.608297607421875,2.5462615226268768,1.2296119375824928,0.8078087400902062
2024-12-07 20:29:25.771311900,6.618311767578125,2.059458833414316,1.3786919074594974,1.261907648770511
2024-12-07 20:29:25.781325800,6.628325927734375,1.518605405062437,1.2059715342760084,1.2996977195911108
2024-12-07 20:29:25.791339000,6.638339111328125,0.911159735906124,0.7168570609897374,0.9757171098820864
2024-12-07 20:29:25.801352700,6.648352783203125,0.4586942371139302,0.1478641643464565,0.4791382920645177
2024-12-07 20:29:25.811367000,6.658366943359375,0.2009983731627464,-0.3648246612727642,-0.0211254978761076
2024-12-07 20:29:25.821379800,6.6683798828125,0.1917816685387864,-0.631446137946844,-0.3383120635308325
2024-12-07 20:29:25.831393800,6.678393798828125,0.3428735262274742,-0.6577560527235269,-0.5248835596732795
2024-12-07 20:29:25.841407700,6.68840771484375,0.5610369692027568,-0.6097481008797884,-0.6811750683642923
2024-12-07 20:29:25.851421000,6.6984208984375,0.6932242564678192,-0.5318704959511756,-0.8482903150171041
2024-12-07 20:29:25.861435000,6.708434814453125,0.7864426383912563,-0.4900777653604745,-0.9462560375981032
2024-12-07 20:29:25.871448800,6.71844873046875,0.9914905792057512,-0.467846059808135,-0.9520334519557654
2024-12-07 20:29:25.881461800,6.728461669921875,1.0778513503193854,-0.4243991322696209,-0.8479469084069132
2024-12-07 20:29:25.891476000,6.73847607421875,0.9957143343806266,-0.3756032449185848,-0.7859450641326606
2024-12-07 20:29:25.901489700,6.74848974609375,0.7912123370110988,-0.4615326388776302,-0.8839727460339665
2024-12-07 20:29:25.911502800,6.7585029296875,0.6875485489189624,-0.7421528302878141,-1.0561242332883178
2024-12-07 20:29:25.921516800,6.768516845703125,0.6349135217964649,-1.004195746999979,-1.3764141717858611
2024-12-07 20:29:25.931530800,6.77853076171875,0.6093956341803074,-1.1318354539632796,-1.7596604788035153
2024-12-07 20:29:25.941544700,6.788544677734375,0.6976373967349528,-1.187518178218603,-2.078748932556808
2024-12-07 20:29:25.951560400,6.798560546875,0.6791372789263724,-1.0194120208323,-2.310418776706606
2024-12-07 20:29:25.961574700,6.80857470703125,0.4625976377606391,-0.757263305658102,-2.4375183854438363
2024-12-07 20:29:25.971588600,6.818588623046875,0.1169324532543309,-0.4409615600138902,-2.4707903943181035
2024-12-07 20:29:25.981601800,6.828601806640625,-0.0510848933373577,-0.2251379581630229,-2.353555176991224
2024-12-07 20:29:25.991615500,6.838615478515625,-0.2285106677328236,-0.2987637508660554,-2.012001062799245
2024-12-07 20:29:26.001629700,6.848629638671875,-0.9883610490083694,-0.5227934555262327,-1.3663270775355398
2024-12-07 20:29:26.011642600,6.858642578125,-1.715456010895967,-0.6247112767338753,-0.5978159632846712
2024-12-07 20:29:26.021656600,6.868656494140625,-2.201604035592079,-0.4953624277651309,0.2748243646129966
2024-12-07 20:29:26.031670500,6.87867041015625,-2.225266650730372,-0.3417465680241585,1.2050593878671527
2024-12-07 20:29:26.041683700,6.88868359375,-1.2525930001974106,-0.5024024094045162,1.9858923696830868
2024-12-07 20:29:26.051697400,6.898697509765625,-0.1325041163955815,-1.0567220530509949,2.684816883619129
2024-12-07 20:29:26.061711600,6.908711669921875,1.133496665173769,-1.8913672890752555,2.7878338982403275
2024-12-07 20:29:26.071724500,6.918724609375,2.235430317348241,-2.7268577437520025,1.9721099280461667
2024-12-07 20:29:26.081738800,6.92873876953125,2.1179729817032813,-3.255632611775398,0.6189230487212538
2024-12-07 20:29:26.091752400,6.93875244140625,1.105195284318924,-3.349167804563045,-0.5710802243113517
2024-12-07 20:29:26.101765600,6.948765625,0.105702563910745,-3.3882816713333126,-1.2401716177806257
2024-12-07 20:29:26.111779600,6.958779541015625,-0.581694045849517,-3.423748706033826,-1.656448233871162
2024-12-07 20:29:26.121793500,6.96879345703125,-0.6592238602537661,-3.369905472165346,-2.0402412149861453
2024-12-07 20:29:26.131806700,6.978806640625,-0.4571417104423045,-3.0686615949213505,-2.06635210005939
2024-12-07 20:29:26.141820700,6.988820556640625,0.0303531257528811,-1.8707804281204936,-2.042138865301013
2024-12-07 20:29:26.151834600,6.998834716796875,0.148661452203989,0.7722527849972247,-2.423761955031007
2024-12-07 20:29:26.161847600,7.00884765625,-0.4892051472444087,4.47622070042491,-2.1314399276502427
2024-12-07 20:29:26.171861800,7.01886181640625,-0.5846504845023155,7.858461338028311,-0.2866787607967853
2024-12-07 20:29:26.181875700,7.028875732421875,0.4400888688325882,10.108615177255867,1.7274042228430508
2024-12-07 20:29:26.191888600,7.038888671875,0.90855627540946,11.297886921143531,2.974048836030066
2024-12-07 20:29:26.201902600,7.048902587890625,-1.1429296063642949,8.452463588243722,2.093129340086877
2024-12-07 20:29:26.211916800,7.058916748046875,-3.2593490019500253,2.291011919316649,-0.7118656824432313
2024-12-07 20:29:26.221930500,7.068930419921875,-2.389375847434997,-2.097081000322103,-2.723555779597163
2024-12-07 20:29:26.231943700,7.078943603515625,-0.7249263126116245,-4.8937172136992215,-3.628264147406816
2024-12-07 20:29:26.241957600,7.08895751953125,0.8408697365622967,-6.400472606492042,-3.964394044592976
2024-12-07 20:29:26.251971800,7.098971923828125,2.0841338404655456,-6.181933900463581,-3.582323649486899
2024-12-07 20:29:26.261984500,7.108984619140625,2.6166590009331703,-4.423538911551237,-3.1080265138432384
2024-12-07 20:29:26.271998700,7.118998779296875,2.6562638660907743,-1.9476205066949128,-2.270604214321077
2024-12-07 20:29:26.282012700,7.1290126953125,2.204373500305414,0.4845031800985336,-0.6815601221591234
2024-12-07 20:29:26.292025600,7.139025634765625,1.365022278547287,2.240906702932715,0.9540933070950208
2024-12-07 20:29:26.302039600,7.14903955078125,0.3700396194420755,3.073767978149652,2.243252827667445
2024-12-07 20:29:26.312053800,7.1590537109375,-0.4365151750642806,2.751469037917256,3.035247985619306
2024-12-07 20:29:26.322066400,7.16906640625,-0.6228104115486145,1.479481601420045,3.061507923774421
2024-12-07 20:29:26.332080600,7.17908056640625,-0.3065747899431735,0.1450105284810066,2.511258598306775
2024-12-07 20:29:26.342094600,7.189094482421875,0.0989373440921306,-0.5535135879606008,1.8693612089723348
2024-12-07 20:29:26.352107500,7.199107421875,0.4116857081037015,-0.5471434684067964,0.9630930445000528
2024-12-07 20:29:26.362121500,7.20912158203125,0.538172664835304,-0.3842652748018503,-0.2389069557964801
2024-12-07 20:29:26.372135700,7.2191357421875,0.4707821132600307,-0.3220645469546317,-1.3207923839375375
2024-12-07 20:29:26.382148600,7.229148681640625,0.3514052077293396,-0.2928659249991178,-1.9618302338331937
2024-12-07 20:29:26.392162600,7.23916259765625,0.3032709991574287,-0.2829366516590118,-2.258992686982453
2024-12-07 20:29:26.402176500,7.249176513671875,0.3083949911076575,-0.3063753949135542,-2.2494646879196165
2024-12-07 20:29:26.412189700,7.259189697265625,0.3562555703699588,-0.2965308772474527,-1.854754737601429
2024-12-07 20:29:26.422203600,7.26920361328125,0.3485375433385372,-0.2554290515303611,-1.130272150169313
2024-12-07 20:29:26.432217600,7.279217529296875,0.3825380126178264,-0.1910328594654798,-0.075536302499473
2024-12-07 20:29:26.442231600,7.2892314453125,0.3869487417321652,-0.0195119251996278,1.0650722405061126
2024-12-07 20:29:26.452244500,7.299244384765625,0.3294634250342845,0.1134954462766647,1.8447436311967669
2024-12-07 20:29:26.462258700,7.3092587890625,0.2769394570708274,0.2019102273106575,2.249785005915165
2024-12-07 20:29:26.472272600,7.319272705078125,0.0679120181661099,0.2727940278291702,2.268255166976899
2024-12-07 20:29:26.482285600,7.32928564453125,-0.2365864038944244,0.271252059084177,1.9712115179017184
2024-12-07 20:29:26.492299500,7.339299560546875,-0.3220961111366748,0.2080219881892204,1.5510491464190184
2024-12-07 20:29:26.502313700,7.349313720703125,-0.2465865505136549,0.073867200243473,1.10558969046399
2024-12-07 20:29:26.512326700,7.35932666015625,-0.2049216110210865,-0.0800637167960405,0.6465741489738226
2024-12-07 20:29:26.522340600,7.369340576171875,-0.1765617779772728,-0.252685890302062,0.1915035457171499
2024-12-07 20:29:26.532354600,7.3793544921875,-0.208537536495924,-0.3835673556655645,-0.1754815084598958
2024-12-07 20:29:26.542367700,7.38936767578125,-0.124802437710762,-0.3965302976131439,-0.3967633757166564
2024-12-07 20:29:26.552381400,7.39938134765625,0.0754710552435368,-0.3493406764149666,-0.5910444233231246
2024-12-07 20:29:26.562395600,7.409395751953125,0.2228033046703785,-0.2127238822698593,-0.7282229430042206
2024-12-07 20:29:26.572408600,7.41940869140625,0.2098667392730712,-0.1335439625710248,-0.8000907861240207
2024-12-07 20:29:26.582422500,7.429422607421875,0.0828559778630733,-0.014821137034893,-0.7730131018452346
2024-12-07 20:29:26.592436500,7.4394365234375,0.0463571889620274,0.0896791018813848,-0.6244979262441397
2024-12-07 20:29:26.602449700,7.44944970703125,0.1786076045911759,0.1274818860530853,-0.3506087966546416
2024-12-07 20:29:26.612463600,7.459463623046875,0.3292540200673043,0.0315811331778764,-0.0508517969675362
2024-12-07 20:29:26.622477600,7.4694775390625,0.5731283890128135,-0.1041612162202596,0.2562278006926178
2024-12-07 20:29:26.632490800,7.47949072265625,0.7192237170558422,-0.2420218729466199,0.3565245965696871
2024-12-07 20:29:26.642504700,7.489504638671875,0.8210287255387753,-0.3051385465949773,0.3028210634328425
2024-12-07 20:29:26.652518400,7.499518310546875,0.8858358364921063,-0.2802770770609378,0.2778092256426811
2024-12-07 20:29:26.662531600,7.509531494140625,0.8595534673094749,-0.2310796231716871,0.2586211255699396
2024-12-07 20:29:26.672545800,7.5195458984375,0.6637877341032028,-0.2226180842965841,0.1910939420029521
2024-12-07 20:29:26.682559700,7.529559814453125,0.5352981323122978,-0.154551094764471,0.1311351478636264
2024-12-07 20:29:26.692572700,7.53957275390625,0.5778139164805411,-0.0415378790467977,0.1216400281570851
2024-12-07 20:29:26.702586600,7.549586669921875,0.5982558890718966,0.07676350620687,0.0833754716925323
2024-12-07 20:29:26.712600800,7.559600830078125,0.452030651038885,0.0312456176131963,0.004771598315984
2024-12-07 20:29:26.722614500,7.569614501953125,0.0577459403954446,-0.0967360346555709,-0.0901964037537574
2024-12-07 20:29:26.732627700,7.579627685546875,-0.3053063043773174,-0.2124637700289487,-0.0506251486048102
2024-12-07 20:29:26.742641700,7.5896416015625,-0.3276666778106242,-0.2593389184504747,0.1500605053469538
2024-12-07 20:29:26.752655600,7.599655517578125,-0.1726455543816089,-0.3666208970397711,0.2844181223884224
2024-12-07 20:29:26.762668500,7.60966845703125,-0.1193254676043987,-0.5111480259180069,0.1899155458733439
2024-12-07 20:29:26.772682800,7.619682861328125,-0.217747336455062,-0.5492208592027426,0.0408580800890922
2024-12-07 20:29:26.782696700,7.62969677734375,-0.2826547659777104,-0.4303934042483568,0.037143443480134
2024-12-07 20:29:26.792709600,7.639709716796875,-0.2687153071481734,-0.2201011330395937,0.0516140135116875
2024-12-07 20:29:26.802723600,7.6497236328125,-0.1109748417578637,0.0201484695374965,0.1277735624760389
2024-12-07 20:29:26.812737800,7.65973779296875,0.0817009626090526,0.1043161145210266,0.2754518488615751
2024-12-07 20:29:26.822750500,7.66975048828125,-0.01509250132218,0.0679231971472501,0.4657368125692009
2024-12-07 20:29:26.832764700,7.6797646484375,-0.5989188830252736,-0.0592395399540662,0.6195043557405472
2024-12-07 20:29:26.842778600,7.689778564453125,-1.476841462174803,-0.2773743413567542,0.6178013512149453
2024-12-07 20:29:26.852791600,7.69979150390625,-2.092208425849676,-0.5432897155880928,0.4426591577120125
2024-12-07 20:29:26.862805500,7.709805419921875,-2.076936037915945,-0.536343841972947,0.1618801955435425
2024-12-07 20:29:26.872819700,7.71981982421875,-1.4144295757949352,-0.2481172672122716,0.0277137902252376
2024-12-07 20:29:26.882832600,7.72983251953125,-0.2628184311293065,-0.0683165803790092,0.147278984869644
2024-12-07 20:29:26.892846600,7.7398466796875,0.631519933835417,-0.202142282500863,0.3936311421055346
2024-12-07 20:29:26.902860500,7.749860595703125,0.764811967471987,-0.4621247595518827,0.5757112451128661
2024-12-07 20:29:26.912873500,7.75987353515625,0.3527507771193981,-0.7118196513444185,0.6347002443719655
2024-12-07 20:29:26.922887700,7.7698876953125,-0.4448142168540507,-0.7783300590842962,0.6746309074178337
2024-12-07 20:29:26.932901600,7.779901611328125,-1.5546039162911474,-0.6940969476491212,0.7575983097661286
2024-12-07 20:29:26.942914800,7.789914794921875,-2.476079148375988,-0.5532645816355943,0.999088998445496
2024-12-07 20:29:26.952925200,7.79992529296875,-2.6066414647877214,-0.4975386027604341,1.3268076987043025
2024-12-07 20:29:26.962939100,7.809939208984375,-1.7007646377205847,-0.4688210423201322,1.6510031202077864
2024-12-07 20:29:26.972953000,7.819953125,-0.1948575323201715,-0.2173509575486183,2.0049530439838765
2024-12-07 20:29:26.982966300,7.82996630859375,0.9306196386575698,0.3489432015299797,2.391658843805641
2024-12-07 20:29:26.992980200,7.839980224609375,1.1661515650629997,1.1737579484134912,2.6946210692748425
2024-12-07 20:29:27.002994200,7.849994140625,0.8075487009145319,1.9561685548096888,2.594630124476552
2024-12-07 20:29:27.013007000,7.860007080078125,0.1108466122683137,2.583848033699393,1.6383074508942663
2024-12-07 20:29:27.023021300,7.870021240234375,-0.6205506499230862,3.174191761407256,0.0891036400809884
2024-12-07 20:29:27.033035300,7.88003515625,-1.0925580671943724,3.90353187187314,-1.288032562369108
2024-12-07 20:29:27.043048200,7.890048095703125,-1.146571396932751,4.453387521848082,-2.320045121577382
2024-12-07 20:29:27.053062100,7.900062255859375,-0.4626736256062984,4.637716499760747,-3.0121301448822018
2024-12-07 20:29:27.063076400,7.910076416015625,0.366158540225029,4.272724665227532,-3.669657065024972
2024-12-07 20:29:27.073089000,7.920089111328125,0.465707367279008,3.310588775321841,-4.24037079411149
2024-12-07 20:29:27.083103200,7.930103271484375,0.3155377390017733,1.9906389796882864,-4.360780549821257
2024-12-07 20:29:27.093117200,7.9401171875,0.6686486181378364,0.7297241413474083,-3.737074650737643
2024-12-07 20:29:27.103130000,7.950130126953125,1.250924774724245,-0.2940799769639968,-2.6316885200217364
2024-12-07 20:29:27.113144000,7.96014404296875,1.3074538866758345,-0.8408399990111589,-1.468439544532448
2024-12-07 20:29:27.123158300,7.970158203125,0.8981845189988613,-0.8233429207652807,-0.4977940388262271
2024-12-07 20:29:27.133171200,7.980171142578125,0.4015934262216091,-0.461712087097764,0.1376828159414231
2024-12-07 20:29:27.143185200,7.99018505859375,0.1271264784778468,-0.0898632262766361,0.5098265680558979
2024-12-07 20:29:27.153199000,8.00019921875,0.3295207081794739,0.1824953327447175,0.8094624255813658
2024-12-07 20:29:27.163212300,8.01021240234375,0.7654641477704047,0.420864528402686,1.147427429240197
2024-12-07 20:29:27.173226200,8.020226318359375,0.8988508739531039,0.46063773586452,1.3561590270034969
2024-12-07 20:29:27.183240200,8.030240234375,0.175506186243426,0.2289969716787338,1.2093735978044569
2024-12-07 20:29:27.193253400,8.04025341796875,-0.3152595431149005,-0.1635024629831314,1.1377541764877737
2024-12-07 20:29:27.203267000,8.05026708984375,-0.4139993188083171,-0.6071411332517862,1.0937643742442131
2024-12-07 20:29:27.213281300,8.06028125,-0.455257211869955,-0.9517805001080036,0.8039885242149233
2024-12-07 20:29:27.223294200,8.070294189453126,-0.2907411879301071,-1.1869471003323793,0.5600367061190307
2024-12-07 20:29:27.233308200,8.08030810546875,-0.0927180311858654,-1.3468763810038566,0.5108721315860748
2024-12-07 20:29:27.243322000,8.090322021484376,-0.0633767950224224,-1.401563079959154,0.5345896917819977
2024-12-07 20:29:27.253336000,8.100336181640625,-0.1728571513056755,-1.330018185183406,0.5575479580432177
2024-12-07 20:29:27.263349200,8.110349365234375,-0.2779267145425081,-1.1622089649170635,0.5402750439420342
2024-12-07 20:29:27.273363200,8.12036328125,-0.2464168930351734,-0.9942109440803528,0.5436607408575713
2024-12-07 20:29:27.283377200,8.130377197265625,-0.0725754068672657,-0.8645341783314943,0.5671583746924996
2024-12-07 20:29:27.293390300,8.140390380859374,0.1796305909633636,-0.8604904558986425,0.5918760518416762
2024-12-07 20:29:27.303404000,8.150404052734375,0.4027449343442916,-0.8548422208786011,0.6750001791216432
2024-12-07 20:29:27.313418200,8.160418212890624,0.3808388074845075,-0.8627145616888999,0.6095106388621032
2024-12-07 20:29:27.323431200,8.17043115234375,0.1932522890806198,-0.8709738559901714,0.3471618710711598
2024-12-07 20:29:27.333445400,8.1804453125,0.1085135662108659,-0.917586554083228,0.1199861234702169
2024-12-07 20:29:27.343459000,8.190458984375,0.0871639224563725,-0.9090332452714442,-0.0157543262317776
2024-12-07 20:29:27.353472300,8.20047216796875,0.1279775788818486,-0.8952367751091718,-0.0356970440641045
2024-12-07 20:29:27.363486200,8.210486328125,0.1293768877531401,-0.8246259463131427,0.0632335780262947
2024-12-07 20:29:27.373500200,8.220500244140625,0.1021335280512459,-0.6608540187388658,0.2098454042240977
2024-12-07 20:29:27.383513000,8.23051318359375,0.0117909755587577,-0.4647632913619279,0.3811991652294993
2024-12-07 20:29:27.393527300,8.24052734375,0.0055891983091831,-0.3869330327063798,0.5706947321251035
2024-12-07 20:29:27.403541000,8.250541015625,-0.0627291356354951,-0.3579705575942993,0.6097440092265606
2024-12-07 20:29:27.413554200,8.26055419921875,-0.1462479795877821,-0.4379758222013711,0.585233252826333
2024-12-07 20:29:27.423568100,8.270568115234376,-0.1930138041496276,-0.6034060383766889,0.4906482587248086
2024-12-07 20:29:27.433582300,8.280582275390625,-0.0836912596434354,-0.8687333835870027,0.3359907809764146
2024-12-07 20:29:27.443595300,8.29059521484375,0.0261667069137096,-1.2309171749621628,0.1237520518749952
2024-12-07 20:29:27.453609200,8.300609130859375,0.0774631789088249,-1.5533774432361125,-0.066340019609034
2024-12-07 20:29:27.463623200,8.310623046875,0.1331944367473013,-1.7860984038740395,-0.1061643727362155
2024-12-07 20:29:27.473636000,8.320635986328124,-0.0455108377983793,-1.8831249459087849,-0.0575032176807522
2024-12-07 20:29:27.483650300,8.330650390625,-0.1561245911588892,-1.869468176478148,-0.1029305053815245
2024-12-07 20:29:27.493664300,8.340664306640624,-0.0380517539640888,-1.8991548742115496,-0.1616279012829065
2024-12-07 20:29:27.503678200,8.35067822265625,0.050696807335224,-2.0065847368389367,-0.0957987538054585
2024-12-07 20:29:27.513691100,8.360691162109376,0.0386053327262401,-2.066763603469729,0.0032858898028731
2024-12-07 20:29:27.523705300,8.370705322265625,-0.1194172375410795,-1.863939183923602,-0.0058478492453694
2024-12-07 20:29:27.533719300,8.38071923828125,-0.521248527639173,-1.539704307192564,0.1592982892915606
2024-12-07 20:29:27.543732200,8.390732177734375,-0.8557593357235193,-1.4712158773779869,0.6681830464527011
2024-12-07 20:29:27.553746200,8.40074609375,-0.370395739403367,-1.668104477134347,1.019900681132078
2024-12-07 20:29:27.563760400,8.410760498046875,0.56101241928339,-1.9640180992662903,0.9179676623553036
2024-12-07 20:29:27.573773000,8.42077294921875,1.300796766874194,-2.134821240651607,1.0396975607529282
2024-12-07 20:29:27.583787300,8.430787353515624,2.032116068458557,-2.1423247481495142,1.253938569587469
2024-12-07 20:29:27.593801200,8.44080126953125,2.566654322314262,-1.7243179472655057,0.6304521584734321
2024-12-07 20:29:27.603814100,8.450814208984376,1.613449926882982,-0.0984784944087266,-1.2313009135827422
2024-12-07 20:29:27.613828000,8.460828125,-0.7211351767003535,3.2934272126406428,-4.141680118256807
2024-12-07 20:29:27.623842300,8.47084228515625,-2.31240249786973,7.865133070877194,-5.254937128478288
2024-12-07 20:29:27.633855200,8.480855224609375,-1.906490623927116,11.211899074995516,-2.0577029296576974
2024-12-07 20:29:27.643869200,8.490869140625,-0.2961491844534873,12.68502166277766,1.3745920709252355
2024-12-07 20:29:27.653883100,8.500883056640625,-0.5873872159898281,9.461565227463842,1.7262191047117112
2024-12-07 20:29:27.663896000,8.51089599609375,-2.2872458447813986,2.05100313975811,-2.3543583100676537
2024-12-07 20:29:27.673910000,8.520909912109374,-1.8906500807166096,-2.484026892510056,-4.690628005737066
2024-12-07 20:29:27.683924200,8.53092431640625,-0.7546843950808048,-5.058207518675923,-5.4327925264626735
2024-12-07 20:29:27.693937400,8.5409375,0.7083353163599968,-6.02467763839364,-5.502506698679924
2024-12-07 20:29:27.703951000,8.550951171875,2.2392799785137174,-5.274293570855259,-4.73315109642893
2024-12-07 20:29:27.713965000,8.560965087890626,3.135665339136124,-3.713365858370065,-3.999778661707043
2024-12-07 20:29:27.723978200,8.570978271484375,3.1684184387028216,-1.7874965802341698,-3.351777110278606
2024-12-07 20:29:27.733992200,8.5809921875,2.6762825717687604,0.2565507490366697,-2.026340992188453
2024-12-07 20:29:27.744006100,8.591006103515625,1.8100819215297697,1.913844493821263,-0.4600874085053801
2024-12-07 20:29:27.754020000,8.60102001953125,0.4181833264946937,2.9793659393996,1.0701949903473258
2024-12-07 20:29:27.764033000,8.611032958984374,-0.8173650153994559,2.905720857474208,1.9992695915199807
2024-12-07 20:29:27.774047200,8.621047119140625,-0.8067021670877933,1.6180506986767054,1.7838778052151203
2024-12-07 20:29:27.784061200,8.631061279296874,0.2585269810130819,0.2166618062406778,0.9040637862958012
2024-12-07 20:29:27.794074400,8.641074462890625,0.753030271198228,-0.4085170880049467,0.1450216343969106
2024-12-07 20:29:27.804088000,8.651088134765626,0.6432243270892649,-0.4574947616636753,-0.6334460795924067
2024-12-07 20:29:27.814102300,8.661102294921875,0.4505717574674636,-0.2953121491074562,-1.4938368745088575
2024-12-07 20:29:27.824115200,8.671115234375,0.4730278463602065,-0.0611819061934947,-2.065364404196292
2024-12-07 20:29:27.834129200,8.681129150390625,0.5805927335441112,0.0523100329518318,-2.0446794896945355
2024-12-07 20:29:27.844143000,8.69114306640625,0.5483165307741612,0.0403296723008155,-1.6447649564705789
2024-12-07 20:29:27.854156300,8.70115625,0.3645650970211252,-0.0991097780495882,-1.0298889911830424
2024-12-07 20:29:27.864170200,8.711170166015625,0.5888298160135745,-0.2576297764450311,-0.428253761871159
2024-12-07 20:29:27.874184200,8.72118408203125,1.0234849693596362,-0.3309849355131387,0.0097729137346148
2024-12-07 20:29:27.884197000,8.731197021484375,1.1647299347620457,-0.2630745978474617,0.3635271688081324
2024-12-07 20:29:27.894211300,8.74121142578125,0.9888309315424412,-0.1249836394965648,0.5554121150583029
2024-12-07 20:29:27.904225000,8.75122509765625,0.6811152279358357,0.0261877497017383,0.5703913652643561
2024-12-07 20:29:27.914238200,8.76123828125,0.3652302463989704,0.2228454633116722,0.5085094941079616
2024-12-07 20:29:27.924252200,8.771252197265625,0.1410193399529904,0.3410562476724386,0.3970435078322887
2024-12-07 20:29:27.934266000,8.78126611328125,0.0276828836303204,0.2737999900013208,0.2522100894838571
2024-12-07 20:29:27.944279300,8.791279296875,0.119364046049118,0.0132230541884899,0.1216806524284183
2024-12-07 20:29:27.954293800,8.801293701171875,0.3103074006002396,-0.3039291708052158,0.0511307600393891
2024-12-07 20:29:27.964307700,8.8113076171875,0.4534310924213379,-0.5741688379764557,0.1035730410687625
2024-12-07 20:29:27.974320600,8.821320556640625,0.4836508741181343,-0.6879629749387502,0.2454150225162506
2024-12-07 20:29:27.984334600,8.83133447265625,0.432485408091545,-0.6147112762451171,0.4703649107612669
2024-12-07 20:29:27.994348800,8.841348876953125,0.3608253625035286,-0.392110143083334,0.7809707828514277
2024-12-07 20:29:28.004362800,8.85136279296875,0.2999310410797596,-0.1197457388430833,1.0556814579568805
2024-12-07 20:29:28.014375700,8.861375732421875,0.2975087093036622,0.1624906555920839,1.1384268150523305
2024-12-07 20:29:28.024389600,8.8713896484375,0.2283353659648448,0.3685118253529071,1.0092467467792332
2024-12-07 20:29:28.034403800,8.88140380859375,0.1365945823132991,0.4101461505115032,0.7444545313589275
2024-12-07 20:29:28.044416800,8.891416748046876,0.2131130277179181,0.3148287504822015,0.4555494728147983
2024-12-07 20:29:28.054430700,8.9014306640625,0.3204360689699649,0.1058773724883794,0.1476654269039631
2024-12-07 20:29:28.064444700,8.911444580078125,0.3588917640924453,-0.1291331603914499,-0.2709289646096527
2024-12-07 20:29:28.074457600,8.92145751953125,0.314324308091402,-0.3154273008972406,-0.6425926781222224
2024-12-07 20:29:28.084471800,8.931471923828125,0.3000257336258888,-0.423406614100933,-0.7551935136467218
2024-12-07 20:29:28.094485800,8.94148583984375,0.3768424313247203,-0.3797971894770861,-0.6290297244548797
2024-12-07 20:29:28.104498700,8.951498779296875,0.4729857607841491,-0.2675689866572618,-0.4655272614717483
2024-12-07 20:29:28.114512600,8.9615126953125,0.4678465712647884,-0.1457908652037382,-0.2527304600961506
2024-12-07 20:29:28.124526800,8.97152685546875,0.2557587949413806,-0.0319219094395637,-0.0243061737388372
2024-12-07 20:29:28.134539800,8.981539794921876,-0.0986193641841411,0.0438011478036642,0.2731187297388911
2024-12-07 20:29:28.144553700,8.9915537109375,-0.3543909455418586,0.0905015241801738,0.5002760649003088
2024-12-07 20:29:28.154567700,9.001567626953126,-0.4657878851693123,0.0672509969741106,0.6526587295845151
2024-12-07 20:29:28.164580900,9.011580810546874,-0.3437631685435772,-0.048698856717348,0.7259798402525484
2024-12-07 20:29:28.174594600,9.021594482421875,-0.186802674549818,-0.1995101804316043,0.7774494768574833
2024-12-07 20:29:28.184608800,9.03160888671875,-0.2947206129550934,-0.4074351379871368,0.707620738349855
2024-12-07 20:29:28.194621700,9.04162158203125,-0.496160957731679,-0.5322393292635679,0.6762634770557284
2024-12-07 20:29:28.204635600,9.0516357421875,-0.4982417095284909,-0.5119242709875107,0.7340303141087293
2024-12-07 20:29:28.214649600,9.061649658203123,-0.3008067279357463,-0.3722510118812322,0.8017182411953806
2024-12-07 20:29:28.224662800,9.071662841796876,-0.1476523482266813,-0.1651777027189731,0.824057644905895
2024-12-07 20:29:28.234676700,9.0816767578125,-0.1806255202848464,-0.0449058941751718,0.8077510916188358
2024-12-07 20:29:28.244690700,9.091690673828126,-0.2935212471026927,0.0444189874410629,0.8140520914591849
2024-12-07 20:29:28.254704600,9.10170458984375,-0.4161983632225543,0.0698345837265253,0.7989537449181079
2024-12-07 20:29:28.264717800,9.1117177734375,-0.4046866429965943,0.0397737919837236,0.8044903362572192
2024-12-07 20:29:28.274731500,9.1217314453125,-0.2741408393282443,-0.0635515579342842,0.7627065196253359
2024-12-07 20:29:28.284745700,9.131745849609375,0.00514035856314,-0.2227297279775142,0.7750340132135898
2024-12-07 20:29:28.294759000,9.141759033203124,0.3599767097849398,-0.3414946390897035,0.8448420011941343
2024-12-07 20:29:28.304772900,9.15177294921875,0.6086357557237148,-0.5497013361960649,0.6659244538709521
2024-12-07 20:29:28.314786600,9.16178662109375,0.439747434983775,-0.7639806312143802,0.1957422062002122
2024-12-07 20:29:28.324799700,9.1717998046875,0.1208451514523476,-0.5948340248644352,-0.0392797979217022
2024-12-07 20:29:28.334814000,9.18181396484375,-0.1991525991655886,-0.4291454500138759,-0.2235951857004314
2024-12-07 20:29:28.344827600,9.19182763671875,-0.2989959521867334,-0.2382066985726356,-0.2272658370371907
2024-12-07 20:29:28.354840800,9.2018408203125,-0.1572492478072643,-0.1569856284350156,-0.1238785277988761
2024-12-07 20:29:28.364854800,9.211854736328124,-0.0141700527150183,-0.1591699867367744,-0.1127495232801884
2024-12-07 20:29:28.374868700,9.22186865234375,-0.0563866347409784,-0.1962427030682563,-0.2585102125413716
2024-12-07 20:29:28.384881700,9.231881591796874,-0.4949895027995109,-0.2204951007932424,-0.4442682734090835
2024-12-07 20:29:28.394896000,9.241895751953123,-1.0664824726302176,-0.243314250844717,-0.3695210754606872
2024-12-07 20:29:28.404909800,9.251909912109374,-1.308647480374575,-0.2705459566414356,-0.0654615562740713
2024-12-07 20:29:28.414922800,9.2619228515625,-1.1758008524179455,-0.32339199616611,0.2703640972685068
2024-12-07 20:29:28.424936700,9.271936767578126,-0.8666659296631812,-0.4172930996567011,0.4657807978413998
2024-12-07 20:29:28.434951000,9.281950927734377,-0.787509975361824,-0.5071744461119174,0.5050928905975073
2024-12-07 20:29:28.444963600,9.291963623046875,-1.1209994410417974,-0.4895779991447925,0.5436321723502129
2024-12-07 20:29:28.454977800,9.301977783203125,-1.472685365408659,-0.3423439493954181,0.7806033377785235
2024-12-07 20:29:28.464991700,9.31199169921875,-1.4844541291356086,0.0492693500816822,1.213026202027872
2024-12-07 20:29:28.475004700,9.322004638671874,-1.1202246572770178,0.834267634883523,1.7696113794535395
2024-12-07 20:29:28.485018600,9.3320185546875,-0.514173657349497,1.9478695130199195,2.262173947367072
2024-12-07 20:29:28.495032800,9.34203271484375,0.2964833848439157,3.062197951865196,2.661443314555288
2024-12-07 20:29:28.505045800,9.352045654296877,0.7918962276220322,3.451913308766484,2.288241285559535
2024-12-07 20:29:28.515059700,9.362059814453126,0.6211657130815088,3.0111446409761906,1.006339334899932
2024-12-07 20:29:28.525073700,9.37207373046875,0.2755272521853447,3.1188521515011787,0.5183865988694131
2024-12-07 20:29:28.535087900,9.382087890625,-0.5922248652793467,3.7366847746372223,0.3716937433246522
2024-12-07 20:29:28.545100800,9.392100830078125,-1.8011656246244907,4.216066958460211,-0.244208057879284
2024-12-07 20:29:28.555114800,9.40211474609375,-2.6169477547466755,4.285638507336378,-0.8940575752619654
2024-12-07 20:29:28.565128700,9.412128662109374,-2.314571074080467,3.963800170353055,-1.1286346851605922
2024-12-07 20:29:28.575141600,9.4221416015625,-0.9806828425306826,2.984807838192582,-1.1654704509310423
2024-12-07 20:29:28.585155800,9.43215576171875,0.6720646371264011,1.5512825167834758,-1.2997263611637055
2024-12-07 20:29:28.595169800,9.442169677734377,1.777784749037027,-0.1147287874639034,-1.4228887765824794
2024-12-07 20:29:28.605182700,9.4521826171875,2.18408942168951,-1.7759581181317567,-1.2012562692571431
2024-12-07 20:29:28.615196700,9.46219677734375,2.0333646072149274,-2.992870148617029,-0.7611988184761256
2024-12-07 20:29:28.625211000,9.4722109375,1.5102175159454343,-3.4691076046735048,-0.2258119119018316
2024-12-07 20:29:28.635223600,9.4822236328125,1.0567618005394934,-3.145508103236556,0.044627661755681
2024-12-07 20:29:28.645237800,9.49223779296875,0.6967664591193199,-2.015802647039294,0.2548813545197248
2024-12-07 20:29:28.655251700,9.502251708984376,0.4992284190108999,-0.4056085070818662,0.7710397559456527
2024-12-07 20:29:28.665265000,9.512264892578123,0.5384896218299865,0.8757371248692274,1.45492875944376
2024-12-07 20:29:28.675278600,9.522278564453124,0.1330242495458573,1.515778072682023,1.6597602810285983
2024-12-07 20:29:28.685292800,9.532292724609375,-0.2104021613240242,1.5617553954809904,1.0635213578023015
2024-12-07 20:29:28.695305700,9.5423056640625,-0.1251215866625309,1.1508739164322614,0.078527885530889
2024-12-07 20:29:28.705319700,9.552319580078125,0.2307026065528392,0.4696007945209741,-0.7065528168573976
2024-12-07 20:29:28.715333600,9.562333740234376,0.5698293474674224,-0.2529267133206129,-1.0737047520339489
2024-12-07 20:29:28.725346800,9.572346923828125,0.6632908904969692,-0.912185571822524,-1.099958991100639
2024-12-07 20:29:28.735360500,9.582360595703124,0.4083154279530048,-1.4028946208238602,-1.010030590633303
2024-12-07 20:29:28.745374700,9.592374755859376,0.0160614924848079,-1.6490911491066216,-0.8494786480188369
2024-12-07 20:29:28.755388000,9.602387939453124,-0.3711269762873649,-1.6563479883670806,-0.6719771780386566
2024-12-07 20:29:28.765401900,9.61240185546875,-0.7331248897016048,-1.4547089792132375,-0.4919404904924332
2024-12-07 20:29:28.775415600,9.62241552734375,-1.001193642574549,-1.1682190189868211,-0.3236982856363058
2024-12-07 20:29:28.785428700,9.6324287109375,-1.1120236690342429,-0.9149433460980652,-0.2059878520131111
2024-12-07 20:29:28.795443000,9.64244287109375,-1.024345385581255,-0.7076151853919029,-0.1689922925710678
2024-12-07 20:29:28.805456600,9.65245654296875,-0.6877052007853984,-0.7292886725395917,-0.190660372891277
2024-12-07 20:29:28.815470600,9.662470703125,-0.2168693115115165,-0.9030167614609004,-0.1871431585505604
2024-12-07 20:29:28.825483800,9.67248388671875,0.1468272225141525,-1.0854057112216948,-0.2770996160686016
2024-12-07 20:29:28.835497700,9.682497802734376,0.4203209230452776,-1.1995716041058302,-0.4051651472285389
2024-12-07 20:29:28.845511700,9.69251171875,0.6719663643836975,-1.2005185295671223,-0.5500049953177572
2024-12-07 20:29:28.855524900,9.70252490234375,0.7549976988136768,-1.1397621553093191,-0.6658981503859162
2024-12-07 20:29:28.865538800,9.712538818359375,0.5228793802440166,-0.9763736740946768,-0.578138618390262
2024-12-07 20:29:28.875552800,9.722552734375,0.1390484052062034,-0.6208464179992675,-0.349313788408041
2024-12-07 20:29:28.885565700,9.732565673828123,-0.2603928114175796,-0.1411661280125379,-0.0703588998615741
2024-12-07 20:29:28.895580000,9.742579833984376,-0.4534522082746028,0.2512245855778455,0.0781032303780317
2024-12-07 20:29:28.905593600,9.752593505859377,-0.2868143698751926,0.3917962548285723,0.2104942235216498
2024-12-07 20:29:28.915606800,9.762606689453126,-0.1401601658403873,0.3607318390011787,0.5314686371520161
2024-12-07 20:29:28.925620700,9.772620849609376,0.0626794512748718,0.1250105275034904,0.8093406988978386
2024-12-07 20:29:28.935635000,9.782635009765626,0.3727887720197439,-0.3102946141839027,1.0928688867092131
2024-12-07 20:29:28.945647600,9.792647705078124,0.2557598909199238,-0.9892851781159638,1.1821905534550547
2024-12-07 20:29:28.955661000,9.8026611328125,0.4287672643512487,-1.89693486007452,1.152296058189869
2024-12-07 20:29:28.965675000,9.812675048828124,0.7211205636531114,-2.8455139337927102,1.1230351846531033
2024-12-07 20:29:28.975688200,9.822688232421877,1.0552759458959102,-3.5333196723431346,1.0591235612347722
2024-12-07 20:29:28.985702100,9.8327021484375,1.3963696029692887,-3.899356047493219,0.9783288998156784
2024-12-07 20:29:28.995716000,9.842716064453125,1.5291069253325462,-3.937380949983,0.8038491157442331
2024-12-07 20:29:29.005729300,9.852729248046876,1.4117431131899356,-3.627196810436248,0.4082794798567891
2024-12-07 20:29:29.015743000,9.862742919921876,0.948670843654871,-3.134763421860337,-0.33906741194278
2024-12-07 20:29:29.025757200,9.872757080078124,0.7668541408240794,-2.885359621968865,-0.9330807680740952
2024-12-07 20:29:29.035770000,9.88277001953125,0.6943208195328712,-2.6865444380640984,-1.3085767532259225
2024-12-07 20:29:29.045784000,9.8927841796875,0.007277334059216,-1.5241753141492604,-1.9160665537849064
2024-12-07 20:29:29.055798000,9.902798095703124,-2.110650091469288,1.8239321677058933,-3.3408623330324887
2024-12-07 20:29:29.065811200,9.912811279296877,-3.854932383877039,6.6058513866961,-3.648932549165189
2024-12-07 20:29:29.075825200,9.9228251953125,-2.0147557683348656,10.201562341022491,-1.5261089125603438
2024-12-07 20:29:29.085839000,9.932839111328123,1.2379355292916296,12.763489050292968,0.7336173493936657
2024-12-07 20:29:29.095853000,9.94285302734375,2.050812585622072,12.89810093435645,0.9355629402786492
2024-12-07 20:29:29.105866200,9.9528662109375,-3.0826644013106823,6.688602735140919,-1.9098694527104496
2024-12-07 20:29:29.115880000,9.9628798828125,-5.5434594713151455,-0.0697603494465351,-3.8282241174325344
2024-12-07 20:29:29.125894100,9.97289404296875,-2.4037960024535656,-3.969481138598919,-4.174291763526201
2024-12-07 20:29:29.135907000,9.982906982421875,0.9524527002811431,-6.341153571560978,-4.029422689342499
2024-12-07 20:29:29.145921300,9.99292138671875,3.152890030181408,-7.095848488035798,-3.3375399106115102
2024-12-07 20:29:29.155935000,10.00293505859375,3.893579802179336,-6.073011753451824,-2.238024717755616
2024-12-07 20:29:29.165948200,10.0129482421875,3.239209884762764,-3.66490490206182,-1.1519336546182632
2024-12-07 20:29:29.175962000,10.022962158203123,2.392959989532083,-0.7502297537595033,0.021885668593645
2024-12-07 20:29:29.185976000,10.03297607421875,1.7069360198318957,1.503002762261033,1.2597092619433998
2024-12-07 20:29:29.195989200,10.0429892578125,0.6005495529670268,2.876493593946099,1.9486938350148493
2024-12-07 20:29:29.206003200,10.053003173828126,-0.6294587635219097,3.258505536863208,1.78905827659294
2024-12-07 20:29:29.216017000,10.063016845703125,-0.7616132444959134,2.3969606034755704,1.0136264231681824
2024-12-07 20:29:29.226030000,10.073030029296875,-0.3640366527002304,1.0877800391376018,0.2180605671226978
2024-12-07 20:29:29.236044300,10.083044189453124,-0.3936030485222115,0.2808130836337804,-0.5272866752922535
2024-12-07 20:29:29.246058200,10.093058349609375,-0.3801952854165807,-0.2031961754679679,-1.3727688010208308
2024-12-07 20:29:29.256071200,10.1030712890625,-0.1261585284948349,-0.5738678092032671,-2.02830615478158
2024-12-07 20:29:29.266085000,10.113085205078123,0.1861152768075466,-0.7818646629512309,-2.325176785377413
2024-12-07 20:29:29.276099300,10.123099365234374,0.3810626793682575,-0.8136217372179031,-2.361597613671422
2024-12-07 20:29:29.286112000,10.133112060546877,0.475589184748195,-0.7044213577866554,-2.2226427319675683
2024-12-07 20:29:29.296126200,10.143126220703126,0.7592225499670953,-0.578795328733325,-1.8926903543725608
2024-12-07 20:29:29.306140200,10.15314013671875,0.877664293539524,-0.3725456109136342,-1.452317407901585
2024-12-07 20:29:29.316153000,10.163153076171875,0.4833855742454528,-0.0894458776473998,-0.9325878699906168
2024-12-07 20:29:29.326167000,10.1731669921875,-0.0417055637639015,0.2274246077954769,-0.1728062979012727
2024-12-07 20:29:29.336181200,10.18318115234375,-0.3007574819665402,0.5143734177052974,0.7206563071422278
2024-12-07 20:29:29.346194000,10.19319384765625,-0.1591792660217732,0.6609083792746067,1.475363790837675
2024-12-07 20:29:29.356208000,10.2032080078125,0.0390285265743732,0.625730098387599,1.8419221440352496
2024-12-07 20:29:29.366222000,10.21322216796875,0.0794680159252136,0.4525052828133106,1.9039890163697304
2024-12-07 20:29:29.376236300,10.223236328125,-0.0532721559822559,0.2347469135075807,1.8057279641039667
2024-12-07 20:29:29.386249000,10.2332490234375,-0.0742717259237542,-0.0105313308864831,1.5339622564092277
2024-12-07 20:29:29.396263200,10.24326318359375,0.31280564715676,-0.2705219912439585,1.1754064462728795
2024-12-07 20:29:29.406277000,10.253277099609376,0.8479308340549468,-0.4205377806663513,0.7851996525928377
2024-12-07 20:29:29.416290000,10.2632900390625,1.3067887007653711,-0.5032639946699142,0.3431348075121641
2024-12-07 20:29:29.426304000,10.273303955078124,1.4340519756317138,-0.5746276876598596,-0.1346833418644964
2024-12-07 20:29:29.436318200,10.283318115234374,1.095875667309761,-0.5597352389544248,-0.5119910526134074
2024-12-07 20:29:29.446331100,10.2933310546875,0.5495044253844767,-0.4452537042498588,-0.7600704720333218
2024-12-07 20:29:29.456345000,10.303344970703124,0.0803320854086428,-0.3116886988908052,-0.7983417504996061
2024-12-07 20:29:29.466359000,10.313359130859377,-0.210676923144795,-0.2154214507907629,-0.5948515605211258
2024-12-07 20:29:29.476372000,10.3233720703125,-0.4191758446633815,-0.1084212117522955,-0.1343180156834423
2024-12-07 20:29:29.486386200,10.33338623046875,-0.5834989763796329,-0.0764572167366743,0.4298905692927539
2024-12-07 20:29:29.496400100,10.343400146484376,-0.5854266565065831,-0.0774175862014293,0.9676870942920446
2024-12-07 20:29:29.506413300,10.353413330078125,-0.4472282191932201,-0.0907166282355785,1.401084794922918
2024-12-07 20:29:29.516427000,10.363427001953124,-0.3216588887631893,-0.121525607997179,1.7557172941356896
2024-12-07 20:29:29.526441200,10.373441162109376,-0.1461421993920579,-0.1103624089479446,2.065607273041457
2024-12-07 20:29:29.536454100,10.3834541015625,0.2724327567687258,-0.0411205304175615,2.283879144827276
2024-12-07 20:29:29.546468000,10.393468017578124,0.8260919272124767,0.0310094707697629,2.281211094661802
2024-12-07 20:29:29.556482000,10.40348193359375,1.1586112326860427,0.0299047243982553,1.8849325798526408
2024-12-07 20:29:29.566495200,10.4134951171875,1.0516413157206028,-0.0147170921385288,1.0140455253630876
2024-12-07 20:29:29.576509000,10.423509033203125,0.6186871941387653,-0.0958060603290796,-0.0349989787973463
2024-12-07 20:29:29.586523100,10.433523193359376,0.0404618473131209,-0.1859983724296093,-0.979251275357604
2024-12-07 20:29:29.596536000,10.4435361328125,-0.5332931491654366,-0.3452420089244842,-1.6507630278415977
2024-12-07 20:29:29.606550300,10.45355029296875,-0.8047627965230494,-0.4157522999554872,-1.80959194605574
2024-12-07 20:29:29.616564000,10.46356396484375,-0.745646590687707,-0.3375543770313263,-1.3998989461392164
2024-12-07 20:29:29.626577200,10.4735771484375,-0.3018202888924628,-0.230098795440793,-0.7457811037875711
2024-12-07 20:29:29.636591000,10.483591064453124,0.3688916915159672,-0.1668529424548149,-0.1543969271160662
2024-12-07 20:29:29.646605000,10.49360498046875,0.8565337541621177,-0.2147036579102277,0.1627837933197617
2024-12-07 20:29:29.656619000,10.503618896484374,0.948922188067436,-0.3472013262987136,0.1087234095692634
2024-12-07 20:29:29.666632200,10.513632080078125,0.7032523140072822,-0.5332920531868934,-0.2196826153665781
2024-12-07 20:29:29.676646000,10.52364599609375,0.2454033320784568,-0.5883037463128566,-0.6107368196561932
2024-12-07 20:29:29.686660000,10.53366015625,-0.3237082225084304,-0.5297609564512967,-0.933889600238949
2024-12-07 20:29:29.696673300,10.54367333984375,-1.0044061748802662,-0.3042126639217138,-1.0097587879545986
2024-12-07 20:29:29.706687200,10.553687255859376,-1.5108943922936915,-0.0262029472708702,-0.4845176470153033
2024-12-07 20:29:29.716701000,10.563700927734375,-1.24699912571311,0.1112947213619947,0.3792832486055791
2024-12-07 20:29:29.726714000,10.573714111328124,-0.3370258961778133,0.1692810463845729,0.9049738868780434
2024-12-07 20:29:29.736728000,10.58372802734375,0.6716846978981047,-0.0095411508053541,0.8765148312434553
2024-12-07 20:29:29.746742000,10.593741943359374,1.2302666020989417,-0.3093114483654499,0.5344602201834321
2024-12-07 20:29:29.756755200,10.603755126953123,1.3022456505082547,-0.5249538484305143,0.1474599674597382
2024-12-07 20:29:29.766769200,10.61376904296875,0.8624760767579078,-0.5895914480358362,-0.2398684943050145
2024-12-07 20:29:29.776783000,10.623783203125,0.1473462779521942,-0.5592155989944935,-0.6913551015950739
2024-12-07 20:29:29.786796000,10.633796142578126,-0.4487127586625516,-0.434703084141016,-1.1289748038351537
2024-12-07 20:29:29.796810200,10.643810302734376,-0.8370889759145677,-0.2155897930949926,-1.368875885235518
2024-12-07 20:29:29.806824200,10.65382421875,-1.0208684301856903,0.0229641114801168,-1.2291612712055444
2024-12-07 20:29:29.816837000,10.663837158203124,-1.0171452449440956,0.2691004340082407,-0.7347741182133555
2024-12-07 20:29:29.826851000,10.67385107421875,-0.8550139241836965,0.4269833035439253,-0.0731141899190843
2024-12-07 20:29:29.836865300,10.683865234375,-0.4869990885674953,0.4847480947703123,0.6155627054426819
2024-12-07 20:29:29.846878000,10.6938779296875,-0.0805061998665332,0.3278174113929271,0.9952471552602946
2024-12-07 20:29:29.856892200,10.70389208984375,0.1214577303927391,0.1538502530187368,1.172718887689337
2024-12-07 20:29:29.866906000,10.713906005859377,0.1809654928289353,0.073134209793806,1.3431785493992268
2024-12-07 20:29:29.876919000,10.7239189453125,0.151541829945892,0.0663426499575376,1.5067989396736026
2024-12-07 20:29:29.886933000,10.73393310546875,0.1166658930063247,0.105973234078288,1.644317651094496
2024-12-07 20:29:29.896947200,10.743947265625,-0.0078711717665195,0.2858890717238188,1.839692046895623
2024-12-07 20:29:29.906960100,10.753960205078124,-0.118216191188246,0.705973847925663,2.117880334983766
2024-12-07 20:29:29.916974000,10.76397412109375,-0.1245088615916669,1.3374334298759698,2.434918285948038
2024-12-07 20:29:29.926988000,10.773988037109374,-0.1514940452814102,2.010334444761276,2.609748783153296
2024-12-07 20:29:29.937001200,10.784001220703123,-0.3323569545187055,2.649136206167936,2.250221351505816
2024-12-07 20:29:29.947015200,10.79401513671875,-0.7638216412603854,3.076153411981464,1.4031228766217827
2024-12-07 20:29:29.957029400,10.804029296875,-1.3433774329721926,3.238838128840923,0.3139060826793313
2024-12-07 20:29:29.967043300,10.814043212890626,-2.110508929432928,3.193382784089446,-0.7111414598219096
2024-12-07 20:29:29.977056300,10.82405615234375,-3.031024230444431,2.9025083251684904,-1.3373892984732985
2024-12-07 20:29:29.987070200,10.8340703125,-3.6715433171629903,2.288648112794757,-1.459788474434614
2024-12-07 20:29:29.997084400,10.84408447265625,-3.791378487855196,1.6281740332841872,-1.070912490966916
2024-12-07 20:29:30.007097300,10.854097412109375,-3.420988009148836,0.991183705213666,-0.2072015751844272
2024-12-07 20:29:30.017111300,10.864111328125,-2.6708336587131023,0.4475590585827827,0.8457868077635765
2024-12-07 20:29:30.027125200,10.874125244140624,-1.840668636842817,0.0043581952095031,1.7046223360620438
2024-12-07 20:29:30.037138200,10.88413818359375,-1.285997111018747,-0.420599739986658,1.9849211865633725
2024-12-07 20:29:30.047152400,10.89415234375,-0.9041992492437362,-0.8733347399026155,1.641933532436937
2024-12-07 20:29:30.057166300,10.904166259765624,-0.3331060923855751,-1.2517436898916958,1.09360669946447
2024-12-07 20:29:30.067179300,10.91417919921875,0.9178103529017418,-1.4699486339211465,0.6779846017599106
2024-12-07 20:29:30.077193200,10.924193115234376,2.872304325562715,-1.4426111296623945,0.1077363347606733
2024-12-07 20:29:30.087207400,10.93420751953125,4.249121086800098,-0.9867366626769304,-0.5055388807993382
2024-12-07 20:29:30.097220400,10.944220458984375,4.452985955309868,-0.3529319789052009,-0.8601873082336038
2024-12-07 20:29:30.107234300,10.954234375,4.033361197835207,0.0473123707950115,-0.8159349095311015
2024-12-07 20:29:30.117248300,10.964248291015624,3.0403017618775365,0.3242342922091484,-0.5100367036752402
2024-12-07 20:29:30.127261400,10.974261474609374,1.4831903928101062,0.5600263308554887,-0.4662026765152812
2024-12-07 20:29:30.137275100,10.984275146484377,0.0617745931233279,0.6294166779458522,-0.8088357450503856
2024-12-07 20:29:30.147289300,10.994289306640624,-0.5965618715703487,0.4243225599020719,-1.1854657026682047
2024-12-07 20:29:30.157302300,11.00430224609375,-0.2650233938276767,0.1770358982950449,-1.2449538836210965
2024-12-07 20:29:30.167316500,11.01431640625,0.5260568412363529,0.1129027410805225,-1.0410698720194398
2024-12-07 20:29:30.177330200,11.024330078125,1.170792668867111,0.102157475182414,-0.8910768058855086
2024-12-07 20:29:30.187343400,11.03434326171875,1.5189491039335727,0.0990513258606195,-0.7738922227673232
2024-12-07 20:29:30.197357300,11.044357421875,1.535651232409477,0.1065349596142768,-0.5583383777685463
2024-12-07 20:29:30.207371300,11.054371337890624,1.2121405782997607,-0.0191448454529047,-0.2009112794011831
2024-12-07 20:29:30.217384400,11.064384521484374,0.5927519578933715,-0.1398304954946041,0.1534023631207645
2024-12-07 20:29:30.227398400,11.0743984375,0.0506195956468582,-0.2761363239943981,0.3130737235084176
2024-12-07 20:29:30.237412000,11.084412109375,-0.2553799516916274,-0.2617664378583431,0.3597156476959586
2024-12-07 20:29:30.247425300,11.09442529296875,-0.3882534676551818,-0.1080208142578601,0.375339917807281
2024-12-07 20:29:30.257439500,11.104439453125,-0.4668324988514185,0.1392348676890134,0.3279955444388091
2024-12-07 20:29:30.267453400,11.114453369140625,-0.5266635749578475,0.4436731570601463,0.0563612080387771
2024-12-07 20:29:30.277467100,11.124467041015626,-0.3908534210205078,0.733238286948204,-0.4308277040123939
2024-12-07 20:29:30.287480300,11.134480224609376,0.0701566552877426,0.8065326557397842,-0.9849391117356716
2024-12-07 20:29:30.297494500,11.14449462890625,0.949839887434244,0.5337853896617889,-1.4095010333515705
2024-12-07 20:29:30.307508200,11.15450830078125,1.4856594132721423,0.0109141927242279,-1.496948869049549
2024-12-07 20:29:30.317521400,11.164521484375,1.364611944180727,-0.6860124253928661,-1.6699207327760754
2024-12-07 20:29:30.327535400,11.174535400390624,1.227420565018058,-1.3826397683024405,-1.8231956701248884
2024-12-07 20:29:30.337549300,11.18454931640625,1.019397407785058,-1.9271207395017147,-1.5422633440256115
2024-12-07 20:29:30.347562200,11.194562255859376,1.0105261190652848,-2.207105555617809,-0.8866542402029037
2024-12-07 20:29:30.357576400,11.204576416015623,1.0177081395238636,-2.1545476853847503,-0.3243336609303951
2024-12-07 20:29:30.367590400,11.21459033203125,0.4845844286412,-1.9891320822566747,-0.1829474604263901
2024-12-07 20:29:30.377603300,11.224603271484376,0.2483025606513023,-2.191370226347446,-0.5150906260639428
2024-12-07 20:29:30.387617300,11.2346171875,0.284486219188571,-2.7065871091395617,-0.9216346604302526
2024-12-07 20:29:30.397631500,11.244631591796876,-0.5715069252908229,-3.09522051602304,-1.4210016476616265
2024-12-07 20:29:30.407644200,11.25464404296875,-0.9233061007738111,-3.1601790181457994,-1.7325863016560672
2024-12-07 20:29:30.417658400,11.264658447265624,-0.3561901039183139,-3.0789567789644,-1.7769231637716292
2024-12-07 20:29:30.427672300,11.27467236328125,0.464824666160345,-3.20115341809094,-1.672529892361164
2024-12-07 20:29:30.437685200,11.284685302734376,0.6593781009674072,-3.2804327065110206,-1.6576085098221898
2024-12-07 20:29:30.447699200,11.29469921875,0.2478022099137306,-2.8695407060682774,-1.5763716575935482
2024-12-07 20:29:30.457713400,11.30471337890625,-0.3049275159264915,-1.9922540136694904,-1.0545727660626172
2024-12-07 20:29:30.467726300,11.314726318359376,-0.4458510490885004,-0.5935591826230288,-0.5176828345142305
2024-12-07 20:29:30.477740300,11.324740234375,0.6688941173315048,1.4525328042179346,-0.7945683694407344
2024-12-07 20:29:30.487754200,11.334754150390625,1.3626046960115432,4.124947594642639,-1.4500219904407858
2024-12-07 20:29:30.497767200,11.34476708984375,0.1579670041551813,7.223416298806667,-1.2568626403406262
2024-12-07 20:29:30.507781400,11.354781494140624,-2.232043597519397,10.486969182187318,-0.0277203660964965
2024-12-07 20:29:30.517795300,11.36479541015625,-3.47491599869132,12.430249613851307,1.5601774786397813
2024-12-07 20:29:30.527808500,11.37480859375,-1.7021955473065375,8.458078505516053,1.2890186507970094
2024-12-07 20:29:30.537822200,11.384822265625,0.0515384640574455,1.6150976940900086,-0.823435567484796
2024-12-07 20:29:30.547836400,11.39483642578125,0.8790461032867432,-2.184162486925721,-1.8435647966757416
2024-12-07 20:29:30.557849300,11.404849365234377,1.6550421664655208,-4.686334107935428,-2.0580159411296246
2024-12-07 20:29:30.567863300,11.41486328125,2.1262848829746246,-6.447995989689231,-2.1147417446970938
2024-12-07 20:29:30.577877200,11.424877197265625,2.1543571312487124,-7.299192547541856,-2.133684637837112
2024-12-07 20:29:30.587891500,11.434891357421876,1.7472691992640494,-6.694335141313076,-2.0792351086385548
2024-12-07 20:29:30.597904100,11.444904052734374,1.0012602780699729,-4.50428827252388,-1.8318218980424104
