time,seconds_elapsed,z,y,x
2024-12-07 17:59:51.833280500,0.018280517578125,0.0960562356978654,-0.1533884807258844,0.002070084272325
2024-12-07 17:59:51.843253500,0.02825341796875,0.1312880003377795,-0.210201085793972,-0.1940066145792603
2024-12-07 17:59:51.853226800,0.038226806640625,0.0314199512667953,-0.2565478264272213,-0.2529690911576152
2024-12-07 17:59:51.863199500,0.048199462890625,-0.1779930528894066,-0.3365256185054779,-0.2281637357249855
2024-12-07 17:59:51.873172500,0.05817236328125,-0.2965118802860379,-0.5534679952532052,-0.2013277512475848
2024-12-07 17:59:51.883146500,0.068146484375,-0.1960734839811921,-0.9559861351042984,-0.1887222444355487
2024-12-07 17:59:51.893119500,0.078119384765625,0.0809369924992323,-1.3194143735826014,-0.3226934925079345
2024-12-07 17:59:51.903092700,0.0880927734375,0.1098318092025816,-1.7134277199387549,-0.350947527089715
2024-12-07 17:59:51.913065700,0.098065673828125,0.0276795956946909,-1.5762304955571889,-0.5186065252304077
2024-12-07 17:59:51.923038500,0.10803857421875,0.1567091495811939,-1.3488602482974528,-0.6232111013039946
2024-12-07 17:59:51.933011500,0.118011474609375,0.2464215692102909,-1.378490831929445,-0.5717641149222851
2024-12-07 17:59:51.942984700,0.127984619140625,0.3416109589457511,-1.3486498204171655,-0.6078332071691751
2024-12-07 17:59:51.952957700,0.137957763671875,0.1352059044338762,-1.227699966481328,-0.3380123499318957
2024-12-07 17:59:51.962930700,0.1479306640625,-0.0411940340451896,-0.9251432530730962,-0.2221083812087774
2024-12-07 17:59:51.972903400,0.1579033203125,0.0350859264284372,-0.7446949159860611,-0.2794000019654631
2024-12-07 17:59:51.982877400,0.16787744140625,0.0846117354892194,-0.4287520667821168,-0.0526972787037491
2024-12-07 17:59:51.992850400,0.177850341796875,0.0838921890430152,-0.2568032624930143,0.0323833894714713
2024-12-07 17:59:52.002823700,0.18782373046875,-0.0877728298686444,-0.1927963620066642,0.1200903144970536
2024-12-07 17:59:52.012796700,0.197796630859375,-0.0594626811854541,-0.3672130177140236,-0.0107394206792116
2024-12-07 17:59:52.022769700,0.207769775390625,-0.0988781612507998,-0.5527227298438548,-0.1274447689130902
2024-12-07 17:59:52.032742400,0.217742431640625,-0.3676791739210486,-0.8926900132358073,-0.3777268129438161
2024-12-07 17:59:52.042715600,0.227715576171875,0.0369283394247293,-1.4852654455184937,-0.1114721237555146
2024-12-07 17:59:52.052688600,0.237688720703125,0.2684925312429666,-1.692227695521712,-0.2160270154684782
2024-12-07 17:59:52.062661600,0.24766162109375,0.2690302913814782,-1.0099480269163847,-0.7566168244481086
2024-12-07 17:59:52.072634600,0.257634521484375,-0.0645518210180103,-0.4202046031892299,-0.8845078758239746
2024-12-07 17:59:52.082607600,0.267607666015625,-0.324615400481224,-0.0009235445857048,-0.8051634132131934
2024-12-07 17:59:52.092581600,0.27758154296875,-0.1515349618136882,0.132480717253685,-0.0686833678647875
2024-12-07 17:59:52.102554600,0.2875546875,-0.1713384173057973,0.1793026741832494,0.3945068289615213
2024-12-07 17:59:52.112527600,0.297527587890625,-0.2413605594936758,0.224895381578803,0.6552787028245628
2024-12-07 17:59:52.122500600,0.30750048828125,-0.1175081890493631,0.6034294192522763,0.6506938592523336
2024-12-07 17:59:52.132473600,0.3174736328125,-0.0721679951101541,0.583851443079114,0.6474510779388248
2024-12-07 17:59:52.142446600,0.327446533203125,-0.0384989497423172,0.3345329833835363,0.6547161005057394
2024-12-07 17:59:52.152419600,0.337419677734375,-0.246660054141283,0.4025029422819614,0.9196108995176852
2024-12-07 17:59:52.162392600,0.347392578125,-0.3138661890603602,0.7894213619410991,1.2908837140165268
2024-12-07 17:59:52.172365600,0.357365478515625,-0.2596375360708683,1.021577674433589,1.4851198995679615
2024-12-07 17:59:52.182338600,0.367338623046875,-0.2405867255769669,1.321425713405013,1.4920457533083855
2024-12-07 17:59:52.192312600,0.3773125,0.047122985702753,1.619732952675223,1.154000962411612
2024-12-07 17:59:52.202285600,0.38728564453125,0.2156324631929397,1.8629788144588468,0.6087689536493271
2024-12-07 17:59:52.212258600,0.397258544921875,0.0040448914766311,1.7549895643830298,0.0479739034436643
2024-12-07 17:59:52.222231600,0.4072314453125,-0.3778127376616001,1.3060165473490952,-0.4018604065947234
2024-12-07 17:59:52.232204800,0.417204833984375,-0.7153004791975021,0.7730477347671986,-0.6927296778839082
2024-12-07 17:59:52.242177500,0.427177490234375,-0.7759434562087059,0.2511217097252607,-0.7753648526031524
2024-12-07 17:59:52.252150500,0.437150634765625,-0.6405021355837583,-0.0638859044551849,-0.6801382726624607
2024-12-07 17:59:52.262123500,0.44712353515625,-0.4429928466457873,-0.3570803307563066,-0.4629066306445747
2024-12-07 17:59:52.272096500,0.457096435546875,-0.1550771644651889,-0.3631494215369224,-0.2520510995298624
2024-12-07 17:59:52.282069800,0.46706982421875,0.0366834247529506,-0.1953624131023883,-0.1310782300446182
2024-12-07 17:59:52.292043800,0.477043701171875,0.0378601403821259,0.0363350497066974,0.0252248960189521
2024-12-07 17:59:52.302016500,0.4870166015625,-0.0787519766103476,0.3454600355893373,0.2810938002713024
2024-12-07 17:59:52.311989500,0.496989501953125,-0.2896464514959603,0.6979197208076715,0.6652376406505703
2024-12-07 17:59:52.321962500,0.50696240234375,-0.3676998513828963,1.0975099905133248,1.1520241093806922
2024-12-07 17:59:52.331935700,0.516935791015625,-0.3650824354261159,1.3470868088841437,1.5324116659663616
2024-12-07 17:59:52.341908700,0.52690869140625,-0.3517711914975195,1.3990034586042166,1.717658050984889
2024-12-07 17:59:52.351881500,0.536881591796875,-0.1975344964444637,1.3868588473021983,1.804630670386553
2024-12-07 17:59:52.361854500,0.5468544921875,-0.0294466053672134,1.3428729905813932,1.752120730948448
2024-12-07 17:59:52.371827700,0.55682763671875,0.1037672484666109,0.935156697565317,1.3250773677803576
2024-12-07 17:59:52.381800700,0.56680078125,0.1008119788575917,0.2206476610064506,0.6656627341948449
2024-12-07 17:59:52.391773700,0.576773681640625,0.0013988339472562,-0.0332815073549747,0.3517575282983481
2024-12-07 17:59:52.401747700,0.586747802734375,-0.142403414722532,0.0458329458922147,0.334568931479752
2024-12-07 17:59:52.411720400,0.596720458984375,-0.3487251748651266,0.0562462033569812,0.2939814850255847
2024-12-07 17:59:52.421693400,0.606693359375,-0.499127260191366,0.0049544075369834,0.045510728200525
2024-12-07 17:59:52.431666700,0.616666748046875,-0.5588869515620172,-0.071586395829916,-0.2775425375305116
2024-12-07 17:59:52.441639700,0.6266396484375,-0.533955923923105,-0.1266471887946128,-0.4957255619890988
2024-12-07 17:59:52.451612400,0.6366123046875,-0.4886887952201068,-0.0585164863765239,-0.8229182656124233
2024-12-07 17:59:52.461585400,0.64658544921875,-0.6226864929080009,0.0886228708267211,-0.7461258255720138
2024-12-07 17:59:52.471558700,0.65655859375,-0.8086210793863982,0.0901157397329807,-0.5074053322583437
2024-12-07 17:59:52.481531600,0.66653173828125,-0.7674697885043918,-0.0168295542478561,-0.39444399285838
2024-12-07 17:59:52.491504600,0.676504638671875,-0.5294218606900424,0.0014572130709886,-0.3556868305712938
2024-12-07 17:59:52.501478700,0.686478759765625,-0.3169967421710491,0.0736708008885383,-0.4644941190317272
2024-12-07 17:59:52.511451400,0.696451416015625,-0.1246776422873139,0.3521364446133375,-0.5345027441509068
2024-12-07 17:59:52.521424600,0.706424560546875,-0.0779676212996244,0.7514005511045455,-0.2681827346414328
2024-12-07 17:59:52.531397600,0.716397705078125,-0.2816043801419436,0.6133709675520658,0.1673584077589213
2024-12-07 17:59:52.541371000,0.726370849609375,-0.9246686212986708,-8.054370863619447,-0.4723280275277793
2024-12-07 17:59:52.551343900,0.73634375,0.7270616441398858,-7.358292971286177,0.0519386423561722
2024-12-07 17:59:52.561316600,0.746316650390625,2.605557176682353,1.958072927126288,2.003237326107174
2024-12-07 17:59:52.571289900,0.756289794921875,2.159922364160418,2.759249608790874,1.932143828360736
2024-12-07 17:59:52.581262800,0.766262939453125,1.52481010492146,2.714182386574149,1.490536956180632
2024-12-07 17:59:52.591235800,0.77623583984375,1.0228509092397988,2.0504408297002312,1.0641008381906896
2024-12-07 17:59:52.601209900,0.7862099609375,0.7081213813483714,1.5995716236561537,0.7484495923444628
2024-12-07 17:59:52.611182800,0.796182861328125,0.329911022671312,1.5612649816155433,0.6026003845496103
2024-12-07 17:59:52.621155800,0.80615576171875,-0.2881466413922607,0.8305489066213368,0.4100138293687254
2024-12-07 17:59:52.631128800,0.81612890625,-0.8595246796064079,0.7599351552158594,0.4379581769468262
2024-12-07 17:59:52.641101800,0.826101806640625,-1.1079250015437605,0.9464397236019372,0.2752804012848064
2024-12-07 17:59:52.651074800,0.83607470703125,-0.8651414965748786,1.2652695264190434,-0.0982709160726517
2024-12-07 17:59:52.661047800,0.8460478515625,-0.4625882854104042,1.3673153579205273,-0.7859613576803356
2024-12-07 17:59:52.671020800,0.856020751953125,-0.3040278088741004,0.1982908677697181,-1.7881397004432975
2024-12-07 17:59:52.680993800,0.865993896484375,-0.3964963953435421,-0.441122303533554,-1.76889329431206
2024-12-07 17:59:52.690966800,0.875966796875,-0.5633117822669446,-0.0178115510225296,-0.81398180270195
2024-12-07 17:59:52.700940800,0.88594091796875,-0.6994757180780172,0.684729399845004,0.1407730005091056
2024-12-07 17:59:52.710913800,0.895913818359375,-0.7728086653143167,0.9236422008603812,0.3515343140017241
2024-12-07 17:59:52.720887000,0.905886962890625,-0.7326333067923784,0.5605307732462883,-0.0372799293413758
2024-12-07 17:59:52.730859800,0.91585986328125,-0.3628431320667266,-0.0205938752174377,-0.4626800188144668
2024-12-07 17:59:52.740832800,0.925832763671875,-0.1411374864399433,-0.3713157768577337,-0.7633881452139466
2024-12-07 17:59:52.750805800,0.9358056640625,0.0015618424892425,-0.511427427381277,-1.014937359636277
2024-12-07 17:59:52.760779000,0.945779052734375,-0.0126715577855706,-0.5034346750617027,-1.0560433500718325
2024-12-07 17:59:52.770752000,0.955751953125,-0.2073490573637187,-0.3568412613034248,-0.83065046729967
2024-12-07 17:59:52.780724700,0.965724853515625,-0.4428095259681344,-0.0531090743750333,-0.3805782568521797
2024-12-07 17:59:52.790697700,0.97569775390625,-0.5989715630605816,0.2082955444335937,-0.0927468919541686
2024-12-07 17:59:52.800671700,0.985671630859375,-0.6159333653859794,0.3799176009863614,-0.0765828158777207
2024-12-07 17:59:52.810645000,0.99564501953125,-0.4184890314429998,0.4500362623512745,-0.3226500917576253
2024-12-07 17:59:52.820618000,1.005617919921875,-0.1422222129367291,0.3426455626904964,-0.6566935380585491
2024-12-07 17:59:52.830590700,1.0155908203125,0.0642895168200135,0.157378427144885,-1.0083006250355393
2024-12-07 17:59:52.840563700,1.025563720703125,0.2142068143039941,-0.1691021826863288,-1.0675096967861055
2024-12-07 17:59:52.850536700,1.03553662109375,0.3771422910541295,-0.2657978853315115,-0.7055525537736713
2024-12-07 17:59:52.860510000,1.045510009765625,0.7043744499050081,-0.1174041441529989,-0.4549471230074763
2024-12-07 17:59:52.870483000,1.05548291015625,0.8558575354009866,0.0280360079169273,-0.4934567402742802
2024-12-07 17:59:52.880455700,1.06545556640625,0.8259279688224196,0.0513683681875467,-0.5089193170178681
2024-12-07 17:59:52.890428700,1.0754287109375,0.7289756610676645,0.0528963084071874,-0.4205755553934723
2024-12-07 17:59:52.900402000,1.08540185546875,0.5004571205556393,0.0622311229854822,-0.2312263381659984
2024-12-07 17:59:52.910376000,1.0953759765625,0.3123743430674076,-0.0933142435133457,-0.0656950727690011
2024-12-07 17:59:52.920349000,1.105348876953125,0.0909453224249184,-0.3142570880740881,0.0567038839966058
2024-12-07 17:59:52.930322000,1.115322021484375,-0.1343926883548498,-0.4517582638382911,0.1950106039900332
2024-12-07 17:59:52.940294700,1.125294677734375,-0.4608312126100063,-0.5274935960412025,0.3714871148366481
2024-12-07 17:59:52.950268000,1.135267822265625,-0.6297928177818656,-0.6053302844375371,0.6380214246839284
2024-12-07 17:59:52.960241000,1.145240966796875,-0.3862799756251275,-0.7387333772331476,0.680481460076943
2024-12-07 17:59:52.970214000,1.1552138671875,-0.0624605478271841,-0.8737287076562642,0.5788027083221823
2024-12-07 17:59:52.980187000,1.165186767578125,0.2005146812990307,-0.9759294374585152,0.4517367826588451
2024-12-07 17:59:52.990160000,1.175159912109375,0.3366748177178204,-0.9739461546868086,0.4143594573576003
2024-12-07 17:59:53.000132900,1.1851328125,0.1060936455875635,-1.0047580570578574,0.3411279246691614
2024-12-07 17:59:53.010107000,1.19510693359375,-0.3527693356893956,-1.188354044520855,-0.0214408474355936
2024-12-07 17:59:53.020079900,1.205079833984375,-0.8016511673085391,-1.4140928911864756,-0.1737334226835519
2024-12-07 17:59:53.030052900,1.215052978515625,-1.0223735009863972,-1.4122463865369557,-0.1191354249250143
2024-12-07 17:59:53.040025900,1.22502587890625,-1.2164210320979356,-1.3773632892042398,-0.1684627888042479
2024-12-07 17:59:53.049998800,1.234998779296875,-1.2477981671363114,-1.3018091587871312,-0.1091899311024695
2024-12-07 17:59:53.059971800,1.244971923828125,-1.3129431317418814,-1.1464479166835546,-0.0394558120757341
2024-12-07 17:59:53.069944800,1.25494482421875,-1.5788576291903853,-1.0026035093724728,0.1394723297066986
2024-12-07 17:59:53.079917800,1.264917724609375,-1.9474713074825705,-0.9036965604186058,0.5382650192938745
2024-12-07 17:59:53.089891000,1.27489111328125,-2.197775417214632,-0.9991945777118204,0.9732724932089448
2024-12-07 17:59:53.099863800,1.28486376953125,-2.0539935537457463,-1.173635783338547,1.364153094497323
2024-12-07 17:59:53.109836800,1.2948369140625,-1.848530017867684,-1.3304349492907523,1.7356600100129842
2024-12-07 17:59:53.119810800,1.304810791015625,-1.6700902441240846,-1.5012486120700834,1.886324326471984
2024-12-07 17:59:53.129783800,1.31478369140625,-1.3531617448836564,-1.654840506413579,1.7832669798403975
2024-12-07 17:59:53.139756800,1.3247568359375,-1.0334767865419388,-1.6049474714756011,1.508105638357997
2024-12-07 17:59:53.149729800,1.334729736328125,-0.9653490067332984,-1.3949305100768803,1.0772632482331246
2024-12-07 17:59:53.159702800,1.344702880859375,-1.3148708849340676,-1.110288223543763,0.8651531139474362
2024-12-07 17:59:53.169675800,1.35467578125,-1.6776181554108858,-0.8025777806341647,0.7457611569780856
2024-12-07 17:59:53.179648800,1.364648681640625,-1.841910453597456,-0.4943009360134601,0.7365078101381659
2024-12-07 17:59:53.189622000,1.3746220703125,-1.985503224235028,-0.3665297116249799,0.8181009284585714
2024-12-07 17:59:53.199594800,1.3845947265625,-2.016788004814833,-0.4787520692259073,0.7811107758440077
2024-12-07 17:59:53.209567700,1.394567626953125,-1.963060652410984,-0.7779080342799425,0.6884522928256541
2024-12-07 17:59:53.219541800,1.404541748046875,-1.9231600191771985,-1.0973404791653156,0.6500974277291447
2024-12-07 17:59:53.229514800,1.4145146484375,-1.946620535872132,-1.2602934915721415,0.6215671334892511
2024-12-07 17:59:53.239488000,1.424488037109375,-1.8973428563535213,-0.9281915347278118,0.4302243312917649
2024-12-07 17:59:53.249461000,1.4344609375,-1.7374695436529817,-0.1530430282890796,0.0419254170596599
2024-12-07 17:59:53.259433700,1.444433837890625,-1.821595833712816,0.933670842921734,-0.1930686030767858
2024-12-07 17:59:53.269406700,1.45440673828125,-1.8512194030821325,2.130226314076781,-0.077355773011595
2024-12-07 17:59:53.279380000,1.4643798828125,-1.5325002210326493,3.190307029905915,0.1871486384432762
2024-12-07 17:59:53.289353000,1.47435302734375,-0.8849468517631291,3.8244548280268895,0.2617345814153552
2024-12-07 17:59:53.299326000,1.484325927734375,0.1197568447589874,3.77175024279952,-0.0388525124203413
2024-12-07 17:59:53.309298700,1.494298583984375,1.0225450581610205,2.9480507636815307,-0.4608675990976393
2024-12-07 17:59:53.319271700,1.504271728515625,1.4728957932889462,1.6862088736236094,-0.7449079742148518
2024-12-07 17:59:53.329245700,1.51424560546875,1.4346435117840766,0.3589011164426803,-0.4400511671707033
2024-12-07 17:59:53.339219000,1.524218994140625,0.7575538130372762,-1.032998647636175,-0.088935443907231
2024-12-07 17:59:53.349192000,1.53419189453125,-0.0013677812218666,-2.257578436270356,-0.7063808212913573
2024-12-07 17:59:53.359165000,1.5441650390625,-0.0031705928601324,-2.4980273608118293,-1.1828656762376426
2024-12-07 17:59:53.369137700,1.5541376953125,1.2626343556098638,-1.7166852604299785,-1.2102731769926844
2024-12-07 17:59:53.379111000,1.56411083984375,2.378816459497809,-0.5333160185843706,-0.9379715357903392
2024-12-07 17:59:53.389084000,1.574083984375,2.531267951634526,0.1945662942886352,-0.9615219957910478
2024-12-07 17:59:53.399057000,1.584056884765625,2.098140153986216,0.4843821840673685,-1.134734609470889
2024-12-07 17:59:53.409029600,1.594029541015625,1.2505904282033442,0.739333096691966,-1.1508714322142302
2024-12-07 17:59:53.419003000,1.6040029296875,0.4594211996816098,0.8244827384501695,-1.133629790034145
2024-12-07 17:59:53.428977000,1.613976806640625,0.5053595056444407,0.7195815175175666,-1.111803085086122
2024-12-07 17:59:53.438950000,1.623949951171875,1.1616555688180028,0.5045072727292775,-0.9230888778265564
2024-12-07 17:59:53.448923000,1.6339228515625,1.902046503999829,0.2172860756188631,-0.7427830179501325
2024-12-07 17:59:53.458896000,1.643895751953125,2.3612186973564326,0.0066045128315687,-0.6021499008357525
2024-12-07 17:59:53.468868600,1.65386865234375,2.28133106777966,-0.0769067140698432,-0.4308507195618003
2024-12-07 17:59:53.478841900,1.663841796875,1.8060948977202176,0.0569786092847585,-0.1501409501720219
2024-12-07 17:59:53.488814800,1.67381494140625,1.1756132208913563,0.272594705864787,0.0344113881677389
2024-12-07 17:59:53.498787800,1.683787841796875,0.7543487333856522,0.5894114152938127,0.1553982131130993
2024-12-07 17:59:53.508760800,1.6937607421875,0.3866862183384597,0.8887140953421592,0.2661209067407995
2024-12-07 17:59:53.518733800,1.70373388671875,0.0883253491848707,1.0218360331088303,0.1374327867031097
2024-12-07 17:59:53.528706800,1.713706787109375,0.0060662412364035,0.690137980890274,-0.1960903620507568
2024-12-07 17:59:53.538680800,1.723680908203125,0.1971018041156232,0.2681108384490013,-0.2438023266226053
2024-12-07 17:59:53.548653800,1.73365380859375,0.2346482754386961,-0.0254115046322345,-0.0545832385808229
2024-12-07 17:59:53.558626800,1.743626708984375,0.0269477012235671,-0.1267594169974327,0.2601604639664292
2024-12-07 17:59:53.568600000,1.75360009765625,0.072226520364359,-0.0386783979624509,0.6437155446723103
2024-12-07 17:59:53.578573000,1.763572998046875,0.4491881210893392,0.1181996784448623,0.894870499080047
2024-12-07 17:59:53.588545800,1.7735458984375,0.5171026234734803,0.2685509834319353,1.073516974376887
2024-12-07 17:59:53.598518800,1.783518798828125,0.5645651433289051,0.3944458925545215,1.2713830408632754
2024-12-07 17:59:53.608491800,1.79349169921875,0.5208119993854313,0.3307219006627798,1.4274635371521114
2024-12-07 17:59:53.618465000,1.803465087890625,0.4289331224374473,0.0774532420367002,1.439287392067164
2024-12-07 17:59:53.628438000,1.81343798828125,0.4597200364977121,-0.246346750408411,1.4372171616643663
2024-12-07 17:59:53.638412000,1.823412109375,0.7256032620251178,-0.560287027618289,1.3459768018156288
2024-12-07 17:59:53.648384800,1.833384765625,0.9235551070988176,-0.7397568750619888,1.1995766456071286
2024-12-07 17:59:53.658357800,1.843357666015625,1.0256623133987188,-0.7436977216422558,1.0532543769404292
2024-12-07 17:59:53.668331000,1.8533310546875,1.1111382645018395,-0.5727922889262438,0.9763652715925126
2024-12-07 17:59:53.678304000,1.863303955078125,1.1745512176830322,-0.3238192816674709,1.0035871135823429
2024-12-07 17:59:53.688276700,1.87327685546875,1.296119422712922,-0.1125391684651374,0.9680731710001824
2024-12-07 17:59:53.698249700,1.883249755859375,1.307159872165322,0.0768365714430809,0.8461202044364065
2024-12-07 17:59:53.708223000,1.893222900390625,1.1899662289578468,0.1454091724097728,0.6937837169814854
2024-12-07 17:59:53.718196000,1.903196044921875,0.9898101518381388,0.053881812313199,0.4920214467741549
2024-12-07 17:59:53.728169000,1.9131689453125,0.6866063726980238,-0.1441688169598579,0.2333737985234707
2024-12-07 17:59:53.738143000,1.92314306640625,0.3808803085386752,-0.4336509447395801,-0.0886680982079356
2024-12-07 17:59:53.748115700,1.93311572265625,-0.0173018479347229,-0.7373159116506576,-0.3860832109440117
2024-12-07 17:59:53.758088700,1.943088623046875,-0.5927057441314681,-0.8754676602780819,-0.6244209885504096
2024-12-07 17:59:53.768062000,1.95306201171875,-1.142761921647191,-0.653600686609745,-0.7208947190079837
2024-12-07 17:59:53.778035000,1.963034912109375,-1.3501941272497175,-0.1010772787302732,-0.5432536213614046
2024-12-07 17:59:53.788008000,1.973008056640625,-1.0879366910040378,0.60573535810709,0.0071048635691404
2024-12-07 17:59:53.797980700,1.982980712890625,-0.5490898897668346,1.1761445512890816,0.4977876821506768
2024-12-07 17:59:53.807954000,1.992953857421875,-0.2791103348365053,1.3135749999046324,0.567524139264971
2024-12-07 17:59:53.817927000,2.002927001953125,-0.2937058464219793,1.0020540587961673,0.3726549895722418
2024-12-07 17:59:53.827900000,2.01289990234375,-0.1378396139383316,0.4691641566693783,0.1289281393386423
2024-12-07 17:59:53.837873000,2.022872802734375,0.1279699983635917,0.0056271922320127,-0.1730581537704914
2024-12-07 17:59:53.847847000,2.032846923828125,0.0523223444441333,-0.2819330275744199,-0.5076464110052212
2024-12-07 17:59:53.857820000,2.04281982421875,-0.3968476929992437,-0.3714484633266925,-0.8805918714240193
2024-12-07 17:59:53.867793000,2.05279296875,-1.020538979035616,-0.327578926461935,-1.1690740283809602
2024-12-07 17:59:53.877766000,2.062765869140625,-1.6110124706029891,-0.2615957574665546,-1.2992720415249466
2024-12-07 17:59:53.887739000,2.07273876953125,-1.8675491911143065,-0.2803501422971486,-1.1533484898522497
2024-12-07 17:59:53.897711900,2.0827119140625,-2.231608713233471,-0.3452121983081102,-0.7194125906914473
2024-12-07 17:59:53.907684900,2.092684814453125,-2.7827573256283995,-0.2148416050761938,-0.0898895662942901
2024-12-07 17:59:53.917657900,2.102657958984375,-3.007424159148336,0.0643435850948095,0.5326324932996184
2024-12-07 17:59:53.927630800,2.112630859375,-2.730204716092348,0.2251215915501117,1.0332714732281862
2024-12-07 17:59:53.937603800,2.122603759765625,-2.298879583951831,0.2383621813952922,1.480844706466794
2024-12-07 17:59:53.947577900,2.132577880859375,-1.876619217276573,0.1495703837424516,1.8577841684252023
2024-12-07 17:59:53.957550800,2.14255078125,-1.4640776960611344,0.1563175199151039,2.158850351014733
2024-12-07 17:59:53.967523800,2.15252392578125,-1.3470382935672998,0.0901414586961269,2.243417516709864
2024-12-07 17:59:53.977496800,2.162496826171875,-1.4757447529792784,0.139927526128292,2.326666001021862
2024-12-07 17:59:53.987469800,2.1724697265625,-1.3238374507218598,0.3639151452124118,2.522983815152943
2024-12-07 17:59:53.997443000,2.182443115234375,-0.7563970442175865,0.803925688111782,2.6859841738328334
2024-12-07 17:59:54.007415800,2.192415771484375,0.0460819522172212,0.9594891747891904,2.635165548482537
2024-12-07 17:59:54.017388800,2.202388916015625,0.9005494945645331,1.2180571088671683,2.6076900970578194
2024-12-07 17:59:54.027361800,2.21236181640625,1.1212737279385327,0.8431032677680254,2.264161906313896
2024-12-07 17:59:54.037335000,2.2223349609375,0.677168609201908,0.4266267451912164,1.7418246701225637
2024-12-07 17:59:54.047308000,2.23230810546875,-0.1659194244643673,0.3939683381706476,1.5484437862262128
2024-12-07 17:59:54.057282000,2.242281982421875,-1.3172352759778498,0.6808119341403246,1.213531082810089
2024-12-07 17:59:54.067254800,2.2522548828125,-1.7344956424087286,1.1442319941997527,0.6395039183266461
2024-12-07 17:59:54.077227800,2.262227783203125,-1.4312825109183789,1.7843775714308023,0.0170828348891809
2024-12-07 17:59:54.087200800,2.27220068359375,-0.8832206124924122,2.383849777489901,-0.5042243276020512
2024-12-07 17:59:54.097174000,2.282174072265625,-0.3712390583597123,2.855537315157056,-0.8328026038322597
2024-12-07 17:59:54.107147000,2.29214697265625,-0.0802531018882989,2.93686359923482,-1.0029974040608851
2024-12-07 17:59:54.117119700,2.30211962890625,-0.036214638197422,2.495417470574379,-1.110578584792465
2024-12-07 17:59:54.127092700,2.3120927734375,-0.2882341735452413,1.730360150039196,-1.278155603738129
2024-12-07 17:59:54.137066000,2.32206591796875,-0.5574694859795272,0.8736562269419431,-1.734621606875956
2024-12-07 17:59:54.147039000,2.3320390625,-0.5143463835678994,0.2008855604380369,-2.1940770010881123
2024-12-07 17:59:54.157012000,2.342011962890625,0.3568776477910578,-0.2138707142174243,-2.311956507667899
2024-12-07 17:59:54.166986000,2.351986083984375,1.5653344230115414,-0.3674579323858022,-2.0713924323141573
2024-12-07 17:59:54.176958700,2.361958740234375,2.0819997510463,-0.2482213121086358,-1.725369209884107
2024-12-07 17:59:54.186932000,2.371931884765625,1.9357167184114457,0.0377525152891874,-1.5033827014893293
2024-12-07 17:59:54.196905000,2.381905029296875,1.300298315832764,0.3421311834275722,-1.377635822535306
2024-12-07 17:59:54.206878000,2.3918779296875,0.5473739161618053,0.6401841556757688,-1.334349492385983
2024-12-07 17:59:54.216851000,2.401850830078125,0.0795934689357876,0.7830249389022589,-1.5653139647454022
2024-12-07 17:59:54.226823700,2.41182373046875,0.062158642271161,0.7597673974335193,-2.0852713200628754
2024-12-07 17:59:54.236797000,2.421796875,0.3376462930984795,0.5083469970226288,-2.5245702075615526
2024-12-07 17:59:54.246770000,2.43177001953125,0.7436743407666683,-0.0442711034029722,-2.62142373111695
2024-12-07 17:59:54.256743000,2.441742919921875,1.0641333522208034,-0.7655863128453493,-2.3789086678259075
2024-12-07 17:59:54.266717000,2.451717041015625,1.2707736767932771,-1.352728029641509,-1.944506466327608
2024-12-07 17:59:54.276689700,2.461689697265625,1.3676299768276512,-1.708515397977829,-1.502077756370604
2024-12-07 17:59:54.286663000,2.471662841796875,1.2921044879831374,-1.8711925160527227,-1.1330102698963134
2024-12-07 17:59:54.296636000,2.481635986328125,1.143923951163888,-1.854797261568904,-0.7345598178755491
2024-12-07 17:59:54.306609000,2.49160888671875,0.8707298181012272,-1.702634523245692,-0.3745888802442699
2024-12-07 17:59:54.316582000,2.501581787109375,0.4675837556101381,-1.4892249967992306,-0.1348660049550235
2024-12-07 17:59:54.326555000,2.511554931640625,-0.0486344131790101,-1.217614041274786,0.0641981122095137
2024-12-07 17:59:54.336528000,2.52152783203125,-0.3384738299638032,-0.8208610408216714,0.302428922310099
2024-12-07 17:59:54.346500900,2.5315009765625,-0.1634954487204551,-0.6213736567437649,0.4639344393223524
2024-12-07 17:59:54.356473900,2.541473876953125,-0.08222337904796,-0.6644505819261074,0.4956372991837561
2024-12-07 17:59:54.366446800,2.55144677734375,-0.1900274818152189,-0.7897872726440429,0.5269436340082436
2024-12-07 17:59:54.376420900,2.5614208984375,-0.1573848568856716,-1.1095026261240244,0.3089534287080168
2024-12-07 17:59:54.386393900,2.571393798828125,-0.0047436873957514,-1.5680495271891357,0.0989636475771665
2024-12-07 17:59:54.396366800,2.581366943359375,0.207073309162259,-1.9213953475922343,-0.0648638095766305
2024-12-07 17:59:54.406339800,2.59133984375,0.38965573566854,-2.225742451548576,-0.1530058380838483
2024-12-07 17:59:54.416312800,2.601312744140625,0.4156044159173965,-2.3253332911133766,-0.0575752600036561
2024-12-07 17:59:54.426286000,2.6112861328125,0.2100124313540756,-2.130858766761422,0.0769456578407436
2024-12-07 17:59:54.436258800,2.6212587890625,-0.2335223401486873,-1.7919664191246032,0.3119247726690023
2024-12-07 17:59:54.446231800,2.631231689453125,-0.8737275386124849,-1.394379305934906,0.7069765221621841
2024-12-07 17:59:54.456204800,2.641204833984375,-1.7080629780352117,-0.9441770393669604,1.1390322335995733
2024-12-07 17:59:54.466178000,2.651177978515625,-2.269835275775194,-0.5139338572442531,1.4480414841480551
2024-12-07 17:59:54.476152000,2.661152099609375,-2.5417770706892013,-0.1876519848555326,1.58007986446172
2024-12-07 17:59:54.486125000,2.671125,-2.574101715710759,0.0076695117145776,1.5304362742401658
2024-12-07 17:59:54.496097800,2.681097900390625,-2.4225603241562843,0.0754717128306627,1.322041945607215
2024-12-07 17:59:54.506070800,2.69107080078125,-2.3082500543653963,-0.0341822555869817,0.9311985345240682
2024-12-07 17:59:54.516043800,2.701043701171875,-2.4267935778118668,-0.1906055739641189,0.4264748425651341
2024-12-07 17:59:54.526017000,2.71101708984375,-2.4516325432531536,-0.2624760474324226,-0.1140660857714712
2024-12-07 17:59:54.535989200,2.7209892578125,-2.385416442284733,-0.4543289911091327,-0.6253541777472943
2024-12-07 17:59:54.545962200,2.730962158203125,-2.2151339637726544,-0.7986433637946844,-0.863638909992203
2024-12-07 17:59:54.555935200,2.740935302734375,-2.086947874972969,-1.1212287197530268,-0.7918971774701029
2024-12-07 17:59:54.565908200,2.750908203125,-1.985674781409651,-1.1606804401755333,-0.5215069228470325
2024-12-07 17:59:54.575882200,2.76088232421875,-1.5206014011852442,-0.5057476281791925,-0.3306993965700268
2024-12-07 17:59:54.585855200,2.770855224609375,-0.6073065529465675,0.8083826675206423,-0.260055030830577
2024-12-07 17:59:54.595828200,2.780828125,0.4293510555885731,2.1339982338309285,-0.1094178946394473
2024-12-07 17:59:54.605801200,2.79080126953125,1.3800193566709755,3.0267601432591675,0.1406165313057601
2024-12-07 17:59:54.615774200,2.800774169921875,2.05613115029633,3.304880334547162,0.1223037527628242
2024-12-07 17:59:54.625747200,2.810747314453125,2.0616905379891395,3.0881302655011416,-0.1223907003939151
2024-12-07 17:59:54.635720200,2.82072021484375,1.771559152520448,2.098062997096777,-0.290335675869137
2024-12-07 17:59:54.645693200,2.830693115234375,1.8457063387490809,0.5624702168762683,-0.2012980867616832
2024-12-07 17:59:54.655666400,2.84066650390625,1.893634795615822,-0.5985077449411154,-0.3659351067326962
2024-12-07 17:59:54.665639200,2.85063916015625,1.4637398424088954,-1.056807393246889,-0.9893370544336736
2024-12-07 17:59:54.675612200,2.860612060546875,0.4813280571937561,-1.2066601010620592,-1.8037658702507613
2024-12-07 17:59:54.685586200,2.870586181640625,-0.1933579414121806,-1.219765666350722,-2.4635519674971698
2024-12-07 17:59:54.695559200,2.88055908203125,0.3604350480116903,-1.0420189894378185,-2.749984936839342
2024-12-07 17:59:54.705532400,2.890532470703125,1.4322535479076206,-0.5862076508164406,-2.5300106450498103
2024-12-07 17:59:54.715505400,2.90050537109375,1.936297733169794,0.0155816000133752,-1.993732561789453
2024-12-07 17:59:54.725478100,2.91047802734375,1.94819903723523,0.614139029315114,-1.185064063064754
2024-12-07 17:59:54.735451100,2.920451171875,1.818877368534356,1.0965011057317255,-0.5278950164489448
2024-12-07 17:59:54.745424400,2.93042431640625,1.6345898916758597,1.420342014709115,-0.2913776592027395
2024-12-07 17:59:54.755397400,2.9403974609375,1.3490361893862486,1.5373668041557074,-0.2548988901764154
2024-12-07 17:59:54.765370400,2.950370361328125,1.1440087068378926,1.2664625355958938,-0.1527278979253023
2024-12-07 17:59:54.775343000,2.960343017578125,0.9460973399050532,0.7482154913276433,0.0919614406649023
2024-12-07 17:59:54.785317000,2.970317138671875,0.8034878812164068,0.275302795779705,0.2628195271078497
2024-12-07 17:59:54.795290000,2.9802900390625,0.6259294203519821,-0.1296557229608297,0.3109236328024417
2024-12-07 17:59:54.805263400,2.990263427734375,0.4186323854364454,-0.4139490499258041,0.3266439836993813
2024-12-07 17:59:54.815236400,3.000236328125,0.4056850794494152,-0.5463227996736765,0.5255219306420534
2024-12-07 17:59:54.825209000,3.010208984375,0.5683487535208464,-0.4628951594024896,0.7728002628121524
2024-12-07 17:59:54.835182000,3.02018212890625,0.655838820925355,-0.2473281626611947,0.948332990002632
2024-12-07 17:59:54.845155300,3.0301552734375,0.878688375890255,-0.0384147785902023,1.0579220764905213
2024-12-07 17:59:54.855128300,3.04012841796875,1.2491453439615663,0.1304173549830913,1.1203618007253855
2024-12-07 17:59:54.865101300,3.050101318359375,1.420434807559103,0.1998702459156513,1.0628943119451404
2024-12-07 17:59:54.875074000,3.060073974609375,1.2215204741287975,0.0854050778239965,0.8224287285298109
2024-12-07 17:59:54.885047300,3.07004736328125,0.9524428364742548,-0.1184942774772644,0.5283434908688068
2024-12-07 17:59:54.895021300,3.080021240234375,0.8106687326312064,-0.2911240497678518,0.2523825234413147
2024-12-07 17:59:54.904994300,3.089994384765625,0.6310884836155921,-0.3134896108329296,0.0360013607729226
2024-12-07 17:59:54.914967300,3.09996728515625,0.471341573773697,-0.2556821495085954,0.0214431855231523
2024-12-07 17:59:54.924940300,3.109940185546875,0.3125614631373435,-0.1077174473971128,0.0183124132167547
2024-12-07 17:59:54.934913300,3.119913330078125,0.2075309898018837,0.0503594834059476,0.0101529260281473
2024-12-07 17:59:54.944886300,3.12988623046875,0.1112602345705032,0.2167021382510661,0.0324039938680827
2024-12-07 17:59:54.954859300,3.139859375,-0.016706147063896,0.2348947975456714,0.1038520772058516
2024-12-07 17:59:54.964832300,3.149832275390625,0.0373814169544726,0.1158341183573007,0.1180340395543724
2024-12-07 17:59:54.974805200,3.15980517578125,0.1756185057777911,-0.0417728568464517,0.0532405187349766
2024-12-07 17:59:54.984778200,3.1697783203125,0.2237374437153339,-0.1747375582247972,-0.1099422838397324
2024-12-07 17:59:54.994752300,3.179752197265625,0.1567711089015007,-0.1895890903979539,-0.2632989081226289
2024-12-07 17:59:55.004725200,3.189725341796875,-0.0076694751819595,-0.1178881282776594,-0.2332910886760801
2024-12-07 17:59:55.014698200,3.1996982421875,-0.1835124008327722,-0.0436550173312425,-0.0360286141060292
2024-12-07 17:59:55.024671200,3.209671142578125,-0.3551916674654931,-0.0274327813267707,0.1902416360225528
2024-12-07 17:59:55.034644500,3.21964453125,-0.4486602612903341,-0.0869043764710426,0.4650331943444907
2024-12-07 17:59:55.044617200,3.2296171875,-0.3889712240030988,-0.0764630619555711,0.721772670886293
2024-12-07 17:59:55.054590200,3.239590087890625,-0.1480448546756058,-0.0439683210641145,0.9021068070091308
2024-12-07 17:59:55.064563200,3.249563232421875,-0.0026899697363376,-0.0250888485491275,0.9731073657751084
2024-12-07 17:59:55.074536400,3.259536376953125,-0.1631347987145185,-0.0709165337443351,0.8676322904773056
2024-12-07 17:59:55.084509400,3.269509521484375,-0.4226987580925226,-0.2814268316179514,0.7067794652201235
2024-12-07 17:59:55.094482200,3.279482177734375,-0.7557242595225572,-0.4021627505421638,0.5860305406838655
2024-12-07 17:59:55.104456200,3.289456298828125,-0.9253595261722802,-0.3951496569097041,0.6211684895604849
2024-12-07 17:59:55.114429200,3.29942919921875,-0.971173767364025,-0.2175426807284355,0.7107049681007862
2024-12-07 17:59:55.124402200,3.309402099609375,-1.1166805549293757,0.0795329709202051,0.8958324759799987
2024-12-07 17:59:55.134375400,3.31937548828125,-1.064334866142273,0.3232160550773144,1.0206295799285172
2024-12-07 17:59:55.144348200,3.32934814453125,-0.916331585586071,0.4350327544867992,1.1311797665335237
2024-12-07 17:59:55.154321200,3.339321044921875,-0.8837170177072287,0.352532750454545,1.194766980303079
2024-12-07 17:59:55.164294100,3.349294189453125,-0.8570663266688585,0.1873164692908525,1.2935228303484618
2024-12-07 17:59:55.174267400,3.359267333984375,-0.9092021720975636,-0.0002601122409105,1.4155606256514788
2024-12-07 17:59:55.184240400,3.369240478515625,-0.958456324610114,-0.0778565621405839,1.5738894853889942
2024-12-07 17:59:55.194213000,3.379213134765625,-1.0849223116189242,-0.0670019906491041,1.639515949901193
2024-12-07 17:59:55.204187100,3.389187255859375,-1.174672140648961,-0.0837765998393297,1.6930914727441966
2024-12-07 17:59:55.214160100,3.39916015625,-1.2635644760668276,0.1543476811468601,1.7476789491087197
2024-12-07 17:59:55.224133400,3.40913330078125,-1.4591343944400548,0.3244949889719486,1.765469895734638
2024-12-07 17:59:55.234106400,3.4191064453125,-1.5863824717372654,0.7158505142956971,1.87139812162742
2024-12-07 17:59:55.244079400,3.429079345703125,-1.6270745476096868,1.1014829857975243,1.9253429161742328
2024-12-07 17:59:55.254052000,3.439052001953125,-1.490161985388398,1.1555804866880175,1.846121933812648
2024-12-07 17:59:55.264025000,3.449025146484375,-1.1454992376565931,1.3069915298610926,1.7989079088255762
2024-12-07 17:59:55.273998300,3.458998291015625,-0.8918190756201744,1.42126497477293,1.6684090130388736
2024-12-07 17:59:55.283971300,3.468971435546875,-0.819086432364583,1.4642881239414214,1.399992761902511
2024-12-07 17:59:55.293944300,3.4789443359375,-0.9523737898260356,1.5128671536713838,1.117457019194588
2024-12-07 17:59:55.303918300,3.48891845703125,-1.22297067293711,1.549666898280382,0.8614792477402835
2024-12-07 17:59:55.313891000,3.49889111328125,-1.628469216838479,1.488886558625102,0.6133356039777398
2024-12-07 17:59:55.323864300,3.5088642578125,-2.2471803763747213,1.3648369851082562,0.289474784723483
2024-12-07 17:59:55.333837300,3.51883740234375,-3.120612146911025,1.3421978677988051,-0.0967171472920104
2024-12-07 17:59:55.343810300,3.528810302734375,-3.8366543843865393,1.3747732727110384,-0.5219579545501619
2024-12-07 17:59:55.353783300,3.538783203125,-3.978949808689951,1.2732353907316922,-1.188302387398854
2024-12-07 17:59:55.363756300,3.54875634765625,-3.7154789050012815,1.028798857858777,-2.175984002775699
2024-12-07 17:59:55.373729300,3.558729248046875,-3.27010069758892,0.733169313365221,-3.3325931018590924
2024-12-07 17:59:55.383702300,3.568702392578125,-1.880303458747268,0.5159282459318637,-4.558688263492286
2024-12-07 17:59:55.393675300,3.57867529296875,0.8507757020920514,0.3191331696778535,-4.882540570646524
2024-12-07 17:59:55.403648300,3.588648193359375,3.76043097640574,-0.0611053338259458,-3.979583430418372
2024-12-07 17:59:55.413622000,3.5986220703125,5.987772679844499,-0.2879752303481102,-2.4159353530585763
2024-12-07 17:59:55.423595300,3.60859521484375,6.4487909394592045,-0.191399939212203,-1.1152076328326015
2024-12-07 17:59:55.433568300,3.618568359375,5.964533843076229,0.1354547646284103,0.5902548073153943
2024-12-07 17:59:55.443541200,3.628541259765625,4.093798423141241,0.5463666388154029,2.2576409801125523
2024-12-07 17:59:55.453514200,3.63851416015625,1.1104983591631057,0.8886807775944471,3.1293820210829377
2024-12-07 17:59:55.463487200,3.6484873046875,-1.3679197535544634,1.2906845381826162,3.0343133351176976
2024-12-07 17:59:55.473460200,3.658460205078125,-1.9491502004802224,1.3867074561327697,2.243456387415528
2024-12-07 17:59:55.483433200,3.66843310546875,-0.7944953042045235,1.0314502491503954,1.447247849552333
2024-12-07 17:59:55.493406200,3.67840625,0.6830968302071094,0.3375233973711729,0.744076272631064
2024-12-07 17:59:55.503379500,3.68837939453125,1.6129221036165953,-0.5204968690216542,0.0593754412934184
2024-12-07 17:59:55.513353500,3.698353515625,1.927394295746088,-1.406454943653941,-0.4669917810663581
2024-12-07 17:59:55.523326200,3.708326171875,1.859526043656468,-1.97045368527174,-0.8845675701219587
2024-12-07 17:59:55.533299200,3.71829931640625,1.620304615083337,-2.311832589027285,-1.3494469621442258
2024-12-07 17:59:55.543273000,3.72827294921875,1.4095876887217162,-2.376026536518335,-1.7793449840910731
2024-12-07 17:59:55.553246000,3.738245849609375,1.238901159453392,-2.2730267652928826,-2.056599352329969
2024-12-07 17:59:55.563219000,3.748218994140625,1.143037815979123,-2.088762084788084,-2.1444456858262417
2024-12-07 17:59:55.573192000,3.75819189453125,1.0589394368395209,-1.8293477630138395,-2.12489430539906
2024-12-07 17:59:55.583165000,3.7681650390625,0.9603127661317586,-1.5306635071247816,-2.0539741183929143
2024-12-07 17:59:55.593138000,3.778137939453125,0.728432055710256,-1.2476976293712854,-1.8904647872775795
2024-12-07 17:59:55.603111000,3.78811083984375,0.2999617284789681,-0.9423252740204334,-1.714705192528665
2024-12-07 17:59:55.613085000,3.7980849609375,-0.0878019098326563,-0.6148650055021048,-1.6033789069846272
2024-12-07 17:59:55.623058200,3.80805810546875,-0.4153207766704261,-0.4217155922740697,-1.4602093301951884
2024-12-07 17:59:55.633031000,3.818031005859375,-0.8573321379981934,-0.5510784697681665,-1.16576629207246
2024-12-07 17:59:55.643004000,3.82800390625,-1.0725585046082735,-1.0489777225345374,-0.8505421855971217
2024-12-07 17:59:55.652977000,3.837976806640625,-1.199372282141447,-1.6323779147148132,-0.9427101086195556
2024-12-07 17:59:55.662950100,3.8479501953125,-1.2410188822597263,-2.0282044479727745,-1.1612373434059322
2024-12-07 17:59:55.672923000,3.8579228515625,-1.0778051730901002,-2.134824163261056,-1.038694228929281
2024-12-07 17:59:55.682896000,3.867895751953125,-0.934673151832074,-2.0254612867444752,-0.8656777223434299
2024-12-07 17:59:55.692868900,3.877868896484375,-0.578673017527908,-1.8307126216262577,-0.7566870401401072
2024-12-07 17:59:55.702842000,3.887842041015625,-0.4392763834059238,-1.5287988822966814,-0.3826448339931667
2024-12-07 17:59:55.712815900,3.89781591796875,-0.6957648808613419,-1.1107535029679536,0.3589340688642114
2024-12-07 17:59:55.722789000,3.9077890625,-1.408368668320775,-0.5311918660372495,1.2905496597565709
2024-12-07 17:59:55.735256000,3.920256103515625,-2.921221793466806,0.4628770392239093,2.6586317642658948
2024-12-07 17:59:55.745229000,3.93022900390625,-4.073678010654449,1.2799585615068674,3.70100234362036
2024-12-07 17:59:55.755202000,3.9402021484375,-4.575124726769328,1.849617813104391,4.0998239670410745
2024-12-07 17:59:55.765174800,3.9501748046875,-4.132441165268421,1.9618541992306708,3.5904116788744926
2024-12-07 17:59:55.775148000,3.96014794921875,-2.877485527592897,1.2051643095463511,2.029189659617841
2024-12-07 17:59:55.785121000,3.97012109375,-1.3371966985106467,-0.0879787277042865,0.5109686507631093
2024-12-07 17:59:55.795094000,3.980093994140625,-0.0947708720624446,-1.371328100693226,-0.2223825219750404
2024-12-07 17:59:55.805067000,3.99006689453125,0.4506827435612678,-2.403666238594055,-0.5490501057457179
2024-12-07 17:59:55.815040000,4.0000400390625,0.1406479493573308,-3.148388627108931,-0.8429418666612356
2024-12-07 17:59:55.825013800,4.010013671875,-0.5796754725687205,-3.449102927520871,-1.2796595785602929
2024-12-07 17:59:55.834987000,4.019987060546875,-1.0978823309570551,-2.902625814068317,-1.802054390157759
2024-12-07 17:59:55.844960000,4.0299599609375,-1.0988747029952703,-0.8479892862439156,-2.238104066602141
2024-12-07 17:59:55.854933000,4.03993310546875,-1.01559830776304,2.1865707171112296,-2.155829541888833
2024-12-07 17:59:55.864906000,4.049906005859375,-0.9666483988940716,4.976067580127716,-1.2139291422169656
2024-12-07 17:59:55.874879000,4.05987890625,-0.1199549976795911,6.6335343433916565,0.0223488291259855
2024-12-07 17:59:55.884852000,4.06985205078125,1.9992235604211688,6.726472154808044,0.0655912470683455
2024-12-07 17:59:55.894825000,4.079824951171875,3.89972780341506,5.554279556015134,-1.144609522275254
2024-12-07 17:59:55.904798000,4.0897978515625,3.337721112397313,3.8694893170177935,-2.05400217544362
2024-12-07 17:59:55.914772000,4.09977197265625,0.0883212575316429,2.028252378767729,-2.6146143433630464
2024-12-07 17:59:55.924745000,4.109744873046875,-2.491088793720305,-1.1445113956630228,-3.783103995984793
2024-12-07 17:59:55.934718000,4.119718017578125,-0.6247589152678847,-3.7035108193099497,-3.772186880651116
2024-12-07 17:59:55.944691000,4.12969091796875,3.211325268015265,-4.821062896376848,-2.555634038867056
2024-12-07 17:59:55.954664000,4.139663818359375,5.900236435210704,-4.678755197113752,-1.3634353016167875
2024-12-07 17:59:55.964637000,4.149636962890625,6.424010133945941,-2.760508668941259,-0.0357271469414234
2024-12-07 17:59:55.974610000,4.15960986328125,5.489444972532987,-0.0853717600762844,0.9771258076362312
2024-12-07 17:59:55.984583000,4.1695830078125,3.591607026138901,2.2950942201942204,1.3884496236249804
2024-12-07 17:59:55.994556000,4.179555908203125,1.733080514913797,3.9104946966230862,1.6416398101873697
2024-12-07 17:59:56.004529000,4.18952880859375,0.8078051598936319,4.563160732731223,2.162014368003607
2024-12-07 17:59:56.014503000,4.1995029296875,0.63682490837574,4.014450745660066,2.4448085424520074
2024-12-07 17:59:56.024476200,4.20947607421875,0.587401390645653,2.5303818164497613,1.8773422708541152
2024-12-07 17:59:56.034449000,4.219448974609375,0.7784633300751447,1.1843155827850105,1.1976832330759617
2024-12-07 17:59:56.044422000,4.229421875,1.1402911476194857,0.248245277506113,0.5822206270068884
2024-12-07 17:59:56.054395000,4.239394775390625,1.3542809581719335,-0.4294347883492708,0.0241306710414588
2024-12-07 17:59:56.064368000,4.2493681640625,1.1778444870747624,-0.8811720093995332,-0.4839976417291909
2024-12-07 17:59:56.074341000,4.259341064453125,0.7159810088075697,-1.1596540197372436,-0.8981499591421336
2024-12-07 17:59:56.084312800,4.269312744140625,0.199194684741646,-1.2705927672684192,-1.119039100754261
2024-12-07 17:59:56.094286000,4.2792861328125,-0.2893536790944636,-1.1097113004386423,-1.1645362388208509
2024-12-07 17:59:56.104259000,4.289259033203125,-0.5414385347634554,-0.733814625531435,-1.0327584822047502
2024-12-07 17:59:56.114232000,4.299232177734375,-0.6320429347962141,-0.2746253349095582,-0.7694308594442903
2024-12-07 17:59:56.124206000,4.3092060546875,-0.7007447151005267,0.1839344256371259,-0.4712721617992967
2024-12-07 17:59:56.134178800,4.3191787109375,-0.6466099509395659,0.4650438618689775,-0.0972977601915597
2024-12-07 17:59:56.144151800,4.32915185546875,-0.4255230947982519,0.5082873757898807,0.3583375642757863
2024-12-07 17:59:56.154125000,4.339125,-0.1447748930942267,0.4003741135597228,0.7718322214975952
2024-12-07 17:59:56.164098000,4.34909814453125,0.2781559201885014,0.0616851795405149,1.0355917328692972
2024-12-07 17:59:56.174071000,4.359071044921875,0.6149819098800421,-0.2730786899894475,1.1284320752605794
2024-12-07 17:59:56.184043800,4.369043701171875,0.8609656721949577,-0.5295137036919594,0.9816425544083118
2024-12-07 17:59:56.194017000,4.37901708984375,0.8969564385086297,-0.5538590403974056,0.7768657586853951
2024-12-07 17:59:56.203990000,4.388989990234375,0.8526046710848808,-0.6064882223010063,0.6129127023905515
2024-12-07 17:59:56.213963000,4.398962890625,0.6900655732411891,-0.6060059917420149,0.4187146934250369
2024-12-07 17:59:56.223937000,4.40893701171875,0.3802169492591172,-0.4302811760455369,0.2444241117827594
2024-12-07 17:59:56.233909800,4.41890966796875,0.0599176584113389,-0.157740246194601,0.1141702037330716
2024-12-07 17:59:56.243883000,4.428883056640625,-0.1035608391743153,-0.0040910687059164,-0.1001127445470541
2024-12-07 17:59:56.253856000,4.43885595703125,-0.093673066888377,0.0313069924116134,-0.1960137166179716
2024-12-07 17:59:56.263829000,4.4488291015625,0.0171890352100133,-0.110589203441143,-0.1762223899550735
2024-12-07 17:59:56.273802000,4.458802001953125,0.1260368748765438,-0.3525929562091827,-0.2022496883980929
2024-12-07 17:59:56.283775000,4.46877490234375,0.2402975333720445,-0.5426344665497541,-0.1559698389885947
2024-12-07 17:59:56.293748000,4.478748046875,0.1397568457365036,-0.5728939957350492,-0.1755435043128207
2024-12-07 17:59:56.303721000,4.488720947265625,-0.0673603025674819,-0.3987000428676605,-0.1969327676916495
2024-12-07 17:59:56.313694000,4.49869384765625,-0.1110784482628107,-0.0685264237374067,-0.0841630053410306
2024-12-07 17:59:56.323668000,4.50866796875,0.0129009095620363,0.295795548710227,0.1315645522568374
2024-12-07 17:59:56.333641000,4.518640869140625,0.0806417358797043,0.4833803135484457,0.3692926369996741
2024-12-07 17:59:56.343614000,4.528614013671875,0.0967272668272256,0.3854804958105087,0.5740786024097353
2024-12-07 17:59:56.353587000,4.5385869140625,0.1276741937547922,-0.0008604162216186,0.671870210532844
2024-12-07 17:59:56.363560000,4.548559814453125,0.0669025488626211,-0.4207043694049119,0.620182547263056
2024-12-07 17:59:56.373533000,4.558532958984375,-0.1071867015212774,-0.6681079353898763,0.577098863546364
2024-12-07 17:59:56.383506200,4.568506103515625,-0.2518476493796333,-0.71362582398355,0.5961847818862647
2024-12-07 17:59:56.393479000,4.57847900390625,-0.3962251771867275,-0.5157791928499936,0.5743843073580414
2024-12-07 17:59:56.403452000,4.588451904296875,-0.4810568755695596,-0.1770557720392942,0.5538051547857001
2024-12-07 17:59:56.413426000,4.598426025390625,-0.4948457469472661,0.31223931851089,0.5529514605658129
2024-12-07 17:59:56.423399000,4.60839892578125,-0.7084212410777807,0.5511404290884733,0.4072715814558789
2024-12-07 17:59:56.433372000,4.618371826171875,-1.113824580976367,0.5010205996572971,0.3004583894221111
2024-12-07 17:59:56.443345200,4.62834521484375,-1.7179443205803633,0.4331044167727231,0.190780272943899
2024-12-07 17:59:56.453318000,4.63831787109375,-2.2728227671533823,0.2438333062827587,0.182486491851136
2024-12-07 17:59:56.463291000,4.648290771484375,-2.662853181353212,0.1464016905784607,0.1997355866853147
2024-12-07 17:59:56.473263900,4.658263916015625,-2.8455051659643646,0.0591267272293567,0.3613614421416073
2024-12-07 17:59:56.483237000,4.668237060546875,-2.8048177662670613,0.0151969846099615,0.7160494709338993
2024-12-07 17:59:56.493210000,4.678210205078125,-2.455686933210492,-0.0690589231789112,1.2004790743395686
2024-12-07 17:59:56.503182800,4.688182861328125,-1.949345430791378,0.0300286430388689,1.5690075585663317
2024-12-07 17:59:56.513156900,4.698156982421875,-1.5685808575868605,-0.040733576926589,1.794860240869969
2024-12-07 17:59:56.523129900,4.7081298828125,-1.1323071631282566,0.0876706846684217,2.14849160021618
2024-12-07 17:59:56.533103000,4.71810302734375,-0.8624018424779176,0.3639361880004406,2.437544688928872
2024-12-07 17:59:56.543075300,4.728075439453125,-0.7955524120420217,0.3663900108933448,2.470533204686641
2024-12-07 17:59:56.553048300,4.73804833984375,-0.6623077246785164,0.6127209792107343,2.5471529185086488
2024-12-07 17:59:56.563021300,4.748021240234375,-0.632216537797451,0.8215379171699285,2.516529232186079
2024-12-07 17:59:56.572994300,4.757994384765625,-0.4868769234925508,1.011752445989847,2.4155405085220933
2024-12-07 17:59:56.582967300,4.76796728515625,-0.0467266433289274,1.4826584778904914,2.4871856488019226
2024-12-07 17:59:56.592940300,4.777940185546875,0.2155839478760957,1.6208061348646878,2.303090479645133
2024-12-07 17:59:56.602914300,4.787914306640625,-0.1018260512709617,2.0318337443858385,2.613969907979667
2024-12-07 17:59:56.612887300,4.79788720703125,-0.5296171275338157,2.052386118549109,2.495432960404456
2024-12-07 17:59:56.622860500,4.807860595703125,-0.8382225099891424,2.273893611255288,2.2641429093524814
2024-12-07 17:59:56.632833300,4.817833251953125,-1.1246768874455242,2.2572721468001604,1.771209170038998
2024-12-07 17:59:56.642806300,4.82780615234375,-1.40332365989089,1.8939350937366484,0.9216172709040344
2024-12-07 17:59:56.652779300,4.837779296875,-1.7544810303390026,1.411315243166685,0.0323697628049179
2024-12-07 17:59:56.662752500,4.84775244140625,-2.183481518924236,0.8957266044527292,-0.936697205005586
2024-12-07 17:59:56.672725500,4.8577255859375,-2.5008915180712936,0.4360895700633526,-1.9319106041267515
2024-12-07 17:59:56.682698200,4.8676982421875,-2.3939285423032937,0.0026262568503618,-3.140104782888293
2024-12-07 17:59:56.692672300,4.87767236328125,-1.7976397885859012,-0.3883475756794214,-4.374173699879646
2024-12-07 17:59:56.702645200,4.887645263671875,-0.497389549678564,-0.6325824485003948,-5.000449741712212
2024-12-07 17:59:56.712618200,4.8976181640625,1.840199411895871,-0.5461135408371687,-4.647002799022197
2024-12-07 17:59:56.722591500,4.907591552734375,3.682842125290632,-0.341695130097866,-3.798258310496807
2024-12-07 17:59:56.732564500,4.917564453125,4.727196864199638,-0.0621031126916408,-2.624545954790712
2024-12-07 17:59:56.742537200,4.927537109375,4.968069567111134,0.2139630686759948,-1.2351555431842802
2024-12-07 17:59:56.752510200,4.93751025390625,4.135132304048538,0.4596031321197747,-0.1117262446470558
2024-12-07 17:59:56.762483500,4.9474833984375,2.2885442140288648,0.8378074994474649,0.510726658700779
2024-12-07 17:59:56.772456400,4.95745654296875,0.3811415898233652,1.1617267343580722,0.780408034402132
2024-12-07 17:59:56.782429400,4.967429443359375,-0.4932452894806861,1.4042495425641537,0.6732252053383737
2024-12-07 17:59:56.792403200,4.9774033203125,0.0484131716437637,1.5523030920028686,0.2315755169298499
2024-12-07 17:59:56.802376200,4.987376220703125,1.0633867716372012,1.3563076416939497,-0.3753472973961383
2024-12-07 17:59:56.812349400,4.997349365234375,1.7658549495294689,0.862460879188776,-0.6924792833194137
2024-12-07 17:59:56.822322400,5.007322509765625,2.0398225511826573,0.146236855405569,-0.82006894059591
2024-12-07 17:59:56.832295400,5.01729541015625,2.013131528133899,-0.665837067848444,-0.921141323955357
2024-12-07 17:59:56.842268200,5.02726806640625,1.6849124040722847,-1.3227338733941316,-0.8926297344159334
2024-12-07 17:59:56.852241200,5.0372412109375,1.3528349971473217,-1.8557172990232704,-0.9347731781404464
2024-12-07 17:59:56.862214400,5.04721435546875,1.1294111494258046,-2.2072440873056647,-1.1556983409140258
2024-12-07 17:59:56.872187400,5.0571875,1.119236669152975,-2.399736497929692,-1.3095377072125671
2024-12-07 17:59:56.882161400,5.067161376953125,1.2424644048929214,-2.357378534671664,-1.2876760040163993
2024-12-07 17:59:56.892134400,5.077134521484375,1.2848501329407096,-2.1191344266980887,-1.0610943498510867
2024-12-07 17:59:56.902107100,5.087107177734375,1.1694435923457145,-1.8382792574882507,-0.9731372494567184
2024-12-07 17:59:56.912080400,5.097080322265625,0.8548878135859965,-1.5905097808003426,-0.8969058042999356
2024-12-07 17:59:56.922053400,5.107053466796875,0.4754173718452453,-1.3496633813738823,-0.8596391728315502
2024-12-07 17:59:56.932026400,5.1170263671875,0.28726678981781,-1.206418108999729,-0.9671779026608912
2024-12-07 17:59:56.941999400,5.126999267578125,0.0294501124985516,-1.308612993583083,-1.2138531543713065
2024-12-07 17:59:56.951972400,5.136972412109375,-0.3922030820637941,-1.779820054256916,-1.391963769225776
2024-12-07 17:59:56.961945300,5.1469453125,-0.810576378172636,-2.3184096293300387,-1.234260932432115
2024-12-07 17:59:56.971919400,5.15691943359375,-1.0900889006018637,-2.585879247266054,-0.9694326958503574
2024-12-07 17:59:56.981892400,5.166892333984375,-1.151635548454523,-2.4396874000459907,-0.723478817217052
2024-12-07 17:59:56.991865300,5.176865234375,-0.964629752548039,-2.197205508372188,-0.5188906028687954
2024-12-07 17:59:57.001838300,5.18683837890625,-0.5487275227278471,-1.987376178500056,-0.4317865391071885
2024-12-07 17:59:57.011811300,5.196811279296875,-0.1222489538356661,-1.7580518745630975,-0.2143989758752286
2024-12-07 17:59:57.021784300,5.206784423828125,0.0079568042233586,-1.5684867495626211,0.3758659875079989
2024-12-07 17:59:57.031757300,5.21675732421875,-0.4436760796695947,-1.193190963158011,1.171371053276956
2024-12-07 17:59:57.041730300,5.226730224609375,-1.5696597388647495,-0.5213906029909848,2.2199451634466647
2024-12-07 17:59:57.051703600,5.23670361328125,-3.2700966059356924,0.3542915768206119,3.556495380747318
2024-12-07 17:59:57.061677600,5.246677490234375,-5.161889426946639,1.273920450386405,4.6512125256717205
2024-12-07 17:59:57.071650300,5.256650390625,-6.215631002882122,1.898394995754957,4.971152335557341
2024-12-07 17:59:57.081623300,5.266623291015625,-5.493367114412784,1.7696487888544796,3.806244048553705
2024-12-07 17:59:57.091596300,5.27659619140625,-3.773862120386958,1.0194061756134032,2.276716413591057
2024-12-07 17:59:57.101569500,5.286569580078125,-2.253190138183534,0.1038730469286441,1.291537794011086
2024-12-07 17:59:57.111542300,5.296542236328125,-1.4014435452327132,-0.7774450929433107,0.5726789282122626
2024-12-07 17:59:57.121515300,5.306515380859375,-0.7735368334583937,-1.3258113811433314,0.1108079607583582
2024-12-07 17:59:57.131488300,5.31648828125,-0.2638724702268838,-1.089877888199687,-0.3188447811905294
2024-12-07 17:59:57.141461200,5.326461181640625,-0.0789693456880748,0.2172854910969734,-0.9178879481825976
2024-12-07 17:59:57.151435300,5.336435302734375,-0.0451823730289936,2.413327216386795,-1.393842860970646
2024-12-07 17:59:57.161408500,5.346408447265625,-0.4055801577702164,4.72715536314547,-1.554750777415931
2024-12-07 17:59:57.171381200,5.35638134765625,-0.8445813774965703,6.130362118658423,-1.6766835049092768
2024-12-07 17:59:57.181354200,5.366354248046875,-0.3680541447132825,6.285386091631651,-1.9571751015037293
2024-12-07 17:59:57.191327200,5.3763271484375,1.0027053623117506,5.245146386826038,-2.0925579699397088
2024-12-07 17:59:57.201300500,5.386300537109375,2.0464030986167487,2.342807573005557,-1.9115436695329844
2024-12-07 17:59:57.211273500,5.3962734375,1.8756663004659115,-1.0570248353898524,-2.36175981849581
2024-12-07 17:59:57.221246200,5.40624609375,0.9487608600258828,-3.402619993287325,-2.9880460894614456
2024-12-07 17:59:57.231219200,5.41621923828125,-0.0359625631324946,-4.811763153111935,-3.1719302462160583
2024-12-07 17:59:57.241193200,5.426193115234375,0.3404929147012531,-5.076519420436024,-3.022156741116941
2024-12-07 17:59:57.251166500,5.43616650390625,2.278606757382303,-3.9294916580379007,-2.491964699772
2024-12-07 17:59:57.261139500,5.446139404296875,4.157490850850939,-2.063942700830102,-1.412980546030402
2024-12-07 17:59:57.271112400,5.456112548828125,4.903533089792728,0.0666764119565486,-0.2814225207690149
2024-12-07 17:59:57.281085200,5.466085205078125,4.491659677097201,1.910934159332513,0.7111489124760031
2024-12-07 17:59:57.291058200,5.47605810546875,3.469839426079392,2.8053187015265224,1.3300471190169454
2024-12-07 17:59:57.301031400,5.486031494140625,2.192664942333102,2.901305963641405,1.5781950736284256
2024-12-07 17:59:57.311004400,5.49600439453125,1.0515439197607337,2.380361350852251,1.5118873488537967
2024-12-07 17:59:57.320977400,5.505977294921875,0.488335013346374,1.5495657759934662,1.296684655380249
2024-12-07 17:59:57.330951400,5.515951416015625,0.401394834909588,0.7201479192286729,1.0226169543534516
2024-12-07 17:59:57.340924200,5.525924072265625,0.408046547883749,0.0411561862528324,0.5167353245310485
2024-12-07 17:59:57.350897400,5.5358974609375,0.7207517303407192,-0.3703869715750217,-0.0451171988382935
2024-12-07 17:59:57.360870400,5.545870361328125,1.1431932988017797,-0.5215753119081259,-0.5850630108259618
2024-12-07 17:59:57.370843400,5.555843505859375,1.2484206829488276,-0.5351490792304278,-1.0837506374910473
2024-12-07 17:59:57.380816100,5.565816162109375,1.0917682319909334,-0.5029635504186153,-1.5440015659950672
2024-12-07 17:59:57.390789400,5.575789306640625,0.6535434034645557,-0.4847036711066961,-1.8414418131724
2024-12-07 17:59:57.400762400,5.585762451171875,-0.1131933945901691,-0.4138210396319627,-1.9674027732685209
2024-12-07 17:59:57.410735400,5.5957353515625,-0.7745302284099161,-0.2082090351939201,-1.93737822188288
2024-12-07 17:59:57.420709400,5.60570947265625,-1.084334867119789,0.1384013394743204,-1.5437874848529696
2024-12-07 17:59:57.430682400,5.615682373046875,-1.0552134020537138,0.3283779678851365,-1.0038139080755413
2024-12-07 17:59:57.440655000,5.625655029296875,-0.7538747591983527,0.3468903606534004,-0.4322323466459289
2024-12-07 17:59:57.450628400,5.63562841796875,-0.2530488783955574,0.3707505441904067,0.1332915221799165
2024-12-07 17:59:57.460601300,5.645601318359375,0.3850754221409559,0.1671937187165021,0.5993347338171675
2024-12-07 17:59:57.470574300,5.65557421875,1.0643138233542442,0.2013502553403377,1.0881345516636969
2024-12-07 17:59:57.480547300,5.66554736328125,1.7323522006392478,0.1097311253070831,1.5377125488534569
2024-12-07 17:59:57.490520300,5.675520263671875,2.2416472921669484,0.1236398236721754,1.9603402875363825
2024-12-07 17:59:57.500493300,5.685493408203125,2.277991109701991,0.1165332065373659,2.0881138500124217
2024-12-07 17:59:57.510467300,5.69546728515625,1.886499975299835,-0.1064572182029485,1.9285561791323125
2024-12-07 17:59:57.520440300,5.7054404296875,1.20373047735095,-0.3749380590081215,1.3595188588254152
2024-12-07 17:59:57.530413300,5.715413330078125,0.5542104111183435,-0.5083160173624753,0.772335348714143
2024-12-07 17:59:57.540386600,5.725386474609375,0.1796714344304054,-0.4690782319515943,0.4813332082929089
2024-12-07 17:59:57.550359600,5.735359619140625,-0.066647770383954,-0.4193067775666713,0.2177078812275081
2024-12-07 17:59:57.560332300,5.745332275390625,-0.2455376990478485,-0.3809036894142627,-0.0309894143624231
2024-12-07 17:59:57.570305300,5.75530517578125,-0.1312474491316825,-0.3721937287360429,-0.1487811695935204
2024-12-07 17:59:57.580278300,5.7652783203125,0.2023894621949643,-0.360145563545823,-0.0963103931220248
2024-12-07 17:59:57.590251500,5.77525146484375,0.4411450998872518,-0.2919499791979789,0.0720023562196642
2024-12-07 17:59:57.600225500,5.7852255859375,0.4911463444400578,-0.269590263351798,0.0680734192728996
2024-12-07 17:59:57.610198500,5.795198486328125,0.2623433609634638,-0.3137339409828186,0.0953833414049819
2024-12-07 17:59:57.620171300,5.805171142578125,-0.2870112806867808,-0.3616641514152288,0.228179152489826
2024-12-07 17:59:57.630144300,5.815144287109375,-0.8421510816097258,-0.3989057945728301,0.4329661042805761
2024-12-07 17:59:57.640117500,5.825117431640625,-1.1490437053304166,-0.2420896774858236,0.6274072378195822
2024-12-07 17:59:57.650090500,5.835090576171875,-1.0451894361674785,0.0663952569276094,0.9850687294647096
2024-12-07 17:59:57.660063200,5.845063232421875,-0.805140397663787,0.3472264607399702,1.2508917492374778
2024-12-07 17:59:57.670036200,5.8550361328125,-0.510524925583601,0.4725958846837282,1.4747788305565714
2024-12-07 17:59:57.680009500,5.865009521484375,-0.2201929760415107,0.3967161755740642,1.5011764236167071
2024-12-07 17:59:57.689983500,5.8749833984375,-0.2999304200252518,0.1901239279270172,1.294062490183115
2024-12-07 17:59:57.699956500,5.88495654296875,-0.5307989942621439,0.0755254888445138,1.0898717507198452
2024-12-07 17:59:57.709929500,5.894929443359375,-0.6153676943272351,0.0102279640257358,1.0303354197762906
2024-12-07 17:59:57.719902200,5.904902099609375,-0.4952945501606911,-0.1140653551191091,1.010635789984837
2024-12-07 17:59:57.729875200,5.914875244140625,-0.2861199578702449,-0.2815378907769918,1.0152528553262352
2024-12-07 17:59:57.739848400,5.924848388671875,-0.1834550811549648,-0.3099310415685176,0.9336689432255924
2024-12-07 17:59:57.749821400,5.934821533203125,-0.3973240783393383,-0.3258493261903524,0.947874432580173
2024-12-07 17:59:57.759794400,5.94479443359375,-0.8023182529151439,-0.2850654803812503,1.0198588147517291
2024-12-07 17:59:57.769767200,5.95476708984375,-1.025227429112792,-0.2121639102995395,1.0700709255762395
2024-12-07 17:59:57.779741200,5.9647412109375,-1.0823819794863463,0.0181909057289361,1.285852880242467
2024-12-07 17:59:57.789714400,5.97471435546875,-1.0983294902026652,0.4246984074771404,1.512394129332155
2024-12-07 17:59:57.799687400,5.9846875,-0.9609943186551332,0.757597067657113,1.5606107554905115
2024-12-07 17:59:57.809660400,5.994660400390625,-1.0881991413325072,0.9458014256983996,1.317292120731622
2024-12-07 17:59:57.819633400,6.00463330078125,-1.522775384223461,1.1031149709135293,1.0272911567095666
2024-12-07 17:59:57.829606400,6.0146064453125,-1.9802999565035104,1.4001356775045397,0.8270091881878674
2024-12-07 17:59:57.839579400,6.024579345703125,-2.0763148372776805,1.5272604206830265,0.6544274928227066
2024-12-07 17:59:57.849552400,6.034552490234375,-1.6594348484665151,1.7866396711438892,0.7020233567342161
2024-12-07 17:59:57.859525400,6.044525390625,-1.2907424058496952,1.930031073990464,0.7918566262640059
2024-12-07 17:59:57.869499400,6.05449951171875,-0.9717086048930884,2.0168167925179,0.9413586940106003
2024-12-07 17:59:57.879472400,6.064472412109375,-0.7433277192860841,1.95346338750422,0.9706471131414176
2024-12-07 17:59:57.889445400,6.0744453125,-0.6476900012612342,1.5206091461002826,0.8662746653232722
2024-12-07 17:59:57.899418400,6.08441845703125,-0.8694405820082872,1.0269909316539765,0.6674261636707931
2024-12-07 17:59:57.909391400,6.094391357421875,-1.484703135460615,0.6952893723040818,0.4778507364720106
2024-12-07 17:59:57.919364400,6.1043642578125,-2.1804403976626694,0.632708705228567,0.3270824116492644
2024-12-07 17:59:57.929337300,6.11433740234375,-2.5613018553704023,0.635366526260972,0.0818327540288679
2024-12-07 17:59:57.939310300,6.124310302734375,-2.7527181611955163,0.7916273475527763,-0.2753522792109288
2024-12-07 17:59:57.949284400,6.134284423828125,-3.048529491996765,1.0362374834269286,-1.021428694416955
2024-12-07 17:59:57.959257300,6.14425732421875,-2.940090160065889,0.9675994160085916,-2.5979151374965905
2024-12-07 17:59:57.969230300,6.154230224609375,-1.930588707873225,0.6141250007897615,-3.998589744183421
2024-12-07 17:59:57.979203600,6.16420361328125,0.1557698229044676,0.0779781426936388,-4.200188713587821
2024-12-07 17:59:57.989176300,6.17417626953125,2.5766674745455385,-0.30026597212255,-3.72170318634361
2024-12-07 17:59:57.999149300,6.1841494140625,4.481264539811015,-0.5762777929544448,-2.6938024463683363
2024-12-07 17:59:58.009122300,6.194122314453125,5.188441918307542,-0.5965560263514519,-1.3363750068642195
2024-12-07 17:59:58.019095300,6.20409521484375,5.07505402405858,-0.4575537983745336,0.0346209757978096
2024-12-07 17:59:58.029068500,6.214068603515625,3.941661988303065,-0.0756932466268539,1.2732954503558576
2024-12-07 17:59:58.039042600,6.22404248046875,2.134675110179186,0.5512333680689334,2.2400888106785715
2024-12-07 17:59:58.049015300,6.234015380859375,0.1874813044637441,1.1352882247656584,2.669882349337638
2024-12-07 17:59:58.058988300,6.24398828125,-0.3076274408012628,1.3192910394638775,2.348639055638015
2024-12-07 17:59:58.068961300,6.253961181640625,0.1210328560441732,1.1309726996541023,1.7893942305490371
2024-12-07 17:59:58.078934500,6.2639345703125,0.5246989968866109,0.5742793126136064,1.1124928939811884
2024-12-07 17:59:58.088907500,6.273907470703125,0.6506131952315568,-0.054616556328535,0.5391415829326958
2024-12-07 17:59:58.098880300,6.28388037109375,0.7515610023632645,-0.6943132207483053,0.0783562552910298
2024-12-07 17:59:58.108853200,6.293853271484375,0.8818032930403947,-1.2738035460084676,-0.3267313697218895
2024-12-07 17:59:58.118826500,6.303826416015625,1.0062442039623856,-1.760153230756521,-0.6194158006742596
2024-12-07 17:59:58.128800500,6.313800537109375,1.1491232733726502,-2.1107903767228127,-0.8262399573810398
2024-12-07 17:59:58.138773500,6.3237734375,1.228005963690579,-2.331434530597925,-1.071477723634243
2024-12-07 17:59:58.148746500,6.33374658203125,1.2391390598624945,-2.491500004869699,-1.2010269905459134
2024-12-07 17:59:58.158719200,6.34371923828125,1.2923939724490046,-2.472544544509053,-1.2924476023323834
2024-12-07 17:59:58.168692200,6.353692138671875,1.31592945407629,-2.3788287344574925,-1.3653683155059813
2024-12-07 17:59:58.178665500,6.36366552734375,1.283368662211299,-2.2784914604395627,-1.3291323422595858
2024-12-07 17:59:58.188638500,6.373638427734375,0.913109847060591,-2.1255320187807083,-1.3185646248854697
2024-12-07 17:59:58.198611500,6.383611572265625,0.3846244635030627,-1.852320642322301,-1.4031703690253197
2024-12-07 17:59:58.208584200,6.393584228515625,-0.1528067353151738,-1.6484838308632372,-1.6501915115639567
2024-12-07 17:59:58.218558200,6.40355810546875,-0.6957400386810302,-1.6504864028573034,-1.9021411965459585
2024-12-07 17:59:58.228531500,6.413531494140625,-1.3414056945078074,-1.7331383825808762,-1.788938303475082
2024-12-07 17:59:58.238504400,6.42350439453125,-2.168954834791273,-1.7193986110419035,-1.4195739529460667
2024-12-07 17:59:58.248477400,6.4334775390625,-2.76809868567884,-1.4881430467814207,-0.990277111762762
2024-12-07 17:59:58.258450200,6.4434501953125,-2.911283752298355,-1.0664169331133364,-0.6171431795671581
2024-12-07 17:59:58.268423400,6.45342333984375,-2.89511324648112,-0.6954577146083116,-0.4435737883388996
2024-12-07 17:59:58.278396400,6.463396484375,-2.6075024655312298,-0.4523942236542701,-0.3406526718402281
2024-12-07 17:59:58.288369400,6.473369384765625,-2.197893929027766,-0.1980588125795125,-0.0713668713277205
2024-12-07 17:59:58.298342400,6.48334228515625,-2.099216843307018,0.1067190840095281,0.4204334069764241
2024-12-07 17:59:58.308316400,6.49331640625,-2.350927166575193,0.4989554838210344,1.1373029255889355
2024-12-07 17:59:58.318289200,6.5032890625,-2.76248376840651,0.9336626596152782,1.8067922323346133
2024-12-07 17:59:58.328262400,6.513262451171875,-2.892170471027493,1.2751631439238786,2.249160882667452
2024-12-07 17:59:58.338235400,6.5232353515625,-2.6895453734457493,1.4116203635931015,2.312146331151575
2024-12-07 17:59:58.348208400,6.53320849609375,-2.157546867200732,1.1844108598530292,1.9869132371634244
2024-12-07 17:59:58.358181400,6.543181396484375,-1.2928712345719338,0.4985124162286519,1.303112204209715
2024-12-07 17:59:58.368154400,6.553154296875,-0.5393981149770319,-0.19791443567276,0.7864739833775908
2024-12-07 17:59:58.378127400,6.56312744140625,-0.1784067482568323,-0.7515466815769672,0.5502379272907972
2024-12-07 17:59:58.388101400,6.573101318359375,-0.2582579913459718,-1.302936116990447,0.4896213633624836
2024-12-07 17:59:58.398074400,6.583074462890625,-0.8085321589939296,-1.7302940990656612,0.7088024954803288
2024-12-07 17:59:58.408047400,6.59304736328125,-1.2155692375741898,-1.883041943800449,1.0028918247945606
2024-12-07 17:59:58.418020600,6.6030205078125,-0.9043914108149708,-1.3464923501223325,0.9627557753697036
2024-12-07 17:59:58.427993300,6.612993408203125,-0.0032194004379212,0.3054436670213937,0.6612596038650721
2024-12-07 17:59:58.437966300,6.62296630859375,0.760181092800945,2.637213128662109,0.2786202132320031
2024-12-07 17:59:58.447939300,6.632939208984375,1.024350646278262,4.741251693037152,-0.2991858487356454
2024-12-07 17:59:58.457912300,6.642912353515625,1.01560795237422,5.914540270373225,-1.091500228704512
2024-12-07 17:59:58.467885600,6.652885498046875,1.1686708544075488,5.880203116485476,-2.263108890129625
2024-12-07 17:59:58.477859600,6.662859619140625,1.6149628156639635,4.746968317118287,-3.5852401214554903
2024-12-07 17:59:58.487832300,6.672832275390625,1.560537397993356,2.0348323416799308,-3.877384161920846
2024-12-07 17:59:58.497805300,6.682805419921875,0.6735153473913669,-0.9827361948639154,-3.3690222595900297
2024-12-07 17:59:58.507778300,6.6927783203125,-0.0671238634631037,-2.9688468834728,-2.9451664404168723
2024-12-07 17:59:58.517751600,6.70275146484375,0.1399953306674957,-3.975147493797541,-2.54273159493506
2024-12-07 17:59:58.527724300,6.712724365234375,1.6265899789631366,-3.86748148432672,-2.245435578534007
2024-12-07 17:59:58.537697500,6.722697509765625,3.1759517568171023,-2.8346108469843863,-1.879369538898021
2024-12-07 17:59:58.547670300,6.732670166015625,3.7658810585051774,-1.5239941123634575,-1.5103206840589642
2024-12-07 17:59:58.557643500,6.7426435546875,3.356947206392884,-0.1001221699625253,-1.1928043019279837
2024-12-07 17:59:58.567617500,6.752617431640625,2.672625802826881,1.194439501914382,-0.7239374477047473
2024-12-07 17:59:58.577590500,6.762590576171875,1.8898032546289265,1.9999398919969795,-0.02087400733307
2024-12-07 17:59:58.587563500,6.7725634765625,1.1351334725953637,2.259208083298802,0.5166158263372257
2024-12-07 17:59:58.597536500,6.78253662109375,0.7545294967800379,2.0582751765877005,0.7349234635561704
2024-12-07 17:59:58.607509200,6.79250927734375,0.8553560156196355,1.382583069679141,0.7874200320560485
2024-12-07 17:59:58.617482500,6.802482421875,1.3152964168697594,0.5952022736549377,0.6630653381127863
2024-12-07 17:59:58.627455500,6.81245556640625,1.8659727355778213,-0.0494961445748806,0.3446671681785956
2024-12-07 17:59:58.637428500,6.822428466796875,2.067262931293994,-0.4595370811462402,0.0450304704029113
2024-12-07 17:59:58.647401500,6.8324013671875,1.6998745570130644,-0.6205085643470287,-0.0926402532419189
2024-12-07 17:59:58.657375500,6.84237548828125,1.3528401117138564,-0.6795394299864769,-0.0690820483261719
2024-12-07 17:59:58.667348500,6.852348388671875,1.195920095860958,-0.4625777640163898,0.1808032149393111
2024-12-07 17:59:58.677321500,6.862321533203125,1.0723245497219265,-0.1726964077860117,0.6080835652010514
2024-12-07 17:59:58.687294500,6.87229443359375,0.901936053552106,0.0340787952125072,1.1130551309738308
2024-12-07 17:59:58.697267500,6.882267333984375,0.7199133798204362,-0.0631856472313404,1.3012345737695694
2024-12-07 17:59:58.707240700,6.89224072265625,0.516507434059307,1.34440034627e-05,1.324972592231631
2024-12-07 17:59:58.717213400,6.90221337890625,0.4480652545392513,-0.224199800530076,1.157081904226914
2024-12-07 17:59:58.727186400,6.9121865234375,0.428581970912218,-0.2871282581299543,1.0880609749708323
2024-12-07 17:59:58.737160400,6.922160400390625,0.3535866434216499,-0.4432856190472841,0.9907679640196264
2024-12-07 17:59:58.747133400,6.932133544921875,0.2866226466953754,-0.3562485561072826,1.0266209292978048
2024-12-07 17:59:58.757106400,6.9421064453125,0.3175431970726698,-0.3258797213286161,1.0016049267891791
2024-12-07 17:59:58.767079400,6.952079345703125,0.311502163342759,-0.1698340040922165,1.0562868765041231
2024-12-07 17:59:58.777052400,6.962052490234375,0.1162391920268535,-0.0525368274450302,1.0760889437567442
2024-12-07 17:59:58.787025400,6.972025390625,-0.2136953576505184,0.0116360772579908,0.9338957377187908
2024-12-07 17:59:58.796998400,6.981998291015625,-0.5174772289395332,0.315381708189845,0.9406707117464392
2024-12-07 17:59:58.806971600,6.9919716796875,-0.8379653203576802,0.2962760257035494,0.786134449224919
2024-12-07 17:59:58.816944400,7.0019443359375,-1.159559911713004,0.1394932263642549,0.4975297618668526
2024-12-07 17:59:58.826918400,7.01191845703125,-1.3058014432936906,-0.0342366161227226,0.2736670660703443
2024-12-07 17:59:58.836891400,7.021891357421875,-1.3116869942009448,-0.2078513077974319,0.2717474048530682
2024-12-07 17:59:58.846864400,7.031864501953125,-1.0703022501140833,-0.2340951716005802,0.3260260709967464
2024-12-07 17:59:58.856837600,7.041837646484375,-0.5828916581362485,-0.0486439116597175,0.5418780952244997
2024-12-07 17:59:58.866810600,7.051810546875,-0.2365653428400866,0.0693535222113132,0.6203466517835855
2024-12-07 17:59:58.876783400,7.061783447265625,0.0281593420356512,0.0337017785936594,0.5210971730023622
2024-12-07 17:59:58.886756400,7.07175634765625,0.1566337462574243,-0.0785264242261648,0.3167718839066103
2024-12-07 17:59:58.896729300,7.081729248046875,-0.1061848492686636,-0.1840636049747467,0.0340215759993996
2024-12-07 17:59:58.906703400,7.091703369140625,-0.7182686813533306,-0.3478121516734361,-0.3389179570021107
2024-12-07 17:59:58.916676600,7.101676513671875,-1.1424626464396714,-0.3957581441968679,-0.3630363896165043
2024-12-07 17:59:58.926649600,7.111649658203125,-1.169463466089964,-0.3596691782057285,-0.2456158788505941
2024-12-07 17:59:58.936622300,7.121622314453125,-0.9327759399086236,-0.3607429449170827,-0.0474587478626053
2024-12-07 17:59:58.946595300,7.13159521484375,-0.7564017203927039,-0.3602624679237604,0.1600605789009481
2024-12-07 17:59:58.956568600,7.141568603515625,-0.6152484518617392,-0.3525672372460365,0.3950729384116828
2024-12-07 17:59:58.966541600,7.15154150390625,-0.3554898466944694,-0.171269005331397,0.8255090127579867
2024-12-07 17:59:58.976514600,7.1615146484375,-0.2394599135041236,0.1028583169281482,1.1276983541585504
2024-12-07 17:59:58.986487300,7.1714873046875,-0.1184562835544347,0.3085357878178358,1.3554099622018634
2024-12-07 17:59:58.996461300,7.18146142578125,0.1735737751424312,0.4667062421232462,1.5009363312505184
2024-12-07 17:59:59.006434600,7.1914345703125,0.1844645869910716,0.599220861646533,1.2891314635217188
2024-12-07 17:59:59.016407600,7.201407470703125,-0.1003618056709878,0.4178390431016683,0.8119295463472604
2024-12-07 17:59:59.026380500,7.211380615234375,-0.5252712438166142,0.3382394366860389,0.4753774416936561
2024-12-07 17:59:59.036353300,7.221353271484375,-1.1994774960815906,0.3252840935230255,0.2504147304996848
2024-12-07 17:59:59.046326300,7.231326171875,-2.0047218655765056,0.2431979309886693,0.1783309248079545
2024-12-07 17:59:59.056299500,7.241299560546875,-2.4554759208083152,0.3225561298638582,0.5254175934847444
2024-12-07 17:59:59.066272500,7.2512724609375,-2.2376742968827483,0.8180565047949552,1.1487583855830132
2024-12-07 17:59:59.076245500,7.26124560546875,-1.348307875111699,1.691010136425495,1.661673567304015
2024-12-07 17:59:59.086219500,7.271219482421875,-0.1923333841374143,2.4793770208776,1.8708909027576448
2024-12-07 17:59:59.096192300,7.281192138671875,0.4731804065734147,2.807322442564368,1.6534921605445445
2024-12-07 17:59:59.106165500,7.29116552734375,0.6655950757861137,3.479089484983682,1.2441023813582957
2024-12-07 17:59:59.116138500,7.301138427734375,0.5767044208686799,4.329241502219438,0.5514645830089226
2024-12-07 17:59:59.126111500,7.311111572265625,-0.0350046778857707,4.358627171179652,-0.1680971520959399
2024-12-07 17:59:59.136084500,7.32108447265625,-0.7547020038027316,3.1252713708937168,-0.526284585577622
2024-12-07 17:59:59.146057500,7.331057373046875,-0.9502052866805344,1.3681728515326976,-0.8250513321183621
2024-12-07 17:59:59.156030500,7.341030517578125,-0.7368447870075703,-0.0495581038951873,-1.2445219219446182
2024-12-07 17:59:59.166004500,7.35100439453125,-0.457469042700529,-0.908084566244483,-1.75737192947492
2024-12-07 17:59:59.175977500,7.3609775390625,-0.0764490334302187,-1.3057237018823622,-2.2924558345146475
2024-12-07 17:59:59.185950500,7.370950439453125,0.298925809559971,-1.465329741948843,-2.720308468239009
2024-12-07 17:59:59.195923500,7.38092333984375,0.5675808378882706,-1.5503338377565146,-3.068788728432357
2024-12-07 17:59:59.205896400,7.390896484375,0.7805250849105417,-1.6441718128830194,-3.2485768480449915
2024-12-07 17:59:59.215869400,7.400869384765625,0.6715332336634398,-1.642450980439782,-3.0165415315836666
2024-12-07 17:59:59.225842400,7.410842529296875,0.5451150313191115,-1.4141045816242694,-2.255671871996671
2024-12-07 17:59:59.235815400,7.4208154296875,0.5484532358311116,-0.9579670797884464,-1.496739902473986
2024-12-07 17:59:59.245788700,7.43078857421875,0.4894285076715052,-0.3434136244535446,-0.990742537317425
2024-12-07 17:59:59.255762700,7.4407626953125,0.8458768241345882,0.2435802083045244,-0.7005575950305909
2024-12-07 17:59:59.265735400,7.4507353515625,1.509849267154932,0.711188367703557,-0.5289661162791773
2024-12-07 17:59:59.275708400,7.46070849609375,2.2437647227123376,0.9585913491666316,-0.5766789211012423
2024-12-07 17:59:59.285681400,7.470681396484375,2.6432161684691904,1.09017014914453,-0.8107251389935612
2024-12-07 17:59:59.295654700,7.480654541015625,2.389684182731807,1.0244511840432882,-0.8743271850060671
2024-12-07 17:59:59.305627400,7.49062744140625,1.5909307826913892,0.6943050374418497,-0.8840902349337935
2024-12-07 17:59:59.315600400,7.500600341796875,0.7331093998715281,0.1686129378646612,-0.7047019282937049
2024-12-07 17:59:59.325573400,7.510573486328125,-0.054137248378992,-0.3438239588201046,-0.6047535805281251
2024-12-07 17:59:59.335546400,7.52054638671875,-0.326679931795597,-0.7967506819158792,-0.6976789708543568
2024-12-07 17:59:59.345520400,7.530520263671875,-0.1990028154313564,-1.1409598406612873,-0.6736296944860368
2024-12-07 17:59:59.355493600,7.54049365234375,0.0141252637252211,-1.1809212641716005,-0.6461717787180096
2024-12-07 17:59:59.365466400,7.55046630859375,0.2381027998067438,-1.0521066682100295,-0.6232107359778135
2024-12-07 17:59:59.375439400,7.560439453125,0.5512739923402666,-0.7817717239707708,-0.5735588893845677
2024-12-07 17:59:59.385412400,7.570412353515625,0.8122539559960364,-0.5045931974470615,-0.5872269108615815
2024-12-07 17:59:59.395385600,7.580385498046875,0.9324171895988284,-0.2653098095536232,-0.5007593183726072
2024-12-07 17:59:59.405358600,7.590358642578125,0.8577540166720747,-0.1497919175386428,-0.3963814637269824
2024-12-07 17:59:59.415331300,7.600331298828125,0.7496595526561141,-0.2559966222852468,-0.2946217556905001
2024-12-07 17:59:59.425305300,7.610305419921875,0.5486275694847107,-0.4187894756942987,-0.0119540206333622
2024-12-07 17:59:59.435278300,7.6202783203125,-0.0810210175208747,-0.523417724904418,0.3112105234524235
2024-12-07 17:59:59.445251600,7.63025146484375,-0.8071450885497033,-0.432660764658451,0.4593229269389063
2024-12-07 17:59:59.455224600,7.640224609375,-1.324618371966481,-0.1988011553794145,0.6202883457250893
2024-12-07 17:59:59.465197600,7.650197509765625,-1.117222406721115,-0.1221364333719015,0.8105923063941299
2024-12-07 17:59:59.475170300,7.66017041015625,-0.5773395769670605,-0.2951128271430731,0.9576707271903752
2024-12-07 17:59:59.485143300,7.670143310546875,-0.397688235476613,-0.6459042868882418,1.0407679664634168
2024-12-07 17:59:59.495116500,7.680116455078125,-0.2315792432568967,-1.1471253775537014,0.6393922746457159
2024-12-07 17:59:59.505090600,7.690090576171875,0.0161804426893591,-1.5643647011965511,0.0213480180529877
2024-12-07 17:59:59.515063600,7.7000634765625,0.0354278717339038,-1.877697075641155,-0.3055705813366919
2024-12-07 17:59:59.525036500,7.71003662109375,-0.3149766345202923,-2.004648800340295,-0.299216901461035
2024-12-07 17:59:59.535009300,7.72000927734375,-0.9683031803637744,-1.9430290872514249,-0.1197035802017897
2024-12-07 17:59:59.544982800,7.729982666015625,-1.7759785763978957,-1.9078572361052035,0.0069186933472752
2024-12-07 17:59:59.554956000,7.7399560546875,-2.515737789547443,-2.0336755728602407,-0.0956452437441796
2024-12-07 17:59:59.564928800,7.7499287109375,-3.0233547187298533,-2.2057792754501104,-0.2076444601137191
2024-12-07 17:59:59.574901800,7.75990185546875,-3.342280383136868,-2.147617593860626,0.0682427114252001
2024-12-07 17:59:59.584874800,7.769874755859375,-3.5399487350940704,-2.021377232301235,0.6783322461538016
2024-12-07 17:59:59.594848800,7.779848876953125,-3.456249292144179,-1.7645096724003553,1.359635909333825
2024-12-07 17:59:59.604822000,7.789822021484375,-2.984876811775565,-1.4895564207106828,1.8588623190507287
2024-12-07 17:59:59.614795000,7.799794921875,-2.060138486241549,-1.1606897925257682,2.1959499553531407
2024-12-07 17:59:59.624767700,7.809767822265625,-1.2491580573126673,-0.7971791364610195,2.7167329478397964
2024-12-07 17:59:59.634740700,7.81974072265625,-0.92632983250916,-0.5105985753417015,3.3495074117809533
2024-12-07 17:59:59.644714000,7.8297138671875,-0.9129039492249488,-0.4436351631373166,3.752555128464103
2024-12-07 17:59:59.654687000,7.83968701171875,-0.9501318561181424,-0.54267947473526,3.534434063325822
2024-12-07 17:59:59.664660000,7.849659912109375,-0.9020423634707928,-0.9695406132042408,2.399143354342133
2024-12-07 17:59:59.674634000,7.859634033203125,-1.0009463898152111,-1.3791151013076304,1.080312918127328
2024-12-07 17:59:59.684606700,7.869606689453125,-1.420976220959425,-1.2436860556423663,0.0547629790619015
2024-12-07 17:59:59.694579700,7.879579833984375,-2.326867661073804,-0.7176146013587713,-0.9107149147480724
2024-12-07 17:59:59.704553000,7.889552978515625,-3.6638437025710937,0.0547854831546545,-1.660780856247991
2024-12-07 17:59:59.714526000,7.89952587890625,-4.361715784844756,1.1463508860498666,-1.96452853300646
2024-12-07 17:59:59.724499000,7.9094990234375,-4.08814901907742,2.7176035931944846,-2.1667359896980223
2024-12-07 17:59:59.743199700,7.92819970703125,-0.4174015284672379,6.019610418131947,-2.339794508794695
2024-12-07 17:59:59.753173000,7.938173095703125,0.1355097096860408,6.153103527298569,-2.6001363206774
2024-12-07 17:59:59.763146000,7.94814599609375,2.229266826282441,5.552081753709912,-1.3970131615698336
2024-12-07 17:59:59.773119000,7.958118896484375,4.468053176060319,3.612333587825298,0.0121103802388533
2024-12-07 17:59:59.783091700,7.968091796875,4.994357270056009,0.5975549742609262,0.464059417408891
2024-12-07 17:59:59.793065000,7.97806494140625,4.9468496689498425,-1.9957646521389485,-0.1042370579354464
2024-12-07 17:59:59.803038000,7.988037841796875,4.620784361921251,-3.413611927422881,-1.0571722079712895
2024-12-07 17:59:59.813012000,7.998011962890625,3.3327351406782864,-3.958448872452974,-2.21434135209024
2024-12-07 17:59:59.822985000,8.00798486328125,1.5407168452359734,-3.802340026852488,-3.3666812494218346
2024-12-07 17:59:59.832958000,8.0179580078125,1.339016315153241,-3.00265913670361,-3.838605810715258
2024-12-07 17:59:59.842930700,8.0279306640625,2.863524222257733,-1.7363140900075436,-3.714907242593169
2024-12-07 17:59:59.852904000,8.037904052734374,3.871338452015817,-0.2834691511005163,-3.3133129395887253
2024-12-07 17:59:59.862877000,8.047876953125,4.000789300054311,1.3343348793387413,-2.501734983158112
2024-12-07 17:59:59.872850000,8.057849853515625,3.540190434895456,2.603202722510696,-1.335690970122814
2024-12-07 17:59:59.882823000,8.067822998046875,2.57988146815598,3.2248592878490685,-0.4622390701139345
2024-12-07 17:59:59.892797000,8.077796875,1.5467841824509203,3.159974435484409,-0.3257106483720243
2024-12-07 17:59:59.902770000,8.08777001953125,0.8308435056537389,2.502693014535308,-0.2087098973881453
2024-12-07 17:59:59.912743000,8.097742919921876,0.678525430638343,1.5145985075086354,0.0201040458738803
2024-12-07 17:59:59.922716000,8.1077158203125,1.0847235741764307,0.6039759472191334,0.1734026563592255
2024-12-07 17:59:59.932689000,8.11768896484375,1.6535656641721723,-0.1950058547496795,0.0724298243841156
2024-12-07 17:59:59.942662000,8.127661865234375,1.938567870058864,-0.7572884400993585,0.1191646875521168
2024-12-07 17:59:59.952635000,8.137634765625,1.9210557403743267,-1.1302110676318406,0.4274875267390161
2024-12-07 17:59:59.962607900,8.14760791015625,1.9091221414744848,-1.292087390717864,0.9711720868635922
2024-12-07 17:59:59.972582000,8.157581787109375,1.8662052291594444,-1.2881681714475155,1.5294984088681638
2024-12-07 17:59:59.982555000,8.167554931640625,1.865760115740448,-1.122201948699355,2.066188872321695
2024-12-07 17:59:59.992528000,8.17752783203125,1.7710997183151542,-0.725030430573225,2.444259091875702
2024-12-07 18:00:00.002500900,8.1875009765625,1.6377520089685915,-0.2516658996045589,2.5442075127065182
2024-12-07 18:00:00.012473900,8.197473876953126,1.466558406960964,0.193690095975995,2.5004537111759184
2024-12-07 18:00:00.022446800,8.20744677734375,1.0306647247958929,0.4288087654054164,2.253192184010148
2024-12-07 18:00:00.032419800,8.217419921875,0.3908411460608244,0.3124731272667646,1.6867752753347158
2024-12-07 18:00:00.042393000,8.22739306640625,-0.1659684877704829,0.0045130935102701,0.9459006482891738
2024-12-07 18:00:00.052365800,8.23736572265625,-0.4034199840616435,-0.1812695903420448,0.4778827025128528
2024-12-07 18:00:00.062339800,8.24733984375,-0.4939631554264574,-0.23301380610466,0.2678575212750583
2024-12-07 18:00:00.072312800,8.257312744140625,-0.5687626680839807,-0.176796828842163,0.1770438989384099
2024-12-07 18:00:00.082285800,8.267285888671875,-0.5476069942653179,-0.0648620560109615,0.2510935065440833
2024-12-07 18:00:00.092258800,8.2772587890625,-0.6056015025943517,0.1033896473258733,0.35601335911192
2024-12-07 18:00:00.102232000,8.287232177734374,-0.6483990993786602,0.1474362943232059,0.5757824471855536
2024-12-07 18:00:00.112204800,8.297204833984376,-0.7452502117812633,0.1067015483528375,0.5665969414174556
2024-12-07 18:00:00.122177800,8.307177734375,-0.8321089955449104,-0.0578273350685834,0.6396122010067105
2024-12-07 18:00:00.132150800,8.31715087890625,-0.9017635465294124,-0.1992465610593557,0.7815634880475699
2024-12-07 18:00:00.142124800,8.327124755859375,-0.9871242006897926,-0.2319645893126726,0.8393486644748598
2024-12-07 18:00:00.152098000,8.33709814453125,-0.9393167398542164,-0.0686269615024328,0.8633467951778322
2024-12-07 18:00:00.162071000,8.347071044921876,-0.8392740648686885,0.079229019537568,0.7399046129696071
2024-12-07 18:00:00.172043800,8.357043701171875,-0.8945447011917829,0.0763116707861423,0.4845929042086005
2024-12-07 18:00:00.182016800,8.367016845703125,-1.1286918952405451,-0.0302238733500242,0.3638588484479114
2024-12-07 18:00:00.191990000,8.376989990234375,-1.4581804547160864,-0.1464928759932517,0.2858845782117918
2024-12-07 18:00:00.201963000,8.386962890625,-1.741947127458453,-0.2157669032275676,0.5506226522920653
2024-12-07 18:00:00.211936000,8.39693603515625,-1.671778197211027,-0.1461743115633726,0.935612770769745
2024-12-07 18:00:00.221909800,8.40690966796875,-1.4712182154655455,-0.073210782161355,1.2057112759046256
2024-12-07 18:00:00.231882800,8.4168828125,-1.149164189904928,0.0513385575711727,1.5308894248351457
2024-12-07 18:00:00.241855700,8.426855712890625,-0.8795195660173892,0.1994441294580698,1.5928795786716043
2024-12-07 18:00:00.251829000,8.4368291015625,-0.7342623692989348,0.2665308757811784,1.4924464430637656
2024-12-07 18:00:00.261802000,8.446802001953126,-0.5668716667056083,0.1938303812295198,1.4490056530050932
2024-12-07 18:00:00.271774700,8.456774658203125,-0.4469494022518396,0.2151771206408739,1.3465357508726417
2024-12-07 18:00:00.281747700,8.466747802734375,-0.3605564824342727,0.100083591517806,1.3214745209828018
2024-12-07 18:00:00.291721000,8.476720947265624,-0.2550835990935564,0.1003887119442224,1.383614750814438
2024-12-07 18:00:00.301694000,8.48669384765625,-0.1084866782039403,0.1206447335094213,1.3781015403509138
2024-12-07 18:00:00.311668000,8.49666796875,0.1729477156659588,0.2572194420784712,1.370940270419419
2024-12-07 18:00:00.321641000,8.506640869140625,0.0218500127583742,0.1444131471097469,1.0098211856663226
2024-12-07 18:00:00.331613700,8.51661376953125,-0.4789227496176957,-0.0324362887024879,0.8019706085212528
2024-12-07 18:00:00.341587000,8.5265869140625,-1.07008422344923,0.0404120898872613,1.0232171122036873
2024-12-07 18:00:00.351560000,8.536559814453126,-1.618090446165204,0.2084019274175167,1.4663184607252475
2024-12-07 18:00:00.361533000,8.546532958984375,-1.5637456925153732,0.880185920971632,2.0591411457672715
2024-12-07 18:00:00.371506000,8.556505859375,-0.8736889601677655,2.033404354703426,2.4968524718135594
2024-12-07 18:00:00.381480000,8.56647998046875,0.0866384190112352,3.2012907807350155,2.4131864927418527
2024-12-07 18:00:00.391452700,8.57645263671875,0.966919617050886,4.166193797266483,1.7457681470513342
2024-12-07 18:00:00.401426000,8.586426025390624,1.3008417750597,4.342563925129175,0.5267661950821056
2024-12-07 18:00:00.411399000,8.59639892578125,1.057796477349475,3.785538529655337,-0.7379309017438441
2024-12-07 18:00:00.421372000,8.606371826171875,0.6871534121215344,2.685556596070528,-1.643148899576068
2024-12-07 18:00:00.431345000,8.616344970703125,0.1979214864680543,1.4263795413076876,-2.1514259001024065
2024-12-07 18:00:00.441318000,8.62631787109375,-0.4042091616779565,0.3624088323026895,-2.308599306194484
2024-12-07 18:00:00.451291000,8.636290771484376,-1.1217893493104725,-0.5112292744606733,-2.3075208633080124
2024-12-07 18:00:00.461264000,8.646263916015625,-1.8911136065751315,-1.114165357238054,-2.1860303266242145
2024-12-07 18:00:00.471238000,8.65623779296875,-2.908877275678515,-1.348126673325896,-1.866645228011906
2024-12-07 18:00:00.481211000,8.6662109375,-3.7918279851883647,-1.2711235131442546,-1.4154479590572415
2024-12-07 18:00:00.491183900,8.676183837890624,-4.252034928420186,-1.1214929236471651,-1.08455216313228
2024-12-07 18:00:00.501156900,8.686156982421876,-3.7639872075825926,-0.998307858005166,-1.003347313477099
2024-12-07 18:00:00.511129900,8.6961298828125,-1.8366724068135023,-0.904895414814353,-1.2098362468801438
2024-12-07 18:00:00.521102800,8.706102783203125,0.5520820938527584,-0.7556535323739051,-1.7871069963946935
2024-12-07 18:00:00.531075800,8.716075927734375,2.8723522563576696,-0.4598696741014719,-2.0239805466674268
2024-12-07 18:00:00.541048800,8.726048828125,4.19158133650124,-0.0486871662795543,-1.7395828825451434
2024-12-07 18:00:00.551022800,8.73602294921875,4.592437096098065,0.3514607373088598,-1.364803667360544
2024-12-07 18:00:00.560995800,8.745995849609375,4.227860272106528,0.7547182973504066,-0.977579469687864
2024-12-07 18:00:00.570968600,8.755968505859375,3.222575853087008,1.0700000522971154,-0.655068055748567
2024-12-07 18:00:00.580941600,8.765941650390625,1.8179697521701457,1.4313187512755394,-0.2920253094565123
2024-12-07 18:00:00.590914800,8.775914794921874,0.4438052590072154,1.701383061879873,-0.039756950446777
2024-12-07 18:00:00.600887800,8.7858876953125,-0.4292755061343312,1.7222294505536555,-0.1087435025092214
2024-12-07 18:00:00.610860800,8.79586083984375,-0.4679398755714297,1.3806430415272712,-0.4775943505581468
2024-12-07 18:00:00.620833500,8.80583349609375,0.3800044024869799,0.6418892060279846,-0.9053586484119296
2024-12-07 18:00:00.630807600,8.8158076171875,1.215003712645918,-0.2649275322377681,-1.1767802188441157
2024-12-07 18:00:00.640780800,8.82578076171875,1.538950858476758,-0.980388754954934,-1.1696278628714385
2024-12-07 18:00:00.650753800,8.83575390625,1.6599217552006245,-1.4636942497014995,-0.920570465264842
2024-12-07 18:00:00.660726800,8.845726806640625,1.5818395676106214,-1.7122668594658377,-0.4894047614697366
2024-12-07 18:00:00.670699500,8.855699462890625,1.5218886645168066,-1.781606353151798,-0.3000122165571898
2024-12-07 18:00:00.680672800,8.8656728515625,1.4715474474199115,-1.6568354796230793,-0.3328534327987581
2024-12-07 18:00:00.690645800,8.875645751953124,1.4336983398884533,-1.5644067867726086,-0.4191332476306706
2024-12-07 18:00:00.700618800,8.88561865234375,1.3338076405942438,-1.4107377355396746,-0.6190392224468291
2024-12-07 18:00:00.710592800,8.8955927734375,1.093693647095561,-1.0898773036777971,-0.39135048382245
2024-12-07 18:00:00.720565800,8.905565673828125,0.8898942450374364,-0.8838146328628063,-0.1932632488660514
2024-12-07 18:00:00.730538500,8.91553857421875,0.4958791451156139,-0.7678034043729305,-0.1918877957943826
2024-12-07 18:00:00.740511700,8.92551171875,0.09111015759781,-0.8333487664729357,-0.4354129859760403
2024-12-07 18:00:00.750484700,8.935484619140626,-0.194516317667067,-1.2183055306702852,-1.0561669764515011
2024-12-07 18:00:00.760457700,8.945457763671875,-0.1972603556782007,-1.6862065355360507,-1.3869859808132052
2024-12-07 18:00:00.770430700,8.9554306640625,-0.1822206074565649,-2.166169149595499,-1.5631554715372622
2024-12-07 18:00:00.780403700,8.96540380859375,-0.424250517579168,-2.446063364818692,-1.6936472069308162
2024-12-07 18:00:00.790377700,8.975377685546874,-0.7794388971090316,-2.4909832875192164,-1.827209581941366
2024-12-07 18:00:00.800350700,8.985350830078126,-1.184779254774004,-2.220726084691286,-1.7590674813464282
2024-12-07 18:00:00.810323700,8.99532373046875,-1.4553477155081926,-1.8561352321743965,-1.4521866211287675
2024-12-07 18:00:00.820296700,9.005296630859375,-1.6658328789405523,-1.59450557243824,-0.9522176494162528
2024-12-07 18:00:00.830269700,9.015269775390625,-1.658277495124936,-1.2692214789152143,-0.3815147339846939
2024-12-07 18:00:00.840242700,9.02524267578125,-1.527013167923689,-0.7042869177520275,0.2092796601001173
2024-12-07 18:00:00.850215700,9.035215576171876,-1.8612749331504104,0.1272124214619398,0.8871569290280341
2024-12-07 18:00:00.860189700,9.045189697265624,-2.84713773560226,1.1516256115823984,1.8625430533900853
2024-12-07 18:00:00.870162700,9.05516259765625,-3.751590667346119,1.9381132581591605,2.7735166190743445
2024-12-07 18:00:00.880135700,9.0651357421875,-3.6536668842107054,2.0120190368473527,3.0979809206470845
2024-12-07 18:00:00.890109000,9.07510888671875,-2.6343314357459544,1.4934341389268635,2.681153100414574
2024-12-07 18:00:00.900081700,9.08508154296875,-1.4343606031894682,0.6479916145563125,1.6730521626695989
2024-12-07 18:00:00.910054700,9.0950546875,-0.6536012711316347,-0.4017407257378101,0.3374844536002725
2024-12-07 18:00:00.920027600,9.105027587890625,-0.2496839320071041,-1.1977443886786698,-0.6463382213260979
2024-12-07 18:00:00.930001000,9.1150009765625,-0.0951001040168106,-1.5588772096961736,-1.4143895360454917
2024-12-07 18:00:00.939975000,9.124974853515624,-0.3007920418232679,-1.3633096294105052,-2.015563723716885
2024-12-07 18:00:00.949947600,9.13494775390625,-0.8554873869143426,-0.7667308067053556,-2.3984005731508136
2024-12-07 18:00:00.959920600,9.144920654296875,-1.4882703264228998,0.0099947397917509,-2.4299881360694764
2024-12-07 18:00:00.969893600,9.1548935546875,-1.934695558670163,0.9288888693422078,-1.8119936003699897
2024-12-07 18:00:00.979866600,9.16486669921875,-1.7131306366883217,1.684440110385418,-0.8033107710838318
2024-12-07 18:00:00.989840000,9.17483984375,-0.778112032419443,1.8682786744326352,0.2437152693936601
2024-12-07 18:00:00.999812600,9.1848125,0.6641783408559858,1.485482887661457,1.2586920477248729
2024-12-07 18:00:01.009785600,9.19478564453125,2.377228021262586,1.01957977861464,2.060269857536256
2024-12-07 18:00:01.019759600,9.204759521484377,3.8047692998260256,0.8261755138427018,2.1616040336370466
2024-12-07 18:00:01.029732600,9.214732666015625,4.038480440545082,1.1127683499217034,1.7619390912599862
2024-12-07 18:00:01.039705900,9.224705810546874,3.111973497903347,1.6622995902478694,0.9677540220484137
2024-12-07 18:00:01.049678800,9.234678955078126,2.284965624889731,1.863600161227584,0.3374900065582245
2024-12-07 18:00:01.059651600,9.244651611328123,1.95096879420951,1.3406792799293994,-0.0586507802806794
2024-12-07 18:00:01.069624600,9.25462451171875,1.5937329806305467,0.5109346754282713,-0.4642990348510444
2024-12-07 18:00:01.079597800,9.264597900390624,1.2365665790259837,-0.5453560004681348,-1.0786615707237273
2024-12-07 18:00:01.089570800,9.27457080078125,0.7546260890223085,-1.4799650010228156,-1.6871876555278895
2024-12-07 18:00:01.099544800,9.284544921875,0.1391473355360329,-1.971532128158212,-2.18872497253567
2024-12-07 18:00:01.109517800,9.294517822265624,-0.2003558374755084,-2.111660145294666,-2.809499202081561
2024-12-07 18:00:01.119490600,9.304490478515625,0.1666799239754676,-1.889221509218216,-3.1027091182127595
2024-12-07 18:00:01.129463600,9.314463623046874,1.0404618231236935,-1.2029162383586167,-2.789761651432514
2024-12-07 18:00:01.139436800,9.324436767578124,1.6105711565762757,-0.3386146997392177,-2.2972847159758207
2024-12-07 18:00:01.149409800,9.334409912109376,1.6310137867547572,0.5908370641827583,-1.859164809128642
2024-12-07 18:00:01.159382800,9.3443828125,1.303731797412783,1.6429571763962507,-1.4756301866889
2024-12-07 18:00:01.169355500,9.35435546875,0.5504162064671516,2.550554251384735,-1.1273857810780403
2024-12-07 18:00:01.179329500,9.36432958984375,-0.1947859283886849,2.837553914698958,-0.6127359575841576
2024-12-07 18:00:01.189302800,9.374302734375,-0.5519147744618356,2.278716501367092,0.0452282945299521
2024-12-07 18:00:01.199275800,9.38427587890625,-0.6184457865983247,1.2594056028217075,0.3824481423772871
2024-12-07 18:00:01.209248800,9.394248779296875,-0.2863734942398965,0.2550175481200218,0.3921445202769711
2024-12-07 18:00:01.219221800,9.4042216796875,0.1428852068901062,-0.4879015903651714,0.2677740807753056
2024-12-07 18:00:01.229194800,9.41419482421875,0.5030447989612817,-0.8663415200144052,0.187058110615611
2024-12-07 18:00:01.239167700,9.424167724609376,0.853063959159702,-0.9049018445551394,0.1156752745337784
2024-12-07 18:00:01.249140700,9.434140625,1.2123990100402384,-0.6688426794052124,0.1993172516753897
2024-12-07 18:00:01.259114800,9.44411474609375,1.3891934277296063,-0.2452753217846155,0.471986191820167
2024-12-07 18:00:01.269087700,9.454087646484377,1.3593331269949671,0.1269815353155136,0.802378239474073
2024-12-07 18:00:01.279060500,9.464060546875,1.2849562236636876,0.3424935869991779,1.1500151076458394
2024-12-07 18:00:01.289033700,9.47403369140625,1.2034539984971284,0.248657365438342,1.394964704607427
2024-12-07 18:00:01.299006700,9.4840068359375,1.1067308233231306,0.0689122081845998,1.5292492564126847
2024-12-07 18:00:01.308979700,9.493979736328123,0.837359755679965,-0.214231364223361,1.601958957184106
2024-12-07 18:00:01.318952700,9.50395263671875,0.478024850929901,-0.443283865481615,1.5205594617396592
2024-12-07 18:00:01.328925700,9.51392578125,0.3163952691465616,-0.6742354783594607,1.3312857209011912
2024-12-07 18:00:01.338899700,9.523899658203124,0.1186948415506631,-0.6917413244336843,1.1036251123927534
2024-12-07 18:00:01.348872700,9.533872802734376,-0.2176806278944015,-0.5175117157310247,0.8089792451743036
2024-12-07 18:00:01.358845700,9.543845703125,-0.5995101269166916,-0.2391483633369207,0.5176124726917595
2024-12-07 18:00:01.368818700,9.553818603515625,-0.7497808409482241,-0.0728466250240802,0.3182445502750575
2024-12-07 18:00:01.378792000,9.5637919921875,-0.767516988646984,0.0324292744398117,0.225955521623604
2024-12-07 18:00:01.388764700,9.5737646484375,-0.7535147667795419,0.0603811112046241,0.2254540018422529
2024-12-07 18:00:01.398737700,9.583737548828124,-0.730146166151762,0.1126204170078039,0.2006454680718481
2024-12-07 18:00:01.408711700,9.593711669921875,-0.7503028189957142,0.1538356399714946,0.2440980398998595
2024-12-07 18:00:01.418684700,9.6036845703125,-0.6025912148624658,0.0710083036810159,0.381296816917695
2024-12-07 18:00:01.428657700,9.61365771484375,-0.274638742380403,-0.0731862322419881,0.4808595628991722
2024-12-07 18:00:01.438631000,9.623630859375,0.0474877273619174,-0.2389946340799331,0.328209004526399
2024-12-07 18:00:01.448603600,9.633603759765624,0.1509112769573926,-0.3032832741171121,-0.003782774508302
2024-12-07 18:00:01.458576600,9.64357666015625,-0.1961462204238399,-0.2142185047417878,-0.3320215485518798
2024-12-07 18:00:01.468549600,9.653549560546876,-0.7706926960736513,-0.0498036030888557,-0.4136106482842936
2024-12-07 18:00:01.478523000,9.66352294921875,-1.3085709080070256,-0.0057055181652307,-0.2077770004522055
2024-12-07 18:00:01.488497000,9.673496826171874,-1.4554548291444778,0.0276063843280076,0.47072987161614
2024-12-07 18:00:01.498470000,9.683469970703126,-1.3054022148430346,0.1387514680862426,1.1307259583514182
2024-12-07 18:00:01.508442600,9.693442626953123,-1.0110334840655326,0.2797948465019464,1.7314178423985838
2024-12-07 18:00:01.518415600,9.70341552734375,-0.7234826166093349,0.5326835658997296,2.065645413094759
2024-12-07 18:00:01.528388900,9.713388916015624,-0.4896446346402168,0.4801736264616251,2.148285263989121
2024-12-07 18:00:01.538361900,9.72336181640625,-0.1710351965755224,0.2731307124376297,2.112895678438991
2024-12-07 18:00:01.548334600,9.73333447265625,0.0322475246647372,-0.0228986450284719,1.905102822830528
2024-12-07 18:00:01.558307600,9.7433076171875,0.0466746574133634,-0.2925046904712915,1.573065309524536
2024-12-07 18:00:01.568281600,9.753281494140625,-0.1435480547130107,-0.497878209978342,1.2295450098261236
2024-12-07 18:00:01.578254600,9.763254638671874,-0.3424555930763482,-0.6908885069966316,0.9200300747778266
2024-12-07 18:00:01.588227600,9.7732275390625,-0.6507406210035085,-0.6038631344944239,0.8116907691553235
2024-12-07 18:00:01.598200600,9.78320068359375,-1.0572259109199047,-0.0723532885491848,0.9931568319175392
2024-12-07 18:00:01.608173600,9.793173583984377,-1.3398510124117136,0.6595026041299105,1.4545578803047536
2024-12-07 18:00:01.618146600,9.803146484375,-1.4511153386354445,1.3814607876509428,1.8775322404682635
2024-12-07 18:00:01.628119800,9.813119873046874,-1.3990700940996408,2.012557966029644,2.087271846230328
2024-12-07 18:00:01.638092500,9.823092529296876,-1.1266624352395531,2.541290163955092,2.1392842114098367
2024-12-07 18:00:01.648066600,9.833066650390624,-0.7535077525168656,2.5705589285373684,1.8845403656646609
2024-12-07 18:00:01.658039600,9.84303955078125,-0.5508247872680425,2.3797943646192548,1.624074050619453
2024-12-07 18:00:01.668012500,9.853012451171876,-0.5962480198482051,1.810170768857002,1.1052326206546277
2024-12-07 18:00:01.677985800,9.86298583984375,-0.6848498113542795,1.1847048743635415,0.3678800667880103
2024-12-07 18:00:01.687958500,9.87295849609375,-1.009963809007406,0.613033113899827,-0.4629115625480189
2024-12-07 18:00:01.697931500,9.882931640625,-1.677913923487067,0.3024754648655652,-1.3270312783271074
2024-12-07 18:00:01.707904500,9.892904541015625,-2.689499196216464,0.219201553851366,-2.2720906534865497
2024-12-07 18:00:01.717877500,9.90287744140625,-3.9685838974982497,0.3003402064025401,-3.4578266244634985
2024-12-07 18:00:01.727851500,9.9128515625,-4.927079385074973,0.3300269041359424,-4.840776773889362
2024-12-07 18:00:01.737824800,9.92282470703125,-4.831707624509931,0.2310416292488575,-5.789207086786627
2024-12-07 18:00:01.747797500,9.932797607421875,-2.6212720476865767,0.2327957794398069,-5.693530205795168
2024-12-07 18:00:01.757770500,9.9427705078125,-0.6085993692360818,0.3733563427746296,-4.688154016838968
2024-12-07 18:00:01.767743500,9.952743408203125,0.8758126743234693,0.5900707559853792,-3.222443166618049
2024-12-07 18:00:01.777716700,9.962716796875,2.2934458684653043,0.6865893484979868,-1.9419899534620344
2024-12-07 18:00:01.787689700,9.972689697265626,2.933787260529398,0.9350316098809242,-0.5243610701691359
2024-12-07 18:00:01.797663700,9.982663818359375,3.328472222536802,1.2821914351254702,1.026945704272762
2024-12-07 18:00:01.807636500,9.992636474609377,2.823548185700178,1.5289064343243837,1.925181734263152
2024-12-07 18:00:01.817609500,10.002609375,1.9294129420921204,1.573667951592803,2.08685800473243
2024-12-07 18:00:01.827582700,10.012582763671874,1.2335013462364672,1.3959335496395826,1.953748634186387
2024-12-07 18:00:01.837555700,10.0225556640625,0.7466279298752546,0.8861702560782432,1.5490272852025926
2024-12-07 18:00:01.847528700,10.03252880859375,0.677017510293424,0.4469850580871105,1.3782403642997143
2024-12-07 18:00:01.857501400,10.04250146484375,0.5570898390121758,-0.0364677361756563,1.199523088788986
2024-12-07 18:00:01.867474400,10.052474365234374,0.4420331347681582,-0.6967267116308212,0.8518762106798589
2024-12-07 18:00:01.877448400,10.062448486328124,0.6634212388783693,-1.3417296657651665,0.5171379870478063
2024-12-07 18:00:01.887421700,10.072421630859376,1.0930062493532895,-1.9660025510817765,0.1134066720146685
2024-12-07 18:00:01.897394700,10.082394775390624,1.555055021059513,-2.4687369689196346,-0.1752221999365836
2024-12-07 18:00:01.907367700,10.09236767578125,1.8147230253338813,-2.76363995270431,-0.3795974291212856
2024-12-07 18:00:01.917340400,10.10234033203125,1.904272509486228,-2.8090719165802,-0.5625326145879924
2024-12-07 18:00:01.927313700,10.112313720703124,1.8039023561120031,-2.660947055470943,-0.7592489265173673
2024-12-07 18:00:01.937286700,10.12228662109375,1.4124042074471712,-2.401536240828037,-0.9516561430759728
2024-12-07 18:00:01.947259600,10.132259765625,0.9344310136392712,-1.9831594375878567,-1.084572183007002
2024-12-07 18:00:01.957233700,10.142233642578123,0.5530237586170434,-1.5195289496481417,-1.0887811790041624
2024-12-07 18:00:01.967206400,10.152206298828125,0.0979506711423397,-1.1050298646241423,-1.032751833268255
2024-12-07 18:00:01.977179600,10.1621796875,-0.3582134264394641,-0.8809943147450685,-0.9364671956419944
2024-12-07 18:00:01.987152600,10.172152587890626,-0.8652242064222693,-0.8404711656987667,-0.7333872669648379
2024-12-07 18:00:01.997125600,10.182125732421875,-1.344191964225471,-0.9508131163805724,-0.6142952427901327
2024-12-07 18:00:02.007098600,10.1920986328125,-1.6186431116119029,-1.1806833637624978,-0.6764537389308214
2024-12-07 18:00:02.017071400,10.2020712890625,-1.6406553291946648,-1.3727216008782386,-0.7068617366760969
2024-12-07 18:00:02.027044600,10.212044677734376,-1.497872413635254,-1.4327023145884277,-0.6277575856272131
2024-12-07 18:00:02.037018600,10.2220185546875,-1.4831322328820824,-1.331079092413187,-0.4597463034501299
2024-12-07 18:00:02.046991600,10.23199169921875,-1.5050515114843843,-1.0639069961190224,-0.2911105692317709
2024-12-07 18:00:02.056964600,10.241964599609377,-1.606269367729127,-0.6448515629649162,-0.1755521260106936
2024-12-07 18:00:02.066937600,10.2519375,-2.048799199973047,-0.1116898581594228,0.1029142301001586
2024-12-07 18:00:02.076910600,10.26191064453125,-2.730181042955816,0.4321861328840256,0.4305410690907388
2024-12-07 18:00:02.086883600,10.271883544921875,-3.2068764719128606,0.8905687832981347,0.8502437871724366
2024-12-07 18:00:02.096856600,10.281856689453123,-3.4312449070081112,1.1615168909996747,1.4354025134578343
2024-12-07 18:00:02.106829600,10.29182958984375,-2.8786092709258195,1.119253620287776,1.6031031587831674
2024-12-07 18:00:02.116803600,10.301803466796876,-1.3685676960691808,0.6176847390979529,1.1572925513029098
2024-12-07 18:00:02.126776600,10.311776611328124,0.1948755063682794,-0.0147246909230947,0.5428372591128573
2024-12-07 18:00:02.136749600,10.32174951171875,1.0465712459146976,-0.602833206924796,-0.1226080329390242
2024-12-07 18:00:02.146722600,10.33172265625,1.172693241791427,-1.044239003574848,-0.5128127442598343
2024-12-07 18:00:02.156695600,10.341695556640625,0.7898755354493856,-1.335111124408245,-0.4653875607401132
2024-12-07 18:00:02.166668500,10.35166845703125,-0.3465042839452624,-1.4033230753690005,-0.0378215436710976
2024-12-07 18:00:02.176641800,10.361641845703126,-2.077265416000784,-1.1646657104194165,0.4324780650353059
2024-12-07 18:00:02.186615800,10.37161572265625,-3.4008494764834643,-0.5286310756385326,0.7210652532692998
2024-12-07 18:00:02.196588500,10.381588623046875,-3.03251768387258,0.3683884912341832,0.8317872162446379
2024-12-07 18:00:02.206561500,10.3915615234375,-1.475761996375024,0.9481196395128964,0.84902776244618
2024-12-07 18:00:02.216534500,10.401534423828124,0.7859282591283321,0.8461784374296665,0.7329279058247804
2024-12-07 18:00:02.226507800,10.4115078125,3.1153777533888816,0.053247606062889,0.4685650947976857
2024-12-07 18:00:02.236480500,10.42148046875,3.9338200426310297,-1.0035153635203835,-0.121684342222847
2024-12-07 18:00:02.246453500,10.43145361328125,4.22268111590296,-2.0048674115270373,-0.6367928327370435
2024-12-07 18:00:02.256426500,10.441426513671876,4.489598945175111,-2.487278003260493,-1.0203766280807554
2024-12-07 18:00:02.266400500,10.451400390625,3.814176302857697,-1.8780378519028424,-1.5240886587791145
2024-12-07 18:00:02.276373500,10.46137353515625,2.375826191640645,0.4366530491650104,-1.801523790412396
2024-12-07 18:00:02.286346800,10.4713466796875,0.7553678473003208,3.6720033358901736,-0.8937259321548044
2024-12-07 18:00:02.296319500,10.481319580078123,-0.7628229856118559,6.04914747826159,0.2580257900252938
2024-12-07 18:00:02.306292500,10.49129248046875,-0.6967686510764062,6.405774804553389,0.2150704453960061
2024-12-07 18:00:02.316265500,10.501265380859374,-0.1948170541793107,5.234657726037502,-1.0494805574901402
2024-12-07 18:00:02.326238700,10.51123876953125,-1.052801664736867,3.325682884079218,-3.0139643745720384
2024-12-07 18:00:02.336211700,10.521211669921875,-0.3918921164184809,-0.1389139651715755,-3.847590788942575
2024-12-07 18:00:02.346185700,10.531185791015623,2.149863619221746,-2.7537551030278205,-3.5579768514767287
2024-12-07 18:00:02.356158500,10.541158447265625,4.2035272103607655,-3.6424656912386415,-3.5577722688153384
2024-12-07 18:00:02.366131500,10.55113134765625,4.692759172546864,-3.151686499610543,-3.6020211603865024
2024-12-07 18:00:02.376104700,10.561104736328126,4.194639847289025,-1.9215069912731648,-3.161662534701824
2024-12-07 18:00:02.386077700,10.57107763671875,3.285939194972813,-0.4481289674252271,-2.345220771627128
2024-12-07 18:00:02.396050700,10.58105078125,1.8767603793129324,1.0913257489204409,-1.0330568075641988
2024-12-07 18:00:02.406023400,10.5910234375,0.5814163248866796,2.424149054652452,0.4611727195240557
2024-12-07 18:00:02.415996700,10.60099658203125,0.0261515093445777,3.3694413617849346,2.0261947155855595
2024-12-07 18:00:02.425970400,10.610970458984376,-0.1281732293181121,3.4174136577934027,3.084947251550853
2024-12-07 18:00:02.435943700,10.620943603515624,0.1357436645723879,2.553265263909102,3.3793002002373336
2024-12-07 18:00:02.445916700,10.630916748046875,0.788362208276987,1.110525539430976,2.9919068565428257
2024-12-07 18:00:02.455889700,10.6408896484375,1.524308585140109,-0.194600196558237,2.2219819299712777
2024-12-07 18:00:02.465862400,10.6508623046875,1.8678829531133176,-1.068334749433398,1.3051453174725174
2024-12-07 18:00:02.475835600,10.660835693359376,1.7958908990919589,-1.458015035021305,0.4363737207669764
2024-12-07 18:00:02.485808600,10.67080859375,1.614503089197725,-1.5444874498158692,0.0169672822181135
2024-12-07 18:00:02.495781600,10.68078173828125,1.5533688215382395,-1.4279945752888916,-0.1307655838988721
2024-12-07 18:00:02.505755600,10.690755615234377,1.489868701530248,-1.0671335569500922,0.0012982413833029
2024-12-07 18:00:02.515728400,10.700728271484374,1.260203182940185,-0.6238970377415418,0.4676853528210893
2024-12-07 18:00:02.525701600,10.71070166015625,0.6975678386300802,-0.1666857691943645,0.9934615870177744
2024-12-07 18:00:02.535674600,10.720674560546875,0.0440128177929669,0.1542483124256134,1.371190884179622
2024-12-07 18:00:02.545647000,10.730647216796877,-0.5499941816627979,0.35966625559628,1.595421956630796
2024-12-07 18:00:02.555620000,10.7406201171875,-0.7903465139620005,0.2904144401937722,1.743934355752915
2024-12-07 18:00:02.565593300,10.75059326171875,-0.669400897809863,0.1532692382603883,1.7187123823434114
2024-12-07 18:00:02.575567400,10.7605673828125,-0.3445861022990196,0.1278863752007484,1.6131655569836496
2024-12-07 18:00:02.585540400,10.770540283203124,0.012419409655407,-0.0210217452406883,1.290355598489195
2024-12-07 18:00:02.595513000,10.78051318359375,0.1594494612652808,-0.14740999083817,0.905844020776078
2024-12-07 18:00:02.605486000,10.790486083984376,0.0424924032926559,-0.4214215777635574,0.3812544025480747
2024-12-07 18:00:02.615459300,10.800459228515624,-0.1867898881334811,-0.4408516698986292,0.0361667804677039
2024-12-07 18:00:02.625432300,10.810432373046876,-0.3869962341357022,-0.3054582800686359,-0.0673555213610874
2024-12-07 18:00:02.635405300,10.8204052734375,-0.7368728440582751,-0.0278659120470285,-0.0878597501002717
2024-12-07 18:00:02.645378000,10.8303779296875,-1.0531359381925314,0.2086813288807869,-0.058455600201874
2024-12-07 18:00:02.655352000,10.84035205078125,-1.0868144089758396,0.4017594304382801,0.1348428158756811
2024-12-07 18:00:02.665325000,10.850324951171874,-0.9074813396543264,0.2118032602936029,0.1659668438026681
2024-12-07 18:00:02.675298300,10.86029833984375,-0.5713362083664164,-0.0786123489439487,0.0007946301095653
2024-12-07 18:00:02.685271300,10.870271240234375,-0.3887496536742895,-0.3304816621661186,-0.1659073321677744
2024-12-07 18:00:02.695244300,10.880244384765623,-0.3970283102631569,-0.5089262582153081,-0.2239327836243435
2024-12-07 18:00:02.705217000,10.890217041015624,-0.5120627661427483,-0.5318424389004707,-0.18333697120063
2024-12-07 18:00:02.715190300,10.900190185546874,-0.6810650321185588,-0.4715449143260717,-0.0415429022817872
2024-12-07 18:00:02.725163300,10.910163330078126,-0.7253256141275167,-0.2450380058974027,0.1825848011264577
2024-12-07 18:00:02.735137300,10.92013720703125,-0.6308253756999969,0.1536053383469581,0.3625319472257047
2024-12-07 18:00:02.745110300,10.9301103515625,-0.4625204443385824,0.3911106106519699,0.5546616985497996
2024-12-07 18:00:02.755083300,10.940083251953125,-0.2919452664902434,0.4400117119431495,0.720384285267815
2024-12-07 18:00:02.765056300,10.95005615234375,-0.241367208430171,0.3909925372302532,0.7285461105439811
2024-12-07 18:00:02.775029200,10.960029296875,-0.2642734522432088,0.2163099240630865,0.7608283046633004
2024-12-07 18:00:02.785002200,10.970002197265623,-0.4113368216007947,0.0636596944838762,0.8787693321719765
2024-12-07 18:00:02.794975200,10.979975341796877,-0.613857289764285,0.0115191728800535,1.1576195913001894
2024-12-07 18:00:02.804948200,10.9899482421875,-0.8333049273312091,0.0548287377744913,1.491626212722063
2024-12-07 18:00:02.814922000,10.999921875,-1.0281605599552393,0.0311497560232877,1.732186634813994
2024-12-07 18:00:02.824895200,11.009895263671876,-1.2235264801889658,-0.1626952382534742,1.7022741655007003
2024-12-07 18:00:02.834868200,11.0198681640625,-1.6224100629299878,-0.1641623881965875,1.4566636204123495
2024-12-07 18:00:02.844841200,11.02984130859375,-1.931472504970431,-0.1586339801639318,1.1193199635222553
2024-12-07 18:00:02.854814200,11.039814208984374,-2.081807443344593,0.356956412115693,0.9955930460885166
2024-12-07 18:00:02.864787200,11.049787109375,-2.379180032113194,0.6830570827186108,1.0809871641270816
2024-12-07 18:00:02.874760200,11.05976025390625,-2.625062672141194,1.3777479046076535,1.523774478263408
2024-12-07 18:00:02.884733200,11.069733154296877,-2.355821952879429,2.225200015234947,2.026617471042276
2024-12-07 18:00:02.894707200,11.079707275390623,-1.4487240595847368,2.986269727438688,2.398315525215864
2024-12-07 18:00:02.904680200,11.08968017578125,-0.0221902044981718,3.3044390205204484,2.669772459222376
2024-12-07 18:00:02.914653200,11.099653076171874,1.3834884940862655,2.679875627824664,2.470888593995571
2024-12-07 18:00:02.924626200,11.109626220703126,1.592907489591837,2.070247353932261,2.0533812670663
2024-12-07 18:00:02.934599200,11.11959912109375,0.2768301514774561,2.0819255167663098,1.7804145130187272
2024-12-07 18:00:02.944572200,11.129572265625,-0.7707452299784868,1.966591164624691,0.7750274373423308
2024-12-07 18:00:02.954545200,11.139545166015624,-1.3605407492190598,1.4241361462950706,-0.8043149796903133
2024-12-07 18:00:02.964519200,11.149519287109374,-1.6405436855137348,0.7520891178905963,-2.368127892223
2024-12-07 18:00:02.974492400,11.159492431640626,-1.7262509611546992,0.1920814917355775,-3.68701473480016
2024-12-07 18:00:02.984465200,11.169465087890623,-1.234128538224101,-0.1146662436217069,-4.463275001873075
2024-12-07 18:00:02.994438100,11.179438232421877,-0.182648331349343,-0.1536854178458452,-4.505826149615645
2024-12-07 18:00:03.004411100,11.1894111328125,1.0152304973639548,-0.1374035606086254,-3.812675542905928
2024-12-07 18:00:03.014384400,11.19938427734375,1.719447710880637,-0.2336035886913537,-2.7953014576420188
2024-12-07 18:00:03.024357400,11.209357421875,1.7713357190281152,-0.3563596152663231,-1.8037360596343872
2024-12-07 18:00:03.034330000,11.219330078125,1.3568594303578136,-0.4106821570843458,-0.8621426070198416
2024-12-07 18:00:03.044304100,11.22930419921875,1.1783359238535165,-0.4124176025748252,0.0261402938308194
2024-12-07 18:00:03.054277000,11.239277099609374,1.200151011428982,-0.2745709743738174,0.6683398444496095
2024-12-07 18:00:03.064250000,11.24925,1.095332208082825,-0.0200566996008157,0.93006660788469
2024-12-07 18:00:03.074223400,11.259223388671876,1.0902192489832638,0.0343909299015998,0.7215855508163571
2024-12-07 18:00:03.084196400,11.2691962890625,1.3354267662286758,-0.0192483058273792,0.5242787987131625
2024-12-07 18:00:03.094169000,11.279169189453125,1.4912036033958196,-0.1887596538364887,0.2623464662360027
2024-12-07 18:00:03.104142000,11.28914208984375,1.5510498770713803,-0.4716530508756637,-0.1700427149394527
2024-12-07 18:00:03.114115300,11.299115234375,1.5283612215317786,-0.7900193278342484,-0.6756982443884014
2024-12-07 18:00:03.124089300,11.30908935546875,1.410905639452487,-1.135837090820074,-1.0975393627382817
2024-12-07 18:00:03.134062300,11.319062255859375,1.2756198016501965,-1.4592904617846012,-1.399063372097909
2024-12-07 18:00:03.144035000,11.32903515625,1.0899930390119552,-1.7410937254995107,-1.6067247102811932
2024-12-07 18:00:03.154008000,11.339008056640624,0.867123318041861,-1.824196371600032,-1.7661622619129715
2024-12-07 18:00:03.163981300,11.348981201171876,0.7033166114151478,-1.7549200062781571,-1.916981622803211
2024-12-07 18:00:03.173954300,11.358954345703124,0.5381505991339683,-1.4359393968135117,-2.014925864204764
2024-12-07 18:00:03.183927300,11.36892724609375,0.3220592862576246,-1.084476905938983,-2.0503604579404
2024-12-07 18:00:03.193900000,11.378900146484376,0.1921083797425031,-0.7232955696046351,-1.9775125177420672
2024-12-07 18:00:03.203874000,11.3888740234375,0.0769563984304666,-0.4164952272772789,-1.9431417538456617
2024-12-07 18:00:03.213847000,11.398846923828126,-0.0985889690458774,-0.2131611046433448,-1.855817982918769
2024-12-07 18:00:03.223820300,11.4088203125,-0.2675476516082882,-0.1103998183488845,-1.566230641198903
2024-12-07 18:00:03.233793300,11.418793212890623,-0.4371333800278604,-0.295375861993432,-1.1944212356053292
2024-12-07 18:00:03.243766300,11.428766357421877,-0.5580307731240988,-0.5391793576598167,-0.5768031685354188
