time,seconds_elapsed,z,y,x
2024-12-07 18:26:41.528789800,0.023789794921875,-0.0707557902246713,-0.0603957242518663,0.176492877459526
2024-12-07 18:26:41.538763800,0.033763671875,-0.1236501989357173,-0.036147418180108,0.054616556328535
2024-12-07 18:26:41.548737800,0.04373779296875,-0.0316205884054303,-0.4221411242097616,-0.3922913448691368
2024-12-07 18:26:41.558711800,0.0537119140625,-0.0362155149802565,-0.472698760536313,-0.299387435722351
2024-12-07 18:26:41.568685800,0.063685791015625,-0.0120241997927427,-0.3185235133469105,-0.1397457398205995
2024-12-07 18:26:41.578659800,0.073659912109375,0.0333209625825285,0.1292892277359962,0.320946941101551
2024-12-07 18:26:41.588632800,0.0836328125,-0.1193441723048686,-0.1927063456356525,0.1614829398542642
2024-12-07 18:26:41.598606800,0.09360693359375,-0.0665635992318391,0.1552835006922483,0.1182435175865888
2024-12-07 18:26:41.608580900,0.103580810546875,0.0018073416829109,0.4701531677067279,0.490393991702795
2024-12-07 18:26:41.618555000,0.113554931640625,0.042064094877988,0.5427361733585596,0.525198763102293
2024-12-07 18:26:41.628529000,0.12352880859375,-0.0258661165319383,0.2779547715932131,0.1485053848594427
2024-12-07 18:26:41.638503000,0.1335029296875,-0.0675622548803687,-0.1840373014897108,-0.2391688216030597
2024-12-07 18:26:41.648477000,0.143476806640625,-0.1520735987350344,-0.8736118032783269,-0.6559861204415559
2024-12-07 18:26:41.658451000,0.153450927734375,-0.1763315494179725,-0.8942997865200042,-0.4976029001682996
2024-12-07 18:26:41.668425000,0.163425048828125,-0.1315004740446806,-0.5746504840135574,-0.1278968965947628
2024-12-07 18:26:41.678398700,0.173398681640625,-0.038417116677761,-0.4998942259758711,-0.1877531071424484
2024-12-07 18:26:41.688372000,0.1833720703125,-0.0492215654172003,-0.1932709937810897,0.1023491983622312
2024-12-07 18:26:41.698346000,0.193345947265625,-0.2069499750435352,-0.2914361844569444,-0.046623219487071
2024-12-07 18:26:41.708320000,0.203320068359375,-0.0325531930804252,-0.2176777052849531,-0.0811304692447185
2024-12-07 18:26:41.718294000,0.2132939453125,0.1119604917943477,-0.1730722553610801,-0.0393707641407847
2024-12-07 18:26:41.728268000,0.22326806640625,0.2034486889243126,-0.0744768565744161,-0.0003825695767998
2024-12-07 18:26:41.738241800,0.23324169921875,0.1246738428950309,-0.1282534549474716,0.1425070212274789
2024-12-07 18:26:41.748215800,0.2432158203125,-0.0848068196699023,-0.2366705750465393,0.0998725791156291
2024-12-07 18:26:41.758189800,0.25318994140625,-0.2908595536127686,-0.9065934509038924,-0.4565262088924646
2024-12-07 18:26:41.768163800,0.263163818359375,-0.2727456586427986,-1.2067419341266157,-0.6088102355077862
2024-12-07 18:26:41.778136800,0.27313671875,-0.3118916741169989,-1.2076309919208288,-0.7442389889121055
2024-12-07 18:26:41.788110800,0.28311083984375,-0.355029097314924,-1.0467238061279058,-0.9019745589315892
2024-12-07 18:26:41.798084600,0.293084716796875,-0.0520743244998157,-1.0239484952181577,-0.6031634617924689
2024-12-07 18:26:41.808058600,0.30305859375,0.1746599629439413,-0.8951309766471386,-0.4525044060304761
2024-12-07 18:26:41.818032600,0.31303271484375,0.2685936535298824,-0.7539689402878283,-0.0310901347905397
2024-12-07 18:26:41.828006700,0.323006591796875,-0.2305775188684463,0.1475935307115316,-0.6132943951845169
2024-12-07 18:26:41.837980700,0.332980712890625,0.0513274516552686,0.4109638966351747,-0.7305082774624228
2024-12-07 18:26:41.847954700,0.34295458984375,-0.0523285915218293,0.8520482062458992,-0.5076034851789474
2024-12-07 18:26:41.857928700,0.3529287109375,0.0771196261681616,1.006467199063301,-0.2438993572562932
2024-12-07 18:26:41.867902700,0.36290283203125,0.270477129188925,0.9895675021886824,0.0100832948580384
2024-12-07 18:26:41.877875700,0.372875732421875,0.3486534248031676,0.7913853554904461,0.2225911962896585
2024-12-07 18:26:41.887849700,0.382849609375,0.3495014199346303,0.3328331937283277,0.5147308528408407
2024-12-07 18:26:41.897823700,0.39282373046875,0.3465717962235212,-0.4712935699135064,1.162479014030099
2024-12-07 18:26:41.907797800,0.4027978515625,0.1539624812215566,-0.9015694852620364,1.2703425918996334
2024-12-07 18:26:41.917771800,0.412771728515625,-0.2173993267349898,-0.7024450892776251,0.7009507590666413
2024-12-07 18:26:41.927745800,0.422745849609375,-0.2747841787330806,-0.6271504865795373,0.3514408635646104
2024-12-07 18:26:41.937719800,0.4327197265625,-0.1346890409529209,-0.7030652670025825,-0.0062184361234307
2024-12-07 18:26:41.947693800,0.44269384765625,-0.0745135353229939,-0.4425473679006099,-0.113308399271965
2024-12-07 18:26:41.957667800,0.452667724609375,-0.0083363050602376,-0.3936714010506868,-0.2929325604945421
2024-12-07 18:26:41.967640800,0.462640869140625,0.0973677566878497,-0.4122480912268161,-0.4141720450267195
2024-12-07 18:26:41.977614800,0.47261474609375,0.2056763749111443,-0.3397627007305622,-0.3260919027745723
2024-12-07 18:26:41.987588900,0.4825888671875,0.1766448531508445,0.0418541053891181,-0.1032961238235235
2024-12-07 18:26:41.997563000,0.49256298828125,0.0631440000467002,0.2894114006310701,0.0820538676999509
2024-12-07 18:26:42.007537000,0.502536865234375,-0.1668663864582777,0.5467109222084283,0.230023245986551
2024-12-07 18:26:42.017511000,0.512510986328125,-0.2110597484499216,0.629236060681939,0.2850214951090514
2024-12-07 18:26:42.027485000,0.52248486328125,-0.1070342874385416,0.5683709653526544,0.204788705356419
2024-12-07 18:26:42.037459000,0.532458984375,0.080894979988411,0.5587000506877898,0.297158946017921
2024-12-07 18:26:42.047433500,0.54243359375,0.1023533630806952,0.70072016518116,0.4439370686933398
2024-12-07 18:26:42.057407500,0.552407470703125,0.2690063990492373,0.4640735555320978,0.5818694754816591
2024-12-07 18:26:42.067380500,0.56238037109375,0.168479813004285,0.1936158616960048,0.8555382403187454
2024-12-07 18:26:42.077354500,0.5723544921875,0.092430592546612,0.1130517941623926,0.807266961363703
2024-12-07 18:26:42.087328500,0.58232861328125,-0.0118349608309566,0.0509568647772073,0.5373422053605318
2024-12-07 18:26:42.097302500,0.592302490234375,-0.0870493378996849,-0.412293099412322,0.6876505479887127
2024-12-07 18:26:42.107276500,0.602276611328125,-0.1847510027170181,-0.4293734135508537,0.6931058907851576
2024-12-07 18:26:42.117250600,0.61225048828125,-0.3523808478284627,-0.2887503063738346,0.5233766622416675
2024-12-07 18:26:42.127224300,0.622224365234375,-0.438364602323249,-0.0871107126981019,0.4536035263787955
2024-12-07 18:26:42.137198300,0.6321982421875,-0.5098164119880646,0.1521703371077775,0.313905644287914
2024-12-07 18:26:42.147172400,0.64217236328125,-0.9177035315264016,-0.2589478733062744,-0.1269050360132008
2024-12-07 18:26:42.157145300,0.652145263671875,-0.3949808031488209,-3.6442040593385694,-0.8911023787181824
2024-12-07 18:26:42.167119400,0.662119384765625,-0.5344745409697294,-4.090824375766515,-1.1073463248729705
2024-12-07 18:26:42.177093400,0.67209326171875,-1.012910968375206,-1.0770102233201264,-0.1771213115561753
2024-12-07 18:26:42.187067400,0.6820673828125,-1.0386861186880618,0.3074029843956232,0.3370671780362725
2024-12-07 18:26:42.197041200,0.692041259765625,-0.7298440414000302,0.5457125588208437,0.4309837713569402
2024-12-07 18:26:42.207015200,0.70201513671875,-0.3541729919422418,0.3553659280538558,0.276451673553884
2024-12-07 18:26:42.216989200,0.7119892578125,-0.1709182921975851,0.956192471331358,0.4857238079346716
2024-12-07 18:26:42.226963200,0.721963134765625,-0.3201345287401229,1.6526567326337098,0.8156702672455459
2024-12-07 18:26:42.236937200,0.731937255859375,0.1449959884990006,-0.2614180628120899,0.5301073587361723
2024-12-07 18:26:42.246911200,0.7419111328125,-0.0425584542661905,-0.6675684216856956,0.8730416752401738
2024-12-07 18:26:42.256884200,0.75188427734375,-1.2894085268974302,1.3991449129015203,1.5297358708858488
2024-12-07 18:26:42.266858200,0.761858154296875,-1.7408868047505617,2.218738125744462,1.7893625202365218
2024-12-07 18:26:42.276832300,0.771832275390625,-1.424532452136278,2.446000236454606,1.499133665742725
2024-12-07 18:26:42.286806300,0.78180615234375,-0.8453853873558342,2.934990206578374,1.0072534540701656
2024-12-07 18:26:42.296780300,0.7917802734375,-0.2718587928056716,3.4485932244330644,0.4631797850301489
2024-12-07 18:26:42.306754300,0.80175439453125,0.0528935319282114,3.5436019969046115,-0.2183425624018534
2024-12-07 18:26:42.316728300,0.811728271484375,0.0213883865959942,3.2489801681488752,-0.5706454496232792
2024-12-07 18:26:42.326702300,0.821702392578125,-0.3560549332313239,2.492287355855108,-0.6116153925890102
2024-12-07 18:26:42.336676400,0.83167626953125,-0.5616681067131459,1.7430507047861814,-0.5157586249860003
2024-12-07 18:26:42.346649300,0.8416494140625,-0.5780750516347587,1.1920049682438374,-0.6835663474150001
2024-12-07 18:26:42.356623400,0.851623291015625,-0.4934023797385394,0.7865560356378555,-1.093769488810748
2024-12-07 18:26:42.366597400,0.861597412109375,-0.0670199646972119,0.5333025745809078,-1.461248171723634
2024-12-07 18:26:42.376571400,0.8715712890625,0.1944493899106979,0.4902624742776155,-1.6980780289851127
2024-12-07 18:26:42.386545400,0.88154541015625,0.3323755130887031,0.4120312336057424,-1.7350047609746455
2024-12-07 18:26:42.396519400,0.89151953125,0.5786288861252367,0.2938134349822998,-1.5769553027004002
2024-12-07 18:26:42.406493400,0.901493408203125,0.9958411756306886,-0.5883703818082809,-1.5107012078091502
2024-12-07 18:26:42.416467500,0.911467529296875,0.9951514398008584,-1.5945330449670552,-1.551112713174522
2024-12-07 18:26:42.426441500,0.92144140625,0.771730222427845,-2.1260493206530806,-1.283471684194356
2024-12-07 18:26:42.436414200,0.931414306640625,0.7049719774067401,-1.7651988237082956,-0.5840881013792008
2024-12-07 18:26:42.446388200,0.94138818359375,0.6455684790626168,-0.7817483430951834,0.2252162840962409
2024-12-07 18:26:42.456362200,0.9513623046875,0.625593904787302,0.0824333685368299,0.7090187685795128
2024-12-07 18:26:42.466336300,0.961336181640625,0.752063691188395,0.3745785780459642,0.8072379544649273
2024-12-07 18:26:42.476310300,0.971310302734375,0.7931476889878512,0.2608399706631898,0.5665026872627437
2024-12-07 18:26:42.486284300,0.9812841796875,0.7087211008071899,0.0662795215934514,0.4323756641067564
2024-12-07 18:26:42.496258300,0.99125830078125,0.5815770684063434,-0.1494897197216749,0.3252699188672006
2024-12-07 18:26:42.506232300,1.001232421875,0.5184435897536576,-0.3429056749314069,0.1723730210505425
2024-12-07 18:26:42.516206300,1.011206298828125,0.4173056668773293,-0.5559118812739848,0.1712223166454583
2024-12-07 18:26:42.526180400,1.021180419921875,0.2728086408764124,-0.749094612249732,-0.0323235490430146
2024-12-07 18:26:42.536153300,1.0311533203125,0.1115900510467588,-0.8292541906356811,-0.2787451182533055
2024-12-07 18:26:42.546127400,1.04112744140625,-0.0246253226906061,-0.8387234452486038,-0.3049577832005918
2024-12-07 18:26:42.556101400,1.051101318359375,-0.1249415539205074,-0.7343021167874336,-0.3918279651410877
2024-12-07 18:26:42.566075400,1.061075439453125,-0.2417506547898054,-0.5450199003815651,-0.4579733389608562
2024-12-07 18:26:42.576049400,1.07104931640625,-0.3434239997170865,-0.3421481345623731,-0.537957779975608
2024-12-07 18:26:42.586023400,1.0810234375,-0.4552687561772763,-0.259220845028758,-0.6596051146563142
2024-12-07 18:26:42.595997400,1.09099755859375,-0.550865119278431,-0.2467459788590669,-0.6643896455191075
2024-12-07 18:26:42.605971500,1.100971435546875,-0.6314689343005419,-0.2227127768427133,-0.6406062535453587
2024-12-07 18:26:42.615945200,1.1109453125,-0.68815002194345,-0.1857645636737346,-0.5079514948990196
2024-12-07 18:26:42.625918500,1.12091845703125,-0.6934592342674731,-0.2247913366824388,-0.3128803198281675
2024-12-07 18:26:42.635892500,1.130892578125,-0.5967388355724513,-0.3454869235962629,-0.1524208778027445
2024-12-07 18:26:42.645866500,1.140866455078125,-0.4143593842923641,-0.6436252360403537,-0.1261762833472341
2024-12-07 18:26:42.655840500,1.150840576171875,-0.4558510861098766,-1.0697235734432935,-0.1308680944252759
2024-12-07 18:26:42.665814300,1.160814208984375,-0.6927829424411058,-1.346542034482956,-0.0825196585807949
2024-12-07 18:26:42.675788300,1.170788330078125,-0.9715070909716188,-1.4261650217741726,-0.0850168822240084
2024-12-07 18:26:42.685762300,1.18076220703125,-1.1758037750273942,-1.3714111028015612,-0.0145928812369704
2024-12-07 18:26:42.695736300,1.190736328125,-1.192828705716878,-1.1436509794414045,0.3359724416021257
2024-12-07 18:26:42.705710300,1.20071044921875,-0.9549106148272752,-0.8638146318852901,0.6623462300579994
2024-12-07 18:26:42.715683600,1.21068359375,-0.4934438807927072,-0.5623930599868298,0.8515096423897892
2024-12-07 18:26:42.725657300,1.2206572265625,-0.0504430700361728,-0.4681745611101389,0.7669272060602903
2024-12-07 18:26:42.735631000,1.230631103515625,0.2054081524290144,-0.4502765008479356,0.4345886639811098
2024-12-07 18:26:42.745605000,1.240605224609375,0.0708522363364696,-0.2600748315095901,0.1227636984247714
2024-12-07 18:26:42.755579100,1.2505791015625,-0.1535809345580637,-0.0356745399713516,-0.2283282786369323
2024-12-07 18:26:42.765553200,1.26055322265625,-0.3215295632950961,-0.1147264493763446,-0.8454183397773652
2024-12-07 18:26:42.775527200,1.270527099609375,-0.5016840320020913,-0.1945242087125778,-1.2655603260591626
2024-12-07 18:26:42.785501200,1.280501220703125,-0.7369533619485795,-0.0529132595419883,-1.5605835752226411
2024-12-07 18:26:42.795475200,1.29047509765625,-0.9718810388505458,0.2024900730252266,-1.6699553656980397
2024-12-07 18:26:42.805448200,1.3004482421875,-1.0226431117080153,0.5149836585581302,-1.3352932029768825
2024-12-07 18:26:42.815422200,1.310422119140625,-0.837034688444063,0.792666627472639,-0.7309485685758292
2024-12-07 18:26:42.825396200,1.320396240234375,-0.5669440012894571,0.9856383460462091,-0.2109165405869484
2024-12-07 18:26:42.835370200,1.330370361328125,-0.5212063324652612,1.0577502270549537,0.3787806328456848
2024-12-07 18:26:42.845344300,1.34034423828125,-0.7262474051475525,0.9902969855070114,0.8919277236264198
2024-12-07 18:26:42.855318300,1.350318359375,-0.908283888208866,0.7316600778460502,1.161802210747078
2024-12-07 18:26:42.865292300,1.360292236328125,-0.7983166160583496,0.2866542108774185,1.0615711735825986
2024-12-07 18:26:42.875266300,1.370266357421875,-0.4719079024195671,-0.250964473336935,0.7062973077263682
2024-12-07 18:26:42.885240300,1.380240234375,-0.027723288705945,-0.6256967806398869,0.2064922944039106
2024-12-07 18:26:42.895213300,1.39021337890625,0.1866723261684179,-0.7304115390896797,-0.1919417179387062
2024-12-07 18:26:42.905187300,1.400187255859375,-0.0570832387030124,-0.5269143348485231,-0.2663282658811658
2024-12-07 18:26:42.915161300,1.410161376953125,-0.458271006733179,-0.2141518692463636,-0.1201749240405857
2024-12-07 18:26:42.925135400,1.42013525390625,-0.585686914877966,0.027596447455883,0.1836759938966482
2024-12-07 18:26:42.935109400,1.430109375,-0.3626461481899022,0.1998071175515651,0.5350791557993739
2024-12-07 18:26:42.945083400,1.44008349609375,0.0181961664259433,0.2821703434616327,0.8355480300828814
2024-12-07 18:26:42.955057400,1.450057373046875,0.4514052856821566,0.1856190177232027,0.906894771938026
2024-12-07 18:26:42.965031400,1.460031494140625,0.7561533716548233,-0.0290916544497013,0.7447542449578642
2024-12-07 18:26:42.975005400,1.47000537109375,0.822210774930194,-0.1081131687164306,0.6156817287124693
2024-12-07 18:26:42.984978400,1.479978515625,0.6519722086250782,-0.0127431617170572,0.6068352821730076
2024-12-07 18:26:42.994952400,1.489952392578125,0.44668753644526,0.1778875466883182,0.696988285176456
2024-12-07 18:26:43.004926500,1.499926513671875,0.2687824541002512,0.2820072618544101,0.7175097527448088
2024-12-07 18:26:43.014900500,1.509900390625,0.261013646729663,0.4161556200593709,0.7729612255275249
2024-12-07 18:26:43.024874500,1.51987451171875,0.4755542230326682,0.383534622439742,0.6908097426719964
2024-12-07 18:26:43.034848500,1.5298486328125,0.6615461657214909,0.1449737036019563,0.33623730308339
2024-12-07 18:26:43.044822300,1.539822265625,0.7051660386741161,-0.0441992072105407,-0.0150480045933276
2024-12-07 18:26:43.054796300,1.54979638671875,0.7422317407429218,-0.1582902812927961,-0.3220458422541618
2024-12-07 18:26:43.064770300,1.559770263671875,0.8145587258070707,-0.2060778683841228,-0.4528419674217701
2024-12-07 18:26:43.074743300,1.569743408203125,0.8178800522495061,-0.0862093799442052,-0.4858271952439099
2024-12-07 18:26:43.084717300,1.57971728515625,0.8879816894143819,0.0776677615702152,-0.3947621919620782
2024-12-07 18:26:43.094691300,1.58969140625,0.9592588731646536,0.1642015511631965,-0.262347964073345
2024-12-07 18:26:43.104665300,1.599665283203125,0.9042558748017996,0.3055786915779113,-0.1257396454956382
2024-12-07 18:26:43.114639400,1.609639404296875,0.7813660657793283,0.4960819742113351,0.042274449693039
2024-12-07 18:26:43.124613400,1.61961328125,0.7004401791960001,0.6654997987180948,0.2346613541159778
2024-12-07 18:26:43.134587400,1.62958740234375,0.7703893292129039,0.5597761554867029,0.3376324107035994
2024-12-07 18:26:43.144561400,1.6395615234375,0.9283605346191672,0.3020125235289335,0.3519974745340645
2024-12-07 18:26:43.154535200,1.64953515625,1.0316916566908358,0.1228437048584222,0.382995693257451
2024-12-07 18:26:43.164509200,1.65950927734375,1.086862339770794,0.0116746557027101,0.3361977747905999
2024-12-07 18:26:43.174482200,1.669482177734375,1.067393084669113,-0.0442483070492744,0.2724163536231965
2024-12-07 18:26:43.184456200,1.679456298828125,1.011249172642827,-0.0388853187114,0.1931383803773671
2024-12-07 18:26:43.194430200,1.68943017578125,0.912427490819618,-0.039579146194458,0.1206907646082341
2024-12-07 18:26:43.204404200,1.699404296875,0.7923713708531112,-0.0397001422256231,0.138023446072638
2024-12-07 18:26:43.214378200,1.709378173828125,0.7517395738005638,-0.104416067764163,0.1821628859199583
2024-12-07 18:26:43.224352000,1.71935205078125,0.7129770046859979,-0.144769120940566,0.2727684549964964
2024-12-07 18:26:43.234326000,1.729325927734375,0.6224135211855173,-0.1978577370494603,0.3291502674318849
2024-12-07 18:26:43.244300000,1.739300048828125,0.4872119276005774,-0.2423281624168157,0.3609976503305137
2024-12-07 18:26:43.254274000,1.749274169921875,0.2412894670188426,-0.2475233929723501,0.4176230622634291
2024-12-07 18:26:43.264247300,1.759247314453125,0.0803746824413537,-0.2443582069396972,0.4941455993212759
2024-12-07 18:26:43.274221000,1.769220947265625,0.0310825725385919,-0.2566536248892545,0.6400912166953087
2024-12-07 18:26:43.284195000,1.779195068359375,0.0725964861879125,-0.2690793912202119,0.7903636842925101
2024-12-07 18:26:43.294169000,1.789169189453125,0.0961234557151794,-0.2557587218761444,0.8964296381555497
2024-12-07 18:26:43.304143000,1.79914306640625,0.0392746102899312,-0.1613105058968067,0.9438480266083032
2024-12-07 18:26:43.314117000,1.8091171875,-0.1348000818456523,0.0005897825866937,1.0073243273492902
2024-12-07 18:26:43.324091100,1.819091064453125,-0.4443651944449171,0.1342757839769124,1.0217004970956594
2024-12-07 18:26:43.334065200,1.829065185546875,-0.6828764654546976,0.2290530857801437,1.0464322758354243
2024-12-07 18:26:43.344039200,1.8390390625,-0.8544108437240123,0.2375871053695678,1.060996077108383
2024-12-07 18:26:43.354012200,1.84901220703125,-1.032239938223362,0.1506453194975852,0.9571499181866644
2024-12-07 18:26:43.363986200,1.858986083984375,-1.2261971607029438,0.0861187790513038,0.7890745943300426
2024-12-07 18:26:43.373960200,1.868960205078125,-1.2599872021019458,0.0792746122449636,0.5956311665914953
2024-12-07 18:26:43.383934200,1.878934326171875,-1.0826795011281969,0.1019435401707887,0.397897202052176
2024-12-07 18:26:43.393908200,1.888908203125,-0.8067670490175485,0.0535270075261592,0.2236750094709917
2024-12-07 18:26:43.403882200,1.89888232421875,-0.6675140611499547,-0.130846978572011,0.0504537375606596
2024-12-07 18:26:43.413856300,1.908856201171875,-0.7780804682374,-0.3080909666597843,-0.0666902578188106
2024-12-07 18:26:43.423830300,1.918830322265625,-1.0280331341832876,-0.3002268091559409,-0.0888475464280694
2024-12-07 18:26:43.433804300,1.92880419921875,-1.1364087532281877,-0.0754834032684564,0.048501982438378
2024-12-07 18:26:43.443777300,1.93877734375,-0.9497083700090646,0.2802496045321226,0.4193471095770597
2024-12-07 18:26:43.453751300,1.948751220703125,-0.7096130812108516,0.6487514930129051,0.8157102339297533
2024-12-07 18:26:43.463725300,1.958725341796875,-0.5872480997800826,0.9738298348307608,1.0868349403072148
2024-12-07 18:26:43.473699300,1.96869921875,-0.5668746258476749,1.188990004336834,1.1666924670066685
2024-12-07 18:26:43.483673300,1.97867333984375,-0.4935246544113382,1.247254561778903,1.1431985594987868
2024-12-07 18:26:43.493647400,1.9886474609375,-0.2750426104735582,1.2051923665970563,1.012257692098245
2024-12-07 18:26:43.503621400,1.998621337890625,-0.0059551090121269,0.9999141241580248,0.7539590034157038
2024-12-07 18:26:43.513595100,2.00859521484375,0.2282967144548892,0.647759559366107,0.3691530458658933
2024-12-07 18:26:43.523569200,2.018569091796875,0.4891863694787025,0.2551256846696138,-0.0496663500426337
2024-12-07 18:26:43.533542100,2.028542236328125,0.706987920339033,-0.0572048192560672,-0.4743662918897345
2024-12-07 18:26:43.543516200,2.03851611328125,0.7584954047363252,-0.3203933988720178,-0.7937822605643421
2024-12-07 18:26:43.553490200,2.048490234375,0.6268903743386268,-0.4647825805842876,-1.0556565427113325
2024-12-07 18:26:43.563464200,2.058464111328125,0.3790017282504588,-0.4612883087277412,-1.270452335884422
2024-12-07 18:26:43.573438200,2.068438232421875,0.0714653267335146,-0.2910778725385666,-1.3890886521808803
2024-12-07 18:26:43.583412200,2.078412109375,-0.2127671368896961,0.0190308636844158,-1.465909295402467
2024-12-07 18:26:43.593386200,2.08838623046875,-0.4362198453795164,0.457331095534563,-1.360623751327395
2024-12-07 18:26:43.603360300,2.0983603515625,-0.6224702198088169,0.8661270004808902,-1.1440439242817462
2024-12-07 18:26:43.613333200,2.108333251953125,-0.8530401398926973,1.0334434687942269,-0.8791144192826003
2024-12-07 18:26:43.623307300,2.118307373046875,-1.1131254927963017,0.9453799854159356,-0.5327556812878698
2024-12-07 18:26:43.633281300,2.12828125,-1.295868516691774,0.968974796015024,-0.1197241845984011
2024-12-07 18:26:43.643255300,2.13825537109375,-1.337845517808199,0.9939946709811688,0.2430464667540043
2024-12-07 18:26:43.653229300,2.148229248046875,-1.0854758538484572,1.009839890366793,0.5073783711861819
2024-12-07 18:26:43.663203300,2.158203369140625,-0.7695813738308847,1.1774147173553704,0.5764364906474948
2024-12-07 18:26:43.673177300,2.16817724609375,-0.5813635717861354,1.2517156328409909,0.4273912998229265
2024-12-07 18:26:43.683151400,2.1781513671875,-0.2307651503950357,1.1205424910545347,0.2839780504707246
2024-12-07 18:26:43.693125000,2.188125,-0.0122298053674399,0.864693168285489,0.1053949957989156
2024-12-07 18:26:43.703098400,2.198098388671875,-0.0219983351878821,0.3532446981161832,-0.4124485091697424
2024-12-07 18:26:43.713072400,2.208072265625,0.1035499524541199,0.0248451029211282,-0.939551498458162
2024-12-07 18:26:43.723046400,2.21804638671875,0.5294068823166191,-0.1734153697103261,-1.178716228407994
2024-12-07 18:26:43.733020400,2.2280205078125,0.8901444204062223,-0.2809498617559671,-1.313350689629465
2024-12-07 18:26:43.742994400,2.237994384765625,1.1682348010778427,-0.3226473152786493,-1.317015788008273
2024-12-07 18:26:43.752968200,2.24796826171875,1.6618179442107677,-0.5077285728633404,-1.065919797246158
2024-12-07 18:26:43.762942200,2.257942138671875,1.777594341031462,-0.5329021770864725,-0.8205907725129276
2024-12-07 18:26:43.772916200,2.267916259765625,1.5376520508378744,-0.4009066130012274,-0.5401666151314973
2024-12-07 18:26:43.782890200,2.27789013671875,1.191366816470772,-0.3175724962323903,-0.4191151274520903
2024-12-07 18:26:43.792863200,2.28786328125,0.9662545772708953,-0.2820733128279447,-0.4499775909665972
2024-12-07 18:26:43.802837200,2.297837158203125,0.8484383451856672,-0.2897387328892946,-0.4908628513235598
2024-12-07 18:26:43.812811300,2.307811279296875,0.7226772915758192,-0.2863946831583976,-0.4457938024759292
2024-12-07 18:26:43.822785000,2.317784912109375,0.6683658556737005,-0.333252295923233,-0.418202834912762
2024-12-07 18:26:43.832759000,2.327759033203125,0.6780722800433635,-0.5091173968732357,-0.5283625608954579
2024-12-07 18:26:43.842733000,2.337733154296875,0.6874354439333081,-0.8156132032960652,-0.5515119658146054
2024-12-07 18:26:43.852707000,2.34770703125,0.7042619294412433,-1.1273878269046544,-0.4505344941969961
2024-12-07 18:26:43.862681000,2.35768115234375,0.6393515042439103,-1.3301982179254292,-0.2055579361632466
2024-12-07 18:26:43.872655000,2.367655029296875,0.5035118319511414,-1.5041221216797829,-0.0449601816456764
2024-12-07 18:26:43.882628000,2.377628173828125,0.4017467170871794,-1.6661960131645202,0.0320596374098211
2024-12-07 18:26:43.892602000,2.38760205078125,0.2693186068035662,-1.80713476216197,0.0898841229341924
2024-12-07 18:26:43.902576000,2.397576171875,0.0319464593589305,-1.85211839774847,0.1462255302939563
2024-12-07 18:26:43.912550100,2.407550048828125,-0.3488816806010901,-1.7233008791774511,0.1530696240350604
2024-12-07 18:26:43.922524200,2.417524169921875,-0.8714800519466399,-1.5684844114750622,0.016092033753544
2024-12-07 18:26:43.932498200,2.427498291015625,-1.2225398072391749,-1.4516133512854574,-0.1244223523519933
2024-12-07 18:26:43.942472200,2.43747216796875,-1.470523365069181,-1.3743483252972364,-0.1659186572793871
2024-12-07 18:26:43.952446200,2.4474462890625,-1.5378706620246172,-1.37247610168457,-0.2178247856054455
2024-12-07 18:26:43.962420200,2.457420166015625,-1.6207796852491796,-1.470712019509077,-0.2204975119460374
2024-12-07 18:26:43.972393200,2.467393310546875,-1.74493213461861,-1.6929115861326456,-0.2611801624029874
2024-12-07 18:26:43.982367200,2.4773671875,-1.8577607875496147,-1.8654092564761635,-0.3691259386632591
2024-12-07 18:26:43.992341200,2.48734130859375,-2.060761002054065,-1.823140140545368,-0.4141751868318766
2024-12-07 18:26:44.002315300,2.497315185546875,-2.2904075236827133,-1.511352657455206,-0.1902921971660107
2024-12-07 18:26:44.012289300,2.507289306640625,-2.537752637478709,-0.9378864147901534,0.2215682099174708
2024-12-07 18:26:44.022263300,2.51726318359375,-2.79625978128016,-0.0695025752931833,0.4876761110462248
2024-12-07 18:26:44.032237300,2.5272373046875,-3.086362671306729,1.026497595179081,0.7326571991246194
2024-12-07 18:26:44.042210800,2.5372109375,-3.5858658521384,1.9787474663645028,1.0532545961361377
2024-12-07 18:26:44.052184800,2.547184814453125,-4.128717176309228,2.4344284566044805,1.7542755708947777
2024-12-07 18:26:44.062157800,2.55715771484375,-3.926518195185065,2.5717566138893364,2.27427208917886
2024-12-07 18:26:44.072131800,2.5671318359375,-2.7628186994493005,2.5953058317810296,2.203538218525052
2024-12-07 18:26:44.082105900,2.57710595703125,-1.1901033724062144,2.237719889590144,1.5239979117557405
2024-12-07 18:26:44.092079900,2.587079833984375,0.312660758793354,1.1783879463016986,0.4853479603596031
2024-12-07 18:26:44.102054000,2.597053955078125,1.5434464163303374,-0.2741542102664709,-0.4796148235350847
2024-12-07 18:26:44.112027600,2.607027587890625,2.1665987731844187,-1.0087211154699325,-1.4336965863227844
2024-12-07 18:26:44.122001700,2.617001708984375,1.854671589362621,-0.964778513368964,-2.2655729421555995
2024-12-07 18:26:44.131975700,2.6269755859375,0.7916706021726131,-0.5496586660981178,-2.6297265722990035
2024-12-07 18:26:44.141949700,2.63694970703125,-0.1513936536468565,-0.1456990952670574,-1.9664768905952568
2024-12-07 18:26:44.151922700,2.646922607421875,-0.4222557635653763,0.0889244841217994,-0.6763768012370914
2024-12-07 18:26:44.161896700,2.656896728515625,-0.0422632707118988,0.1004459950894117,0.5166941157378256
2024-12-07 18:26:44.171870700,2.66687060546875,0.5441753393162042,-0.0914782602578401,1.1564197139911352
2024-12-07 18:26:44.181844700,2.6768447265625,0.8082143982816488,-0.514124411380291,1.2313802624292671
2024-12-07 18:26:44.191818800,2.68681884765625,0.7297527098547667,-0.9509089779704808,0.9733175744596868
2024-12-07 18:26:44.201792800,2.696792724609375,0.6996154918748885,-1.097960072368383,0.2852369644906372
2024-12-07 18:26:44.211766800,2.706766845703125,0.932267990386486,-0.820507405078411,-0.4782737841896712
2024-12-07 18:26:44.221740800,2.71674072265625,1.118832253070548,-0.3085872257441282,-0.9275044292464852
2024-12-07 18:26:44.231714800,2.72671484375,1.1742582991510628,0.1733136629015207,-1.0050549941778182
2024-12-07 18:26:44.241687800,2.736687744140625,1.2169091078758238,0.5020826759308576,-0.6697019996482878
2024-12-07 18:26:44.251661800,2.746661865234375,1.3407178583741188,0.6288134513556957,-0.1631817796614021
2024-12-07 18:26:44.261635800,2.7566357421875,1.5246692351460456,0.5493734194159507,0.2347106731504201
2024-12-07 18:26:44.271609900,2.76660986328125,1.6653940491318702,0.5485831458210945,0.504666847205162
2024-12-07 18:26:44.281583900,2.776583984375,1.6773597967356442,0.6649328124850988,0.74699785916619
2024-12-07 18:26:44.291558000,2.786557861328125,1.443814660233259,0.9334808733075856,1.11913167440854
2024-12-07 18:26:44.301532000,2.796531982421875,1.228357553607225,1.1483844377040862,1.342837919268012
2024-12-07 18:26:44.311506000,2.806505859375,1.270854048553109,1.0491770444989204,1.190342661054805
2024-12-07 18:26:44.321479700,2.816479736328125,1.3485603885680435,0.6742284640967845,0.7588656993534415
2024-12-07 18:26:44.331453000,2.826452880859375,1.281188395562768,0.3145727298945188,0.255050208280608
2024-12-07 18:26:44.341427000,2.836427001953125,1.2345511475503443,0.0815910724937915,-0.1659899689499288
2024-12-07 18:26:44.351401000,2.84640087890625,1.1959066518574952,-0.0583896451264619,-0.4322708154927939
2024-12-07 18:26:44.361375000,2.856375,1.188227276336029,-0.0973597195118665,-0.5399642974924296
2024-12-07 18:26:44.371348700,2.8663486328125,1.241418695232272,-0.1282142919808626,-0.5272290268208831
2024-12-07 18:26:44.381322800,2.87632275390625,1.227582477581501,-0.1844710167318582,-0.4281968440521508
2024-12-07 18:26:44.391296800,2.886296875,1.206356076614186,-0.2430219898998737,-0.2743094008281826
2024-12-07 18:26:44.401270800,2.896270751953125,1.1239653781753032,-0.3104121030837297,-0.0924663945123553
2024-12-07 18:26:44.411243800,2.906243896484375,1.0333592976421118,-0.3320207083016633,0.1439798702590167
2024-12-07 18:26:44.421217800,2.9162177734375,0.955735375213623,-0.2716144626557827,0.3985610727883875
2024-12-07 18:26:44.431191800,2.92619189453125,0.9046165978729724,-0.1909124479562044,0.6211980809811503
2024-12-07 18:26:44.441165600,2.93616552734375,0.8142693874716759,-0.0994949779748916,0.7475180836480111
2024-12-07 18:26:44.451139600,2.9461396484375,0.7079051082491874,-0.079286887204647,0.8348260724838823
2024-12-07 18:26:44.461113600,2.956113525390625,0.5573866665342823,-0.1669897205770015,0.854322361722961
2024-12-07 18:26:44.471087600,2.966087646484375,0.4312456371635198,-0.2855576478123665,0.8278144401561468
2024-12-07 18:26:44.481061600,2.9760615234375,0.3144090637654066,-0.2871989852786064,0.8585755621880292
2024-12-07 18:26:44.491035600,2.98603564453125,0.1182114054152742,-0.2469096449881792,0.8348445579886435
2024-12-07 18:26:44.501008600,2.996008544921875,-0.1279547277292236,-0.2976636806696653,0.7215449265450239
2024-12-07 18:26:44.510982700,3.005982666015625,-0.2416395956307649,-0.2654658768981695,0.5537237966451793
2024-12-07 18:26:44.520956700,3.015956787109375,-0.3515840714275837,-0.1642038892507553,0.4144166309049353
2024-12-07 18:26:44.530930700,3.0259306640625,-0.4726566749602556,0.0291956993460655,0.362643627439253
2024-12-07 18:26:44.540904700,3.03590478515625,-0.6221896493017673,0.1125444291621446,0.4546026204187423
2024-12-07 18:26:44.550878700,3.045878662109375,-0.7105021390050649,0.0618389087975025,0.6090822573821991
2024-12-07 18:26:44.560852700,3.055852783203125,-0.6939911491870879,-0.05007540576756,0.6919749870590866
2024-12-07 18:26:44.570826800,3.06582666015625,-0.6253215175867081,-0.0774246004641056,0.6131345284476876
2024-12-07 18:26:44.580800800,3.07580078125,-0.5247258848935366,-0.076703884974122,0.3773383616155013
2024-12-07 18:26:44.590773800,3.085773681640625,-0.5939117223877459,-0.0128892921894788,0.0596817672962322
2024-12-07 18:26:44.600747800,3.095747802734375,-0.9397662371873856,0.1548059463083744,-0.0526528915727511
2024-12-07 18:26:44.610721800,3.1057216796875,-1.368531747972965,0.4209013532817363,0.0773756467558443
2024-12-07 18:26:44.620695800,3.11569580078125,-1.5906874754548073,0.6137427234739065,0.4006790878556668
2024-12-07 18:26:44.630669800,3.125669921875,-1.448026140448451,0.5739484732240439,0.7845685150824486
2024-12-07 18:26:44.640643800,3.135643798828125,-1.017112511718273,0.3976666081666946,1.0766724427331238
2024-12-07 18:26:44.650617900,3.145617919921875,-0.5763105261802673,0.3301794643491506,1.2849255362644791
2024-12-07 18:26:44.660591900,3.155591796875,-0.2075169612765312,0.4228934038817882,1.5593040568061172
2024-12-07 18:26:44.670566000,3.16556591796875,0.048480830052495,0.4907534726649522,1.8277721842601893
2024-12-07 18:26:44.680538600,3.17553857421875,0.1348655665636062,0.4693482810646295,2.01951289973408
2024-12-07 18:26:44.690512600,3.1855126953125,0.1098573820352554,0.4926093296647071,2.147485930304974
2024-12-07 18:26:44.700486700,3.195486572265625,0.0608376593330875,0.6059282503306865,2.0868581508629025
2024-12-07 18:26:44.710460700,3.205460693359375,-0.0264362080374732,0.6669365535229445,1.8073790923118591
2024-12-07 18:26:44.720434700,3.2154345703125,-0.1318324824780225,0.5615519329875708,1.2965455391705036
2024-12-07 18:26:44.730408700,3.22540869140625,-0.1782113718152046,0.3231991039425134,0.705462683533132
2024-12-07 18:26:44.740382700,3.2353828125,-0.1718523581773042,0.0074321958273649,0.1588930512252263
2024-12-07 18:26:44.750356700,3.245356689453125,-0.1885516005763784,-0.2894002947151661,-0.290603569557704
2024-12-07 18:26:44.760329700,3.255329833984375,-0.323455087997578,-0.3816524619549513,-0.6738781162891536
2024-12-07 18:26:44.770303700,3.2653037109375,-0.5971615910291671,-0.1503694251656532,-0.9311858942382036
2024-12-07 18:26:44.780277800,3.27527783203125,-1.129790796393156,0.3696709322601557,-1.240823944209516
2024-12-07 18:26:44.790251800,3.285251708984375,-2.0129519337832926,1.0112596940368412,-1.6098897501833735
2024-12-07 18:26:44.800225800,3.295225830078125,-3.092883012986183,1.680243243217468,-1.8810114608861503
2024-12-07 18:26:44.810199800,3.30519970703125,-4.087358745482564,2.2432956438958644,-1.7643072816960512
2024-12-07 18:26:44.820173800,3.315173828125,-4.574811423036456,2.604747613865137,-1.198345131050795
2024-12-07 18:26:44.830147800,3.32514794921875,-4.474650090107321,2.6273879002183675,-0.6462030506391078
2024-12-07 18:26:44.840121900,3.335121826171875,-4.271594784414768,2.4077239895522595,-0.2636201029010117
2024-12-07 18:26:44.850094800,3.3450947265625,-3.896200798332691,2.1114994017750024,-0.1465788737762719
2024-12-07 18:26:44.860068900,3.35506884765625,-2.905769957312941,1.8507915330588816,-0.7570845880903303
2024-12-07 18:26:44.870043000,3.36504296875,-1.303047760671377,1.524994813838601,-1.6991946119248866
2024-12-07 18:26:44.880017000,3.375016845703125,0.5072130245566367,1.1848258703947063,-2.2144997575223444
2024-12-07 18:26:44.889991000,3.384990966796875,2.75360663446784,0.8266139052599668,-2.199372769408673
2024-12-07 18:26:44.899965000,3.39496484375,4.482459887075424,0.4947586166530847,-1.5857815832346678
2024-12-07 18:26:44.909938700,3.404938720703125,4.705744326326251,0.0744610744833946,-0.6307797099273651
2024-12-07 18:26:44.919912700,3.41491259765625,3.5658453928947447,-0.2202314814209938,0.2602627552971244
2024-12-07 18:26:44.929886700,3.42488671875,1.9117665185034272,-0.3393406759262085,0.7033334164194762
2024-12-07 18:26:44.939860000,3.43485986328125,-0.0384513112083077,-0.1790682809054851,0.7942396489430218
2024-12-07 18:26:44.949834000,3.444833984375,-1.09097211317718,0.1871200699359178,0.7599647466365248
2024-12-07 18:26:44.959808000,3.45480810546875,-0.4828694414168596,0.1310574064522981,0.1142142620705068
2024-12-07 18:26:44.969781800,3.46478173828125,0.5622945680484175,-0.304706584918499,-0.6495803450524806
2024-12-07 18:26:44.979755800,3.474755859375,1.0428853970088063,-0.9002309301346539,-1.1101636473160237
2024-12-07 18:26:44.989729800,3.484729736328125,1.043437624064088,-1.417676594892144,-1.3100877423107624
2024-12-07 18:26:44.999703600,3.49470361328125,0.909407485411316,-1.814405045425892,-1.3479662220671773
2024-12-07 18:26:45.009677600,3.504677490234375,1.092060639066249,-2.1735259420990944,-1.2578037205830217
2024-12-07 18:26:45.019651600,3.514651611328125,1.4555414845146235,-2.5127362696439026,-1.265904609452188
2024-12-07 18:26:45.029624600,3.52462451171875,1.7439518914096055,-2.769177128565312,-1.1427334262050688
2024-12-07 18:26:45.039598600,3.5345986328125,1.86915633405,-2.7919237979024647,-0.9405413862783462
2024-12-07 18:26:45.049572400,3.544572265625,1.745777791662514,-2.5724890198171138,-0.7828356268752366
2024-12-07 18:26:45.059546000,3.554546142578125,1.4284681841500102,-2.19867382735908,-0.4825744039930403
2024-12-07 18:26:45.069520100,3.56452001953125,1.0567466029703616,-1.9122119241833688,-0.1839819911058992
2024-12-07 18:26:45.079494100,3.574494140625,0.6981371629506349,-1.7610656694263218,-0.1275040978848934
2024-12-07 18:26:45.089468200,3.58446826171875,0.3178542357832193,-1.7263012300372125,-0.1632367977842688
2024-12-07 18:26:45.099442200,3.594442138671875,-0.0290758723586797,-1.8281109146952628,-0.3468244558103382
2024-12-07 18:26:45.109415200,3.604415283203125,-0.3280991509437561,-2.00573951818645,-0.7178297054141759
2024-12-07 18:26:45.119389200,3.61438916015625,-0.6375844945713878,-2.2345628868639467,-0.7956378983683884
2024-12-07 18:26:45.129363200,3.62436328125,-0.7098509816199541,-2.375025250521302,-0.7302869628619402
2024-12-07 18:26:45.139337200,3.634337158203125,-0.7849556147038936,-2.240033427229524,-0.5158674556553363
2024-12-07 18:26:45.149311200,3.644311279296875,-1.1144573259219526,-1.87132870965302,-0.2423546850975602
2024-12-07 18:26:45.159285200,3.65428515625,-1.728288019940257,-1.2794009276241065,0.1397805188730358
2024-12-07 18:26:45.169259300,3.66425927734375,-2.340866375809908,-0.5479799192309379,0.7877363314636051
2024-12-07 18:26:45.179233300,3.6742333984375,-2.6971412354022264,0.1259913552343845,1.6192115591496228
2024-12-07 18:26:45.189207300,3.684207275390625,-2.637543968051672,0.656079059422016,2.5469018663570284
2024-12-07 18:26:45.199180300,3.69418017578125,-2.6673230202436446,1.1540858642160892,3.410599009342492
2024-12-07 18:26:45.209154300,3.704154296875,-2.871049357065558,1.5886165143996476,4.154342908214033
2024-12-07 18:26:45.219128300,3.71412841796875,-2.8216671942591667,1.723089866775274,4.160022415155172
2024-12-07 18:26:45.229102300,3.724102294921875,-2.5641812101989983,1.6252344727009531,3.511617543622851
2024-12-07 18:26:45.239076400,3.734076416015625,-1.6060393583655357,1.6984376560777426,2.495486151896417
2024-12-07 18:26:45.249050400,3.74405029296875,-0.2164396879225969,1.7490467303305863,1.3719593843340874
2024-12-07 18:26:45.259024400,3.7540244140625,0.5499415746927261,1.677033633521199,0.2506503658864647
2024-12-07 18:26:45.268998100,3.763998046875,0.8148327204428613,1.7937573941946028,-1.1278439001090823
2024-12-07 18:26:45.278972200,3.77397216796875,1.130730269200355,2.002453336122632,-2.430683717118204
2024-12-07 18:26:45.288945200,3.783945068359375,1.2693753543026745,1.8668226304054256,-3.322651261298358
2024-12-07 18:26:45.298919200,3.793919189453125,1.0532298270210625,1.2155243755191565,-3.918614874714613
2024-12-07 18:26:45.308893200,3.80389306640625,0.5710989290118217,0.3390980993419885,-4.295404406808316
2024-12-07 18:26:45.318867200,3.8138671875,-0.1589144045405089,-0.4740227026164531,-4.087243594670295
2024-12-07 18:26:45.328841200,3.82384130859375,-0.6484861200749874,-0.992131215196848,-2.852588109962642
2024-12-07 18:26:45.338815200,3.833815185546875,-0.4705975504733621,-1.4475643681555983,-1.652483129632473
2024-12-07 18:26:45.348789200,3.843789306640625,-0.0142810388088226,-1.6873112819075584,-0.7332219203352928
2024-12-07 18:26:45.358763300,3.85376318359375,0.6561643996179104,-1.6081880608320236,-0.2682496623978018
2024-12-07 18:26:45.368736300,3.863736328125,1.4666669819019733,-1.112934938660264,-0.4025892323259264
2024-12-07 18:26:45.378710300,3.873710205078125,2.0030888575471937,-0.3370955273479223,-0.8137249053314328
2024-12-07 18:26:45.388684300,3.883684326171875,2.2799283613748846,0.4111719864279031,-1.0988473035316917
2024-12-07 18:26:45.398658300,3.893658203125,2.2554745958589018,0.9278764774292708,-1.144349556164816
2024-12-07 18:26:45.408632300,3.90363232421875,2.0680809696786104,1.048390862557292,-0.7969879978030919
2024-12-07 18:26:45.418606300,3.9136064453125,1.804091156682372,0.8633505215048789,-0.1790140665002167
2024-12-07 18:26:45.437931300,3.93293115234375,0.4596545700460672,0.6630196723401546,0.4254066288117319
2024-12-07 18:26:45.447905300,3.9429052734375,0.5390437485814095,0.4935229373782873,0.2165983856156468
2024-12-07 18:26:45.457878300,3.952878173828125,1.371464440423995,0.2650157950431108,0.1388070707309991
2024-12-07 18:26:45.467852300,3.962852294921875,2.051141086924076,0.1150011746644973,0.2039733703855425
2024-12-07 18:26:45.477826300,3.972826416015625,2.098809285419434,-0.0216921918481588,0.2603876968510449
2024-12-07 18:26:45.487800300,3.98280029296875,1.7007457868896425,-0.2829834134101867,0.2591054750207811
2024-12-07 18:26:45.497774300,3.9927744140625,1.3165490472793575,-0.6151233641773461,0.2000987939745187
2024-12-07 18:26:45.507748400,4.002748291015625,1.0805612668652087,-0.8956015167683362,0.1335864134732634
2024-12-07 18:26:45.517722400,4.012722412109375,0.9450333639353512,-1.0644313122540712,0.1760432339958846
2024-12-07 18:26:45.527696400,4.0226962890625,0.6084376758683473,-0.8678343889206648,0.4078736755348742
2024-12-07 18:26:45.537670400,4.03267041015625,0.1782202127087861,-0.3115904992133378,0.8018388719003647
2024-12-07 18:26:45.547643100,4.04264306640625,-0.1655921287387609,0.3485299445539713,1.18615090845339
2024-12-07 18:26:45.557617200,4.0526171875,-0.2051402952730655,0.8933873478502035,1.314573947814107
2024-12-07 18:26:45.567591200,4.062591064453125,-0.1324514180939644,1.278522975745797,1.189023029823601
2024-12-07 18:26:45.577565200,4.072565185546875,-0.0375888491600751,1.4630547827541829,0.9187070825457572
2024-12-07 18:26:45.587539200,4.082539306640625,0.0068961892545223,1.497629837051034,0.5854042985443025
2024-12-07 18:26:45.597513200,4.09251318359375,-0.0001180734217166,1.3103975389122962,0.2956401389528065
2024-12-07 18:26:45.607487200,4.1024873046875,-0.1159556989103555,0.9778992762267588,0.3008076047185808
2024-12-07 18:26:45.617461200,4.112461181640625,-0.1287228260248899,0.5428372956454753,0.4809506752487272
2024-12-07 18:26:45.627435300,4.122435302734375,-0.0742436323404312,0.0224976630121469,0.491919593834877
2024-12-07 18:26:45.637408300,4.132408203125,-0.2322691252171993,-0.4679793307989836,0.2468853873297572
2024-12-07 18:26:45.647382300,4.14238232421875,-0.5717238559771329,-0.80062840013206,-0.1482736219301819
2024-12-07 18:26:45.657356300,4.152356201171875,-0.5567652832329273,-0.8680120835751295,-0.3895942147396504
2024-12-07 18:26:45.667330300,4.162330322265625,-0.3728472242087126,-0.8048422184348106,-0.4591836645986885
2024-12-07 18:26:45.677304300,4.17230419921875,-0.1892711104899644,-0.6202221486210823,-0.4809198417190462
2024-12-07 18:26:45.687278300,4.1822783203125,-0.1601677290698513,-0.5095896905601024,-0.4770337940659374
2024-12-07 18:26:45.697252400,4.19225244140625,-0.2906914670368656,-0.4292302056878805,-0.4336913498152047
2024-12-07 18:26:45.707226400,4.202226318359375,-0.2251081475466489,-0.3081669545054435,-0.194420309946686
2024-12-07 18:26:45.717199400,4.212199462890625,-0.1490851757750846,-0.1625274804711342,0.0810127611491829
2024-12-07 18:26:45.727173400,4.22217333984375,-0.1931119672944769,0.0645750557631254,0.3623058103196322
2024-12-07 18:26:45.737147400,4.2321474609375,-0.2775122702564113,0.1612362716168165,0.6214027367077768
2024-12-07 18:26:45.747744300,4.242744140625,-0.2949017964745871,0.1898363431572914,0.7862038611993193
2024-12-07 18:26:45.757718300,4.25271826171875,-0.3715817343175411,0.1754132655292749,0.8848695487432181
2024-12-07 18:26:45.767692300,4.2626923828125,-0.4373170660316944,0.1966372553437948,0.9997687243379652
2024-12-07 18:26:45.777666300,4.272666259765625,-0.3994792105466127,0.2121317615956068,1.0968469965599477
2024-12-07 18:26:45.787640300,4.282640380859375,-0.45647539202068,0.1855547203153371,1.0740998888313769
2024-12-07 18:26:45.797614300,4.2926142578125,-0.5704173764884471,0.0989525416612625,0.9976254286989568
2024-12-07 18:26:45.807588400,4.30258837890625,-0.6437497392028569,-0.0752495945125818,0.8465683135300874
2024-12-07 18:26:45.817562400,4.312562255859375,-0.7111176405549049,-0.3562520632386207,0.712462040901184
2024-12-07 18:26:45.827535000,4.32253515625,-0.8561468737363814,-0.543432923451066,0.6292617796450853
2024-12-07 18:26:45.837509000,4.332509033203125,-0.9643108958572147,-0.5769815573096275,0.5259856026310473
2024-12-07 18:26:45.847483100,4.342483154296875,-1.0308920307457443,-0.4246072220623493,0.5326894476512447
2024-12-07 18:26:45.857457200,4.35245703125,-1.0800310324460267,-0.0834744020223617,0.6508014843452722
2024-12-07 18:26:45.867431200,4.36243115234375,-0.7741331919163466,0.2950298250347375,0.8344914337020367
2024-12-07 18:26:45.877405200,4.3724052734375,-0.2507540271903388,0.5835106668174267,1.039998005004227
2024-12-07 18:26:45.887379200,4.382379150390625,0.088155308113899,0.6979232279390096,1.1113515419263391
2024-12-07 18:26:45.897353200,4.392353271484375,0.2860831695238128,0.5662859757721423,1.0974139827929437
2024-12-07 18:26:45.907326200,4.402326171875,0.4183171820074319,0.4342611855924129,1.0674705338194963
2024-12-07 18:26:45.917300200,4.41230029296875,0.44051093016956,0.3721493050724268,1.0291462099917232
2024-12-07 18:26:45.927274200,4.422274169921875,0.4841214873045683,0.3589490472376346,0.9842680806063115
2024-12-07 18:26:45.937248300,4.432248291015625,0.5908803553352132,0.4495370806574821,0.9397526470534504
2024-12-07 18:26:45.947222300,4.44222216796875,0.7247445993691682,0.6237421394407748,0.9885727189976722
2024-12-07 18:26:45.957196300,4.4521962890625,0.8932201745897531,0.8834674268603324,1.036070310166478
2024-12-07 18:26:45.967170300,4.46217041015625,1.0220371086388826,1.0082342087358236,0.9346786317247896
2024-12-07 18:26:45.977144300,4.472144287109375,1.0800924072444438,1.065349011620879,0.6921649566732346
2024-12-07 18:26:45.987118300,4.482118408203125,1.0750982522189616,0.9866770414441824,0.2954779341284185
2024-12-07 18:26:45.997091300,4.49209130859375,0.9580448211997746,0.8862561807960271,-0.1771935000095516
2024-12-07 18:26:46.007065300,4.5020654296875,0.6196387957751751,0.8809054674178362,-0.6821746007956564
2024-12-07 18:26:46.017039400,4.512039306640625,0.0557499442726373,0.8920891247332096,-1.2168129540249704
2024-12-07 18:26:46.027013400,4.522013427734375,-0.6601444091647863,0.9152040428608657,-1.5429843517765405
2024-12-07 18:26:46.036987400,4.5319873046875,-1.3865958124518394,0.9366519045591354,-1.6902059804357588
2024-12-07 18:26:46.046961700,4.541961669921875,-2.175779858505725,0.8808896853268146,-1.7959385376259684
2024-12-07 18:26:46.056935700,4.551935791015625,-2.871341033488512,0.7676198644995689,-1.7027163563102483
2024-12-07 18:26:46.066909700,4.56190966796875,-3.435252096822857,0.605920067024231,-1.463069395801425
2024-12-07 18:26:46.076883700,4.5718837890625,-3.645240416648984,0.4502729937165975,-1.135351133934036
2024-12-07 18:26:46.086857000,4.58185693359375,-3.5038340501397847,0.1954156045943498,-0.9456911702569574
2024-12-07 18:26:46.096830700,4.591830810546875,-3.3462323356330392,0.0731108289182186,-0.885812528681755
2024-12-07 18:26:46.106804700,4.6018046875,-3.004194091185928,0.2408656886488199,-0.8323721765257418
2024-12-07 18:26:46.116778800,4.61177880859375,-2.518925187411904,0.6381108565330506,-0.8726381359405815
2024-12-07 18:26:46.126752800,4.621752685546875,-2.02153680677712,0.9574392565220594,-1.2874094620347023
2024-12-07 18:26:46.136726800,4.631726806640625,-1.2054283673100172,1.15684480753541,-2.0052317147947845
2024-12-07 18:26:46.146700800,4.64170068359375,-0.1682709925591945,1.1576865190565586,-3.03688172430098
2024-12-07 18:26:46.156674800,4.6516748046875,0.830206522924453,1.1713368587464092,-3.572634322382509
2024-12-07 18:26:46.166648800,4.66164892578125,1.9780226592212915,1.1534095723897215,-3.499517355984449
2024-12-07 18:26:46.176621800,4.671621826171875,2.999426146131754,1.0117068532824516,-3.413094041028619
2024-12-07 18:26:46.186595800,4.681595947265625,3.847854700575769,0.9962556016504764,-2.6841829696297643
2024-12-07 18:26:46.196569900,4.69156982421875,4.21820601631552,0.9575433014184236,-1.7438384941630063
2024-12-07 18:26:46.206544000,4.7015439453125,3.680395024399459,0.914962635320425,-0.7690901562478393
2024-12-07 18:26:46.216518000,4.711517822265625,2.5700799128487706,0.9118582395642996,0.2744188525520264
2024-12-07 18:26:46.226492000,4.721491943359375,1.29782038141191,0.6853752965331077,1.12939639024809
2024-12-07 18:26:46.236466000,4.7314658203125,0.5923696805775165,0.2900210569620132,1.598173008904606
2024-12-07 18:26:46.246440000,4.74143994140625,0.7311883686810732,-0.1404500886976719,1.7714910557202994
2024-12-07 18:26:46.256414000,4.7514140625,1.2185839092202484,-0.6408230381011962,1.584578344924748
2024-12-07 18:26:46.266387000,4.761386962890625,1.5183701350018382,-0.9471218606472016,1.4425864336125551
2024-12-07 18:26:46.276361000,4.77136083984375,1.6254548374533653,-1.1546470052301885,1.3469099910125135
2024-12-07 18:26:46.286335000,4.7813349609375,1.477865690656006,-1.4614379952073095,0.8975484130524098
2024-12-07 18:26:46.296309000,4.79130908203125,1.3129349484354256,-1.730975651589036,0.4480120630472898
2024-12-07 18:26:46.306283000,4.801282958984375,1.2383943789750338,-2.076265006786585,0.0316023220963776
2024-12-07 18:26:46.316257000,4.811257080078125,1.1507611037075518,-2.4500199934899807,-0.3960962901100516
2024-12-07 18:26:46.326231000,4.82123095703125,1.193639291447401,-2.7871967693805693,-0.8338705983899534
2024-12-07 18:26:46.336205000,4.831205078125,1.2609173225589096,-3.0654104841709136,-1.2697078011274336
2024-12-07 18:26:46.346178800,4.8411787109375,1.2532833205491305,-3.2255969544738528,-1.571344915472716
2024-12-07 18:26:46.356151800,4.85115185546875,1.1255673334792256,-3.251367355546355,-1.8050925888098777
2024-12-07 18:26:46.366125800,4.861125732421875,0.8534303082540631,-3.182193281555175,-2.025628460004925
2024-12-07 18:26:46.376099800,4.871099853515625,0.4308458241909742,-3.018393881452083,-2.0483762983858584
2024-12-07 18:26:46.386073900,4.881073974609375,-0.1636490318469703,-2.7361118943095204,-1.7555301010005175
2024-12-07 18:26:46.396048000,4.8910478515625,-0.7288553956888616,-2.4236855287939307,-1.138848839856684
2024-12-07 18:26:46.406022000,4.90102197265625,-1.265649904038757,-2.249046170246601,-0.7970234344426542
2024-12-07 18:26:46.415996000,4.910995849609375,-1.759730036908388,-2.0067560017526147,-0.5845711356557906
2024-12-07 18:26:46.425970000,4.920969970703125,-2.250368358761072,-1.670144458529353,-0.5136098859868944
2024-12-07 18:26:46.435944000,4.93094384765625,-2.490146252173185,-1.193644552144408,-0.4158467002406716
2024-12-07 18:26:46.445917000,4.9409169921875,-2.522413029527664,-0.5053384628564119,-0.0723890905149281
2024-12-07 18:26:46.455891000,4.950890869140625,-2.3698199369631707,0.3410100704431533,0.646058600667119
2024-12-07 18:26:46.465865000,4.960864990234375,-2.408509586971998,1.290114044818282,1.6580132912307977
2024-12-07 18:26:46.475839000,4.9708388671875,-2.8011487223654985,2.2380659265488383,2.7167794173300264
2024-12-07 18:26:46.485813000,4.98081298828125,-3.0386843898087736,2.979617283812165,3.2249569030046463
2024-12-07 18:26:46.495787000,4.990787109375,-2.402224807614088,3.4467794530093667,2.714258958941698
2024-12-07 18:26:46.505761000,5.000760986328125,-0.6016156478285789,3.662657999917865,1.3977142955765127
2024-12-07 18:26:46.515734800,5.01073486328125,1.5987340037882327,3.627027299088239,0.243437292702496
2024-12-07 18:26:46.525708800,5.020708740234375,2.6374153732359407,2.919746460217237,-0.681788743283227
2024-12-07 18:26:46.535682000,5.03068212890625,1.9804788202017545,1.819362375572324,-1.585056191569567
2024-12-07 18:26:46.545656000,5.040656005859375,0.8698311156958342,0.9273983385235072,-2.6861279662176965
2024-12-07 18:26:46.555630000,5.050630126953125,-0.3476747890293598,0.2337520572513342,-3.194743258787692
2024-12-07 18:26:46.565604000,5.06060400390625,-1.244413785395026,-0.3114028676867484,-2.211300376959145
2024-12-07 18:26:46.575577900,5.070577880859375,-1.1731577905632555,-0.8290104450076818,-0.4440330764137208
2024-12-07 18:26:46.585552000,5.0805517578125,-0.154090491515398,-1.4367127192735671,0.9389587932620196
2024-12-07 18:26:46.595526000,5.09052587890625,1.2035861004441977,-2.0403788698911667,1.1026690537769346
2024-12-07 18:26:46.605500000,5.1005,1.6164648907899857,-2.283261159059405,0.0562639582093805
2024-12-07 18:26:46.615474000,5.110473876953125,0.9319266296029092,-1.9329770643144848,-1.0209924218915405
2024-12-07 18:26:46.625447000,5.120447021484375,0.1297888478212058,-0.9126087656706572,-1.712348400269449
2024-12-07 18:26:46.635420700,5.130420654296875,-0.215686969859153,0.3045253831326961,-2.231387325567752
2024-12-07 18:26:46.645394700,5.140394775390625,-0.0199934981714934,1.26801794834435,-2.23624484860152
2024-12-07 18:26:46.655368700,5.15036865234375,0.3495142794162035,1.7861282144904136,-1.579774890165776
2024-12-07 18:26:46.665342700,5.1603427734375,0.6012200726397335,1.7809703933358192,-0.5671006531558931
2024-12-07 18:26:46.675316700,5.170316650390625,0.7452397634524851,1.4398305590331553,0.4032468194518238
2024-12-07 18:26:46.685290800,5.180290771484375,0.8627275673009455,0.980484032022953,0.9106780898690224
2024-12-07 18:26:46.695264800,5.1902646484375,1.15411457885392,0.5679056859284639,1.088667124170437
2024-12-07 18:26:46.705238800,5.20023876953125,1.6005390073835848,0.3249310423016548,1.2693126643300057
2024-12-07 18:26:46.715211800,5.210211669921875,1.8215730373591184,0.2699322086572647,1.3927011435896155
2024-12-07 18:26:46.725185800,5.220185791015625,1.6198206309586762,0.4217699528098106,1.3703233075648544
2024-12-07 18:26:46.735159800,5.230159912109375,1.2696008336216211,0.5385311228841543,1.178874341579154
2024-12-07 18:26:46.745133800,5.2401337890625,1.0398292973738164,0.5311112020164728,0.8880223136857152
2024-12-07 18:26:46.755107800,5.25010791015625,0.8539286131650209,0.4500578896611928,0.5737833823228254
2024-12-07 18:26:46.765081900,5.260081787109375,0.4512117358714342,0.4129565317571163,0.2835663278646766
2024-12-07 18:26:46.775056000,5.270055908203125,0.1803524754971265,0.4139829521954059,0.1296698976166546
2024-12-07 18:26:46.785030000,5.28002978515625,0.2321341006606817,0.4051823906242847,0.0361767173398286
2024-12-07 18:26:46.795004000,5.29000390625,0.4163946164470166,0.2867956651747226,-0.027100845958665
2024-12-07 18:26:46.804977000,5.299976806640625,0.7096786207277327,0.1173877775400877,-0.044402730426006
2024-12-07 18:26:46.814951000,5.309950927734375,0.9420493796885012,-0.0842331114351749,0.0132762456804513
2024-12-07 18:26:46.824925000,5.319925048828125,0.8534866415511816,-0.2563251235872507,0.0646964901857078
2024-12-07 18:26:46.834899000,5.32989892578125,0.5819757123351097,-0.3964174848884343,0.167344415766187
2024-12-07 18:26:46.844873000,5.339873046875,0.3365256185054779,-0.4337812931209802,0.2627013806208968
2024-12-07 18:26:46.854847000,5.349846923828125,0.1443722305774688,-0.3615758886098861,0.3633800154224038
2024-12-07 18:26:46.864821000,5.359821044921875,-0.045890229037404,-0.2553887195199728,0.474557759341225
2024-12-07 18:26:46.874795000,5.369794921875,-0.3831137301465496,-0.1972124248832464,0.6675513974856585
2024-12-07 18:26:46.884769000,5.37976904296875,-0.5937813009411096,-0.1531353827476501,0.9233340116940438
2024-12-07 18:26:46.894741800,5.38974169921875,-0.6038485214471817,-0.1946802760571241,1.1287542929522691
2024-12-07 18:26:46.904715800,5.3997158203125,-0.4685813883453607,-0.2998977233320474,1.2864638517476616
2024-12-07 18:26:46.914689800,5.409689697265625,-0.2352694760769605,-0.4151303686648607,1.3620263116016984
2024-12-07 18:26:46.924663800,5.419663818359375,0.0228922152876853,-0.5569195970118046,1.305754097020626
2024-12-07 18:26:46.934637800,5.429637939453125,0.2708498897577636,-0.6639870560675859,1.2618201166175305
2024-12-07 18:26:46.944611800,5.43961181640625,0.5148229150384664,-0.7984832047969103,1.1646654912237078
2024-12-07 18:26:46.954585900,5.4495859375,0.5073755216419696,-0.9142191234767436,0.9350329981204122
2024-12-07 18:26:46.964560000,5.459559814453125,0.3985287779539823,-0.7912801415503025,0.6622531449470669
2024-12-07 18:26:46.974534000,5.469533935546875,0.1115197805558331,-0.4150228166371583,0.3606253098867833
2024-12-07 18:26:46.984507000,5.4795068359375,-0.3341933761656284,-0.0188707046866416,0.1064952851910144
2024-12-07 18:26:46.994481000,5.48948095703125,-0.716100689664483,0.2408341244667768,-0.0427587991438806
2024-12-07 18:26:47.004455000,5.499454833984375,-0.931699250587821,0.2898953847557306,-0.0524664016904775
2024-12-07 18:26:47.014429000,5.509428955078125,-1.041089015111327,0.2110942352414131,0.1190676843178924
2024-12-07 18:26:47.024403000,5.51940283203125,-1.0663672487527132,0.0710369452536106,0.3450612820627167
2024-12-07 18:26:47.034377000,5.529376953125,-1.128854392325878,-0.043033086040616,0.5121106604050845
2024-12-07 18:26:47.044350500,5.5393505859375,-1.172706393533945,-0.015154899033904,0.6702952893663198
2024-12-07 18:26:47.054324500,5.549324462890625,-1.0974076991826296,0.2338070023089647,0.8014378168188036
2024-12-07 18:26:47.064297500,5.55929736328125,-0.8396972587168217,0.6809153945147991,0.9274246420085428
2024-12-07 18:26:47.074271500,5.569271484375,-0.4516273309350013,1.174843405562639,1.0238909198120236
2024-12-07 18:26:47.084245500,5.57924560546875,-0.1221463519777171,1.5523206276595591,1.0812755526144058
2024-12-07 18:26:47.094219500,5.589219482421875,-0.0319505510121583,1.6210796911090612,1.1076674465861172
2024-12-07 18:26:47.104193500,5.599193603515625,-0.1363344700723886,1.489809518688917,1.1198284245010466
2024-12-07 18:26:47.114167600,5.60916748046875,-0.3774123401671648,1.2079255909532307,1.0670557424735276
2024-12-07 18:26:47.124141600,5.6191416015625,-0.5062292742162943,0.8209206620544195,1.0369837717495858
2024-12-07 18:26:47.134115600,5.629115478515625,-0.4631722227782011,0.4777238952219486,1.1037176860470324
2024-12-07 18:26:47.144089300,5.63908935546875,-0.3370803297787904,-0.118345808917284,1.266736091840267
2024-12-07 18:26:47.154063400,5.6490634765625,-0.1065636377194896,-0.7664490671545267,1.4572007960289717
2024-12-07 18:26:47.164036400,5.659036376953125,0.2148714156925678,-1.2764011612862347,1.5568421967372297
2024-12-07 18:26:47.174010400,5.66901025390625,0.4385030609458684,-1.5156372029066083,1.5661767190545797
2024-12-07 18:26:47.183984400,5.678984375,0.3212895074615254,-1.4847265163362025,1.496722512947768
2024-12-07 18:26:47.193958400,5.68895849609375,-0.0114846495559439,-1.182223578941822,1.3267720428690313
2024-12-07 18:26:47.203932200,5.69893212890625,-0.4253138724943622,-0.6665162822842597,1.0248114687230436
2024-12-07 18:26:47.213906200,5.70890625,-0.8433844227969646,-0.161768771058321,0.6561429915037006
2024-12-07 18:26:47.223880200,5.718880126953125,-1.2143027247697114,0.317709274354577,0.2176389259108342
2024-12-07 18:26:47.233854200,5.728854248046875,-1.5014111091554163,0.6877268280953168,-0.2819387083965353
2024-12-07 18:26:47.243827500,5.738827392578125,-1.7622399739027022,0.9998165090024472,-0.8007036573253572
2024-12-07 18:26:47.253801500,5.748801513671875,-1.98938342666924,1.2629080579847096,-1.3384985748894511
2024-12-07 18:26:47.263775200,5.758775146484375,-2.13520819414258,1.4944436082303525,-1.8631842739030715
2024-12-07 18:26:47.273749200,5.768749267578125,-2.231172075381875,1.697228280287981,-2.140643224803358
2024-12-07 18:26:47.283723300,5.77872314453125,-2.3676655354082583,1.875492843595147,-2.1860421631924805
2024-12-07 18:26:47.293697300,5.788697265625,-2.40658592543304,2.119228534722328,-2.0518600488483902
2024-12-07 18:26:47.303671300,5.79867138671875,-2.0845798306673764,2.318017415142059,-1.920777361824363
2024-12-07 18:26:47.313645300,5.808645263671875,-1.420581522553414,2.345876897448301,-1.84814715602994
2024-12-07 18:26:47.323619300,5.818619384765625,-0.4008160121083259,2.328285711178184,-1.7495047032311557
2024-12-07 18:26:47.333592300,5.82859228515625,0.9272761734485626,2.167058207389712,-1.393616504868865
2024-12-07 18:26:47.343566300,5.83856640625,2.197278427477926,1.855473553395271,-0.6886708309471606
2024-12-07 18:26:47.353540400,5.848540283203125,3.1058301728427407,1.4626128842055797,0.2436936055511236
2024-12-07 18:26:47.363514400,5.858514404296875,3.222020265030861,0.9760790750622748,0.9714227006237952
2024-12-07 18:26:47.373488400,5.86848828125,2.407725889248401,0.5253326186150312,1.3195502749219536
2024-12-07 18:26:47.383462400,5.87846240234375,1.1193431982673705,0.2587351073384284,1.4975038725838064
2024-12-07 18:26:47.393436400,5.8884365234375,0.0676959642626345,0.1855319239616394,1.1467053255107251
2024-12-07 18:26:47.403410400,5.898410400390625,-0.3484691542774438,0.1134440083503723,0.0655958501782268
2024-12-07 18:26:47.413384400,5.908384521484375,-0.059868485507369,-0.1963566848367452,-1.3458335939526558
2024-12-07 18:26:47.423357200,5.918357177734375,0.2213017410010099,-0.5295072739511728,-2.3894486204102634
2024-12-07 18:26:47.433331200,5.928331298828125,0.2596545602709055,-0.7799825024664402,-2.8812393271684646
2024-12-07 18:26:47.443305200,5.93830517578125,0.2274655243277549,-1.0729109713077545,-2.931796378973126
2024-12-07 18:26:47.453279200,5.948279296875,0.2378871112294495,-1.4641536839067937,-2.9281790652588007
2024-12-07 18:26:47.463253200,5.958253173828125,0.2683705122984945,-1.847519379520416,-2.833604884812236
2024-12-07 18:26:47.473227300,5.968227294921875,0.40131650897637,-2.149267114633321,-2.603125565621257
2024-12-07 18:26:47.483201300,5.978201171875,0.6748182466834783,-2.391939560443163,-2.344637418781221
2024-12-07 18:26:47.493175300,5.98817529296875,1.0647228425465525,-2.566196057152748,-1.9845432931616904
2024-12-07 18:26:47.503149300,5.9981494140625,1.3959744661718607,-2.6091426339536903,-1.5699217508018015
2024-12-07 18:26:47.513122300,6.008122314453125,1.5647446404248475,-2.593881936457753,-1.2140626324035226
2024-12-07 18:26:47.523096300,6.018096435546875,1.4848342144943774,-2.5455530820965766,-0.9758047151003032
2024-12-07 18:26:47.533070300,6.0280703125,1.1553947548575698,-2.5342829155415294,-1.0048319990769028
2024-12-07 18:26:47.543044400,6.03804443359375,0.818184661219269,-2.5312790575504303,-1.207312573621422
2024-12-07 18:26:47.553018400,6.048018310546875,0.5674282776750624,-2.590852359503508,-1.5767168177694082
2024-12-07 18:26:47.562992400,6.057992431640625,0.3787978031761944,-2.6492402510643003,-1.690494441988319
2024-12-07 18:26:47.572966400,6.06796630859375,0.0694821170270443,-2.58247382273674,-1.505936185364425
2024-12-07 18:26:47.582940400,6.0779404296875,-0.544099716796726,-2.343451131606102,-1.0913472300998863
2024-12-07 18:26:47.592914400,6.08791455078125,-1.38312550599277,-1.937504186350107,-0.4372179895713925
2024-12-07 18:26:47.602887400,6.097887451171875,-2.5028332997888327,-1.3342296653985977,0.4624450775474309
2024-12-07 18:26:47.612861400,6.107861328125,-3.688172964924574,-0.6199982767373323,1.3872810182370243
2024-12-07 18:26:47.622835500,6.11783544921875,-4.3674400077104565,0.0799497350275516,2.2931842949196697
2024-12-07 18:26:47.632809500,6.1278095703125,-4.280610450041294,0.6334960562139749,3.062482029503584
2024-12-07 18:26:47.642783500,6.137783447265625,-3.3619033674955365,1.1896101820617913,3.763978439754247
2024-12-07 18:26:47.652757500,6.147757568359375,-1.8513712326429783,1.851754825133085,4.393577780790626
2024-12-07 18:26:47.662731500,6.1577314453125,0.0733446376740932,2.403276947015524,4.705218256625533
2024-12-07 18:26:47.672705500,6.16770556640625,1.805626111164689,3.0013498076707124,4.093995991539955
2024-12-07 18:26:47.682679300,6.17767919921875,2.4308938527375457,3.4955239024341105,2.3261158197931944
2024-12-07 18:26:47.692652500,6.187652587890625,2.0401924074083566,3.540099541741609,0.6860590410135686
2024-12-07 18:26:47.702626300,6.197626220703125,1.0773322948813435,3.467354039004445,0.10299962509498
2024-12-07 18:26:47.712600300,6.207600341796875,0.3855162247110158,2.464775664073229,-0.455443674352765
2024-12-07 18:26:47.722574300,6.21757421875,-0.1817114158254116,0.908153539827466,-1.4239499760732053
2024-12-07 18:26:47.732548400,6.22754833984375,-1.0030956768035888,-0.247892810806632,-2.2934750945597884
2024-12-07 18:26:47.742522000,6.237522216796875,-1.3569441860318183,-1.132722758191824,-2.576033852817118
2024-12-07 18:26:47.752496000,6.24749609375,-1.0156722497820854,-1.6052040765851736,-1.93783561026156
2024-12-07 18:26:47.762470100,6.25747021484375,-0.3995661581777036,-1.6975106043606996,-0.9195469674360006
2024-12-07 18:26:47.772443400,6.267443359375,0.4164555528540164,-1.524742884904146,-0.0736632021039724
2024-12-07 18:26:47.782417400,6.27741748046875,1.0937678813755511,-1.3338964879214763,0.3833206143628805
2024-12-07 18:26:47.792391400,6.287391357421875,1.3530138608455655,-1.3929904819250103,0.3612172844305634
2024-12-07 18:26:47.802365200,6.297365234375,1.2380816597640514,-1.4130372446537016,-0.0539007362093776
2024-12-07 18:26:47.812339200,6.307339111328125,1.125303421846032,-0.8902724307000637,-0.7702733016178012
2024-12-07 18:26:47.822313200,6.317313232421875,1.2122709266811609,-0.1067962408989667,-1.4186148986555636
2024-12-07 18:26:47.832287200,6.327287353515625,1.2878287103600798,0.5463204615861177,-1.804482786348462
2024-12-07 18:26:47.842261200,6.33726123046875,1.16807171947062,0.7788713263541459,-2.0859932045966385
2024-12-07 18:26:47.852235300,6.3472353515625,0.8005927442967892,0.6398042164474725,-2.1805285143375395
2024-12-07 18:26:47.862208300,6.357208251953125,0.3371189082235097,0.3694546591609716,-1.9745717881150544
2024-12-07 18:26:47.872182300,6.367182373046875,-0.1320096656758338,0.0868459242820739,-1.5176256002448498
2024-12-07 18:26:47.882156300,6.37715625,-0.2223890247810631,-0.0253197346955537,-0.8923628271080553
2024-12-07 18:26:47.892130300,6.38713037109375,0.2298351760685443,0.0479945078402757,-0.2205631975933909
2024-12-07 18:26:47.902104300,6.397104248046875,0.9936837053358554,0.2675502819567918,0.3145931150954216
2024-12-07 18:26:47.912078300,6.407078369140625,1.5433657523095607,0.4872580317646264,0.6065675711475312
2024-12-07 18:26:47.922052400,6.41705224609375,1.7670237010478973,0.604045505324006,0.7758713408205657
2024-12-07 18:26:47.932026400,6.4270263671875,1.5942214947998523,0.6335995165884495,0.8293139579989015
2024-12-07 18:26:47.942000400,6.43700048828125,1.1370014584243298,0.576838933968544,0.6876691065587103
2024-12-07 18:26:47.951973400,6.446973388671875,0.633574382147193,0.5289946482539176,0.4518897081982344
2024-12-07 18:26:47.961947400,6.456947509765625,0.1710604040820151,0.5099129311650991,0.1886609427023678
2024-12-07 18:26:47.971921400,6.46692138671875,-0.2255623210549354,0.5768401030123234,-0.1307256172146648
2024-12-07 18:26:47.981895400,6.4768955078125,-0.2446989101361483,0.6413350792765617,-0.3554822479099035
2024-12-07 18:26:47.991869400,6.486869384765625,0.1658411350637674,0.6847896055996417,-0.4031883672628552
2024-12-07 18:26:48.001843500,6.496843505859375,0.7061023696761578,0.6829974614858627,-0.2098606748584657
2024-12-07 18:26:48.011817500,6.5068173828125,1.190604380730912,0.5375076250553131,0.2042153624478727
2024-12-07 18:26:48.021791500,6.51679150390625,1.6013228512376545,0.2987520604282617,0.7238074646495283
2024-12-07 18:26:48.031765500,6.526765625,1.753122016945481,0.0777104316681623,1.108970857334882
2024-12-07 18:26:48.041738200,6.53673828125,1.6064818414360285,-0.1384825880169868,1.21672330298014
2024-12-07 18:26:48.051712500,6.54671240234375,1.3236533263266086,-0.3242003899395466,1.1468613928552716
2024-12-07 18:26:48.061686500,6.5566865234375,1.026935986596346,-0.3828419640004634,0.9693404144570232
2024-12-07 18:26:48.071660500,6.56666064453125,0.670984367609024,-0.4362877229839563,0.6586546820636838
2024-12-07 18:26:48.081634600,6.576634521484375,0.2707751257548108,-0.5885509990721941,0.1926385410964488
2024-12-07 18:26:48.091608600,6.586608642578125,-0.0507265266200527,-0.6660521719038486,-0.2111049027658998
2024-12-07 18:26:48.101582600,6.59658251953125,-0.2054179066380485,-0.6286310805261135,-0.4699470506753772
2024-12-07 18:26:48.111556600,6.606556640625,-0.0743126059234142,-0.4559299965649843,-0.54413646861054
2024-12-07 18:26:48.121529600,6.616529541015625,0.1254126968299038,-0.2562263393878937,-0.4418156926251947
2024-12-07 18:26:48.131503600,6.626503662109375,0.2900783583735116,-0.0675724840134382,-0.2346892650362104
2024-12-07 18:26:48.141477600,6.6364775390625,0.3097153529912233,0.0610690934687852,0.0331300431203097
2024-12-07 18:26:48.151451600,6.64645166015625,0.1360229290383402,0.0824479815840721,0.3715902829501777
2024-12-07 18:26:48.161425700,6.65642578125,-0.1135083057582378,0.0872796395242214,0.6816945621937512
2024-12-07 18:26:48.171399700,6.666399658203125,-0.3790793965965509,0.0463870726436376,1.0209748862348496
2024-12-07 18:26:48.181373700,6.676373779296875,-0.6208160228610038,0.0027086744368076,1.079344219225645
2024-12-07 18:26:48.191347700,6.68634765625,-0.7579466117471456,-0.0122188455820083,0.9935564256943762
2024-12-07 18:26:48.201321700,6.69632177734375,-0.7759890489161014,0.0324216756552457,0.8504745271883905
2024-12-07 18:26:48.211294700,6.706294677734375,-0.7910381494879722,0.0421744233846664,0.7202404198177158
2024-12-07 18:26:48.221268700,6.716268798828125,-0.9867103591918944,-0.0141343238145112,0.5901120013112202
2024-12-07 18:26:48.231242800,6.72624267578125,-1.2104045482873915,-0.0332610490888357,0.5911146024825051
2024-12-07 18:26:48.241216800,6.736216796875,-1.302639764392376,0.0231435597002506,0.7068117600545287
2024-12-07 18:26:48.251190800,6.746190673828125,-1.2625684507668018,0.0225368259787559,0.766897979965806
2024-12-07 18:26:48.261164500,6.75616455078125,-1.1611398743808268,-0.019213234513998,0.6674797204889357
2024-12-07 18:26:48.271138600,6.766138671875,-1.133534074574709,-0.1922217769891023,0.4386261028036475
2024-12-07 18:26:48.281112600,6.776112548828125,-1.122375551700592,-0.2725157954096794,0.2614536455821246
2024-12-07 18:26:48.291085600,6.78608544921875,-1.1068868906676768,-0.1660053857147693,0.1812995470888912
2024-12-07 18:26:48.301059600,6.7960595703125,-1.1031786837995052,0.1154594398260116,0.2715693814050406
2024-12-07 18:26:48.311033600,6.80603369140625,-1.046014781075716,0.5227636449098587,0.4877124975338578
2024-12-07 18:26:48.321007600,6.816007568359375,-0.8778899189889431,0.8603302969008684,0.856472817755118
2024-12-07 18:26:48.330981400,6.8259814453125,-0.6448480558335781,1.0330366415590049,1.2851853562444449
2024-12-07 18:26:48.340955400,6.835955322265625,-0.420775096553564,0.863921014869213,1.6547607191756366
2024-12-07 18:26:48.350929400,6.845929443359375,-0.1931862381070852,0.5852502039611339,1.9105119883976875
2024-12-07 18:26:48.360903400,6.8559033203125,-0.0390308646619319,0.3997837464511394,2.110197963787616
2024-12-07 18:26:48.370877400,6.86587744140625,0.1101075574040412,0.3607645722270011,2.203261593540758
2024-12-07 18:26:48.380850400,6.875850341796875,0.2144137350529432,0.391397610899806,2.231537693823874
2024-12-07 18:26:48.390824400,6.885824462890625,0.1844102081890218,0.431828990009427,2.094466433909535
2024-12-07 18:26:48.400798500,6.895798583984375,0.0569517212778329,0.4674731348425149,1.941498370552808
2024-12-07 18:26:48.410772500,6.9057724609375,-0.0446551160181872,0.2907417724519968,1.7438358638145028
2024-12-07 18:26:48.420746500,6.91574658203125,-0.0678395922507159,0.161945881190896,1.4241001981988548
2024-12-07 18:26:48.430720500,6.925720458984375,-0.1989601818660274,0.0899865603953599,1.002827162060514
2024-12-07 18:26:48.440694500,6.935694580078125,-0.4422907627910375,0.2182721640467643,0.5935190332757309
2024-12-07 18:26:48.450668500,6.94566845703125,-0.870581057280302,0.4785281973421573,0.2276174269538372
2024-12-07 18:26:48.460641500,6.9556416015625,-1.6650322300821545,0.789056035760045,-0.077310399499908
2024-12-07 18:26:48.470615600,6.965615478515625,-2.931048190954328,1.0624755020111798,-0.2570656032236292
2024-12-07 18:26:48.480589600,6.975589599609375,-3.993807186082005,1.355818396872282,-0.4640916391780599
2024-12-07 18:26:48.490563600,6.9855634765625,-3.7605806140094993,1.4219874438285829,-1.0331883980546146
2024-12-07 18:26:48.500537600,6.99553759765625,-2.896212439894676,1.3478215528994797,-1.6503107540294526
2024-12-07 18:26:48.510511600,7.00551171875,-2.118297245221585,1.3509867389321326,-2.32296261645928
2024-12-07 18:26:48.520485600,7.015485595703125,-1.6400199539005755,1.4854431401729582,-2.6519074244469403
2024-12-07 18:26:48.530459600,7.025459716796875,-1.5628759239435197,1.5977216118752957,-2.932956362663209
2024-12-07 18:26:48.540433700,7.03543359375,-1.652193791297078,1.493276902538538,-3.3316099360406395
2024-12-07 18:26:48.550406700,7.04540673828125,-1.1517961458437145,1.3793272827535867,-3.524680438813567
2024-12-07 18:26:48.560380700,7.055380615234375,-0.0420323845654726,1.3164017477631569,-3.2703654860049483
2024-12-07 18:26:48.570354700,7.065354736328125,1.4424351885735989,1.3329080614060165,-2.133318727134168
2024-12-07 18:26:48.580328700,7.07532861328125,2.5144337212115526,1.3347785314530134,-0.8398208850964903
2024-12-07 18:26:48.590302700,7.085302734375,3.343010450977087,1.2876052768677473,0.2094962985254824
2024-12-07 18:26:48.600276700,7.09527685546875,3.8540076702475545,0.9179927967965602,0.9847403742931784
2024-12-07 18:26:48.610250800,7.105250732421875,3.716460317254066,0.2838730557262897,1.8271552214056253
2024-12-07 18:26:48.620224800,7.115224853515625,2.908169419670105,-0.3255547271579503,2.499981125228107
2024-12-07 18:26:48.630198500,7.125198486328125,1.5704817227721213,-0.5954226384073495,2.764252531644702
2024-12-07 18:26:48.640171500,7.135171630859375,0.0467057832039892,-0.5652595553338527,2.486941318652033
2024-12-07 18:26:48.650145500,7.1451455078125,-0.9337491688549518,-0.5561357531577349,1.7678871860094367
2024-12-07 18:26:48.660119600,7.15511962890625,-0.9262415697038172,-0.7287339612662792,0.9633130439262836
2024-12-07 18:26:48.670093600,7.165093505859375,-0.0184396197929978,-1.0115858572512864,0.2778450276084244
2024-12-07 18:26:48.680067600,7.175067626953125,1.0752630873918532,-1.387810448938608,-0.3286984320111573
2024-12-07 18:26:48.690041600,7.18504150390625,1.6887299165338276,-1.7776064698606728,-0.8987938830688595
2024-12-07 18:26:48.700015600,7.195015625,1.590426778692007,-2.1020085198521614,-1.3839553809456526
2024-12-07 18:26:48.709989600,7.20498974609375,1.0972741359308362,-2.275035182505846,-1.631960712216049
2024-12-07 18:26:48.719962600,7.214962646484375,0.5215946011304855,-2.249592698213458,-1.877056878041476
2024-12-07 18:26:48.729936600,7.2249365234375,0.1967810477286577,-2.102572583475709,-2.067249048899114
2024-12-07 18:26:48.739910700,7.23491064453125,0.1213520049959421,-1.849342503294349,-2.1465974570326507
2024-12-07 18:26:48.749884700,7.244884765625,0.2826478978455066,-1.5863561682522296,-2.107786080340296
2024-12-07 18:26:48.759858700,7.254858642578125,0.6339093131899833,-1.4146458488941192,-1.958692958720773
2024-12-07 18:26:48.769832700,7.264832763671875,0.9123574212580918,-1.3480050927728413,-1.7420432813093063
2024-12-07 18:26:48.779806700,7.274806640625,0.9675795422643424,-1.29895786100924,-1.584251597188413
2024-12-07 18:26:48.789780700,7.28478076171875,0.759092859172821,-1.2277286080539225,-1.39737921840325
2024-12-07 18:26:48.799754500,7.29475439453125,0.4309622901774942,-1.147000874391198,-1.3165440788432956
2024-12-07 18:26:48.809727700,7.304727783203125,0.1608709454357623,-1.1671031666994094,-1.2538783638328312
2024-12-07 18:26:48.819701800,7.31470166015625,-0.2212659390352666,-1.3195230946540832,-1.1802217376001178
2024-12-07 18:26:48.829675800,7.32467578125,-0.6759621560215949,-1.6136393119752406,-1.2630286156244577
2024-12-07 18:26:48.839649800,7.33464990234375,-1.073457499274611,-1.7989163843929767,-1.140148085886985
2024-12-07 18:26:48.849623800,7.344623779296875,-1.3318489077419042,-1.7739800960570573,-0.7626683795720338
2024-12-07 18:26:48.859597600,7.35459765625,-1.486814428526163,-1.6199942339599132,-0.3980516619615256
2024-12-07 18:26:48.869571600,7.364571533203125,-1.5500028522364795,-1.3842255761891602,0.1464180571913719
2024-12-07 18:26:48.879545600,7.374545654296875,-1.74644794600904,-1.029330188256502,0.906656725398451
2024-12-07 18:26:48.889518600,7.3845185546875,-2.0770621485136447,-0.6432733538627624,1.5836657601244746
2024-12-07 18:26:48.899492600,7.39449267578125,-2.453819970294833,-0.2790688703149557,2.135121392641961
2024-12-07 18:26:48.909466600,7.404466552734375,-2.703805369466543,0.1065524952709674,2.400057108186185
2024-12-07 18:26:48.919440400,7.4144404296875,-2.752339975532889,0.5660106659621,2.1952231023833155
2024-12-07 18:26:48.929414400,7.424414306640625,-2.880710334858298,1.0979267546206712,1.4666615750744938
2024-12-07 18:26:48.939388400,7.434388427734375,-3.3769752644211053,1.7019290053248404,0.9694454822666942
2024-12-07 18:26:48.949362400,7.444362548828125,-3.603147241806984,2.382624035087228,0.9599722821310162
2024-12-07 18:26:48.959336400,7.45433642578125,-2.65276608710289,2.807328872305155,1.080038412034884
2024-12-07 18:26:48.969310500,7.464310546875,-0.7966485367156565,2.826388377562165,0.6374157869409769
2024-12-07 18:26:48.979283500,7.474283447265625,0.8659370308667421,2.521228788179159,-0.4152344135612249
2024-12-07 18:26:48.989257500,7.484257568359375,2.078243467252701,2.0577292331427333,-1.4272764901474118
2024-12-07 18:26:48.999231500,7.4942314453125,2.5855466543108223,1.2771014185100793,-1.963486914999038
2024-12-07 18:26:49.009205500,7.50420556640625,2.5567040061861275,0.1048842697978019,-2.419679215762019
2024-12-07 18:26:49.019179500,7.514179443359375,1.944652889060974,-0.9404021970033644,-3.0361832206428048
2024-12-07 18:26:49.029153500,7.524153564453125,0.5715202231638133,-1.362156952244043,-3.2624954832822084
2024-12-07 18:26:49.039127600,7.53412744140625,-1.064702968802303,-1.1625000568181276,-2.265171814008802
2024-12-07 18:26:49.049101300,7.544101318359375,-1.2973882736049591,-0.7601859151065349,-0.5549990042127668
2024-12-07 18:26:49.059074300,7.55407421875,0.08830087233074,-0.4011655561983585,0.6932331704266369
2024-12-07 18:26:49.069048300,7.56404833984375,1.656266009172052,-0.1550479383707046,1.213776508938521
2024-12-07 18:26:49.079022300,7.574022216796875,2.609353646355867,-0.1703998212814331,1.0230435092024504
2024-12-07 18:26:49.088996400,7.583996337890625,2.655591081395745,-0.2028694277316331,0.6646130790114403
2024-12-07 18:26:49.098970400,7.593970458984375,2.37592482970953,-0.0360959802538156,0.3223150876495987
2024-12-07 18:26:49.108944400,7.6039443359375,2.1030700116038323,0.2258756247878074,-0.0546510431200265
2024-12-07 18:26:49.118918400,7.61391845703125,1.840772243347764,0.5921311956465244,-0.4473370863951742
2024-12-07 18:26:49.128892400,7.623892333984375,1.4949761076718568,0.9753770642727612,-0.9040686086013912
2024-12-07 18:26:49.138866400,7.633866455078125,1.100606056832522,1.228557460093498,-1.4017036574736237
2024-12-07 18:26:49.148839400,7.64383935546875,0.8878585014261304,1.3385790927797556,-1.7419347063682973
2024-12-07 18:26:49.158813400,7.6538134765625,0.7018407667089254,1.2109089906781911,-1.8434969921365376
2024-12-07 18:26:49.168787500,7.663787353515625,0.4598785149950534,0.9787988554149866,-1.5648130294859408
2024-12-07 18:26:49.178761500,7.673761474609375,0.2672182735234499,0.629519553798437,-0.9352250135611744
2024-12-07 18:26:49.188735500,7.683735595703125,0.3575269785452634,0.3129436673879623,-0.1919590343996882
2024-12-07 18:26:49.198709500,7.69370947265625,0.6803946585763245,0.1336602824270725,0.3001183072801679
2024-12-07 18:26:49.208683500,7.70368359375,1.2101795073598622,0.0111906715780496,0.5142313788861036
2024-12-07 18:26:49.218657500,7.713657470703125,1.521113588491082,0.0025765724897384,0.5869864531692117
2024-12-07 18:26:49.228630500,7.723630615234375,1.5344704981923103,0.11669336553514,0.6250247265972196
2024-12-07 18:26:49.238604500,7.7336044921875,1.2703455145090818,0.3085065617233514,0.7495304463837296
2024-12-07 18:26:49.248578600,7.74357861328125,1.0409013835847378,0.4953039755761623,0.9752283765170724
2024-12-07 18:26:49.258552600,7.753552490234375,0.7101684500712901,0.5781418332606554,1.0892476274721323
2024-12-07 18:26:49.268526600,7.763526611328125,0.2964811928868293,0.4603595034450292,1.1095872356675565
2024-12-07 18:26:49.278500600,7.77350048828125,0.2118336554318666,0.2422352234363556,1.1603607067018746
2024-12-07 18:26:49.288474600,7.783474609375,0.4563456281611696,-0.0162941321969032,1.2713716426864266
2024-12-07 18:26:49.298448600,7.79344873046875,0.6900117241621017,-0.3347831587523222,1.220074074712768
2024-12-07 18:26:49.308422700,7.803422607421875,0.7651070048958063,-0.5339338582217693,0.9669027389813214
2024-12-07 18:26:49.318395400,7.8133955078125,0.7761299186915159,-0.5541840345680713,0.7275204938232899
2024-12-07 18:26:49.328369400,7.823369384765625,0.639497342455387,-0.5432791941940784,0.4855328154072165
2024-12-07 18:26:49.338343400,7.833343505859375,0.3954220441102981,-0.4842418988138437,0.2156049175988882
2024-12-07 18:26:49.348317400,7.8433173828125,0.09432842552457,-0.3787386203348636,0.0261379922758787
2024-12-07 18:26:49.358291500,7.85329150390625,-0.1054167692393064,-0.2418570377737283,-0.0568563711445778
2024-12-07 18:26:49.368265500,7.863265380859375,-0.2291167986661195,-0.2028220814585685,-0.206874352524057
2024-12-07 18:26:49.378239500,7.873239501953125,-0.2393307341665029,-0.2540186002105474,-0.3134367116019129
2024-12-07 18:26:49.388213500,7.883213623046875,-0.1182289045393466,-0.3549246140271425,-0.3688155575398355
2024-12-07 18:26:49.398186500,7.8931865234375,0.0457534691815264,-0.4369546624600887,-0.4149234479159116
2024-12-07 18:26:49.408160500,7.903160400390625,0.139895961946249,-0.5229577061772346,-0.4710886949911713
2024-12-07 18:26:49.418134500,7.913134521484375,0.0614788250471465,-0.5437362903118134,-0.5368635549981147
2024-12-07 18:26:49.431225600,7.9262255859375,-0.2065834798187017,-0.2694189984381199,-0.4618695426817983
2024-12-07 18:26:49.441199600,7.93619970703125,-0.5470201342880725,0.0554115060985088,-0.1238293914275243
2024-12-07 18:26:49.451173600,7.946173583984375,-0.8136977250635623,0.1843739860981702,0.2821989485016092
2024-12-07 18:26:49.461147600,7.956147705078125,-0.8318705106139183,0.1471662452101707,0.6626783115565776
2024-12-07 18:26:49.471121700,7.96612158203125,-0.7460515912920236,0.0277162744432687,0.8532328859858215
2024-12-07 18:26:49.481095700,7.976095703125,-0.4911000941455364,-0.0375105232268571,0.8888099569320678
2024-12-07 18:26:49.491068400,7.986068359375,-0.2857511062915436,-0.1419125624656677,0.6217419785995036
2024-12-07 18:26:49.501042400,7.99604248046875,-0.2564706695377826,-0.2418330723762512,0.1688220140380784
2024-12-07 18:26:49.511016400,8.006016357421874,-0.4499310484111308,-0.1838134296059608,-0.2331004249421879
2024-12-07 18:26:49.520990500,8.015990478515626,-0.7484013692885637,-0.0091050974756479,-0.4736856526818126
2024-12-07 18:26:49.530964500,8.025964599609376,-0.9987544327288864,0.2204892555743455,-0.5458869290070608
2024-12-07 18:26:49.540938500,8.0359384765625,-1.0741226851850747,0.5312380432665348,-0.460679675310105
2024-12-07 18:26:49.550912300,8.045912353515625,-0.8688374284833669,0.8855150070399045,-0.2889233248531818
2024-12-07 18:26:49.560886300,8.05588623046875,-0.5792962639927863,1.1710399216264489,-0.0807521374516189
2024-12-07 18:26:49.570859500,8.065859619140625,-0.3423942182779312,1.1798825687736272,0.0577505435053259
2024-12-07 18:26:49.580833500,8.07583349609375,-0.0819926390320062,1.019669210463762,0.1975784451840445
2024-12-07 18:26:49.590807600,8.0858076171875,0.1824409356763586,0.7096078205138444,0.4007066699823364
2024-12-07 18:26:49.600781600,8.095781494140626,0.5197416302075609,0.2655722598820925,0.6932752560026944
2024-12-07 18:26:49.610755300,8.10575537109375,0.8753869962573051,-0.0037912089765071,1.0982216459140182
2024-12-07 18:26:49.620729300,8.115729248046875,1.001301194602251,-0.0504307950764894,1.4631199569448827
2024-12-07 18:26:49.630703400,8.125703369140625,0.8417775721222162,0.1479167713165283,1.8619570701956747
2024-12-07 18:26:49.640677400,8.135677490234375,0.7457564077377319,0.6734919665157795,2.418777298486233
2024-12-07 18:26:49.650651400,8.1456513671875,0.6898240926355124,1.1560410899370908,2.779134166695177
2024-12-07 18:26:49.660624400,8.155624267578125,0.57701081993673,1.302572544375062,2.770542571699619
2024-12-07 18:26:49.670598400,8.165598388671874,0.2963292171955108,1.04583942450881,2.3721942648790777
2024-12-07 18:26:49.680572400,8.175572509765624,0.0369861705591902,0.8075257584303617,1.97379612756744
2024-12-07 18:26:49.690546400,8.18554638671875,-0.2123393033990636,0.4759299975425005,1.570131886421144
2024-12-07 18:26:49.700520400,8.1955205078125,-0.4701479070097207,0.1050298157483339,1.2137909027900546
2024-12-07 18:26:49.710494500,8.205494384765625,-0.7180623451262712,-0.4137058888196945,0.8209742919377983
2024-12-07 18:26:49.720468500,8.215468505859375,-0.974738181847334,-0.9163187261044978,0.4685689672552049
2024-12-07 18:26:49.730442500,8.2254423828125,-1.2922247533619402,-1.2117694068998095,0.2037880404138937
2024-12-07 18:26:49.740415500,8.23541552734375,-1.730699172735214,-1.0529799439132213,0.0413142994239926
2024-12-07 18:26:49.750389500,8.245389404296875,-2.4264719446420666,-0.4730617486298084,-0.0219346953671425
2024-12-07 18:26:49.760987600,8.255987548828125,-3.3075235425323246,0.5201362190157175,0.1205113894533365
2024-12-07 18:26:49.770961400,8.26596142578125,-3.5780712527394294,1.4747007968842982,0.3924030616153031
2024-12-07 18:26:49.780934700,8.2759345703125,-2.838495579463243,1.954178842297196,0.4143814499936997
2024-12-07 18:26:49.790908700,8.28590869140625,-2.111402955663204,1.8291349970459936,0.0726991793774068
2024-12-07 18:26:49.800882700,8.295882568359374,-1.8200585411429404,1.5086527508467436,-0.5576935039937496
2024-12-07 18:26:49.810856700,8.305856689453124,-1.251314650824666,1.2473165210992097,-1.2503121957838534
2024-12-07 18:26:49.820830500,8.31583056640625,-0.7202870354384183,0.9756903680056332,-1.7837620698809622
2024-12-07 18:26:49.830804500,8.325804443359376,-0.2274205161422491,0.6536579697549343,-2.3233349569030106
2024-12-07 18:26:49.840778500,8.335778564453125,0.3671902213603258,0.454513115504384,-2.5571149250745773
2024-12-07 18:26:49.850752300,8.345752197265625,0.7970400202512741,0.3970587054014206,-2.581015440621972
2024-12-07 18:26:49.860726300,8.355726318359375,1.494549552822858,0.3942231897145509,-2.4404712439000606
2024-12-07 18:26:49.870699500,8.365699462890625,2.2118081803508103,0.3998480438590049,-2.0049707257710394
2024-12-07 18:26:49.880673500,8.375673583984375,2.5935996123850344,0.3417208490610122,-1.477719706314057
2024-12-07 18:26:49.890647300,8.385647216796874,2.447452188828587,0.2995616232454776,-0.5289337118469178
2024-12-07 18:26:49.900621300,8.395621337890624,1.910513888093829,0.2710802096486091,0.4665754553504287
2024-12-07 18:26:49.910595300,8.40559521484375,1.3264911801010368,0.3292804696828126,1.2009333939783275
2024-12-07 18:26:49.920569300,8.4155693359375,0.8801439815260469,0.2923240732073783,1.61273111108914
2024-12-07 18:26:49.930543400,8.42554345703125,0.4454344676442444,0.1615209337770938,1.55056165516302
2024-12-07 18:26:49.940517400,8.435517333984375,0.48533510087803,0.0509720623463392,1.345643478208035
2024-12-07 18:26:49.950490400,8.445490478515625,0.6570332914069295,-0.0248012637794017,0.9435803886480628
2024-12-07 18:26:49.960464400,8.45546435546875,0.6312076530158519,-0.3334989641606807,0.1026392673499882
2024-12-07 18:26:49.970438400,8.4654384765625,0.689793112975359,-0.9214479056864976,-1.1030478970266877
2024-12-07 18:26:49.980412400,8.475412353515624,0.7763608048379421,-1.4464958621412516,-1.9821865009024733
2024-12-07 18:26:49.990386400,8.485386474609374,0.9303086730122566,-1.853953796482086,-2.420313714273274
2024-12-07 18:26:50.000360400,8.4953603515625,1.0457419554837049,-2.1593705754965544,-2.4576848290294406
2024-12-07 18:26:50.010334500,8.50533447265625,1.0362538500398395,-2.3683295522749424,-2.20306621709913
2024-12-07 18:26:50.020308500,8.51530859375,0.9887158537954092,-2.4960633672624826,-1.9156332769341768
2024-12-07 18:26:50.030282500,8.525282470703125,0.858432354325056,-2.519664023080468,-1.6881975632227957
2024-12-07 18:26:50.040255500,8.53525537109375,0.7016410794183612,-2.404143792977929,-1.4306928744621574
2024-12-07 18:26:50.050230000,8.54522998046875,0.4812890403576195,-2.172386708936095,-1.1368198182471096
2024-12-07 18:26:50.060204000,8.5552041015625,0.2704103475630283,-1.9121710076510905,-0.8205737483128904
2024-12-07 18:26:50.070178000,8.565177978515624,0.177382519775629,-1.7932172959685324,-0.686524612698704
2024-12-07 18:26:50.080152000,8.575152099609374,0.0031938276052474,-1.820962211984396,-0.8792128381557762
2024-12-07 18:26:50.090126000,8.5851259765625,-0.2065133371919393,-1.9989871213167905,-1.2375985524222255
2024-12-07 18:26:50.100100000,8.59510009765625,-0.3306337839879095,-2.275335626757145,-1.4619577812977134
2024-12-07 18:26:50.110074000,8.60507421875,-0.4843927054613828,-2.4996365495741366,-1.5012008274056017
2024-12-07 18:26:50.120048000,8.615048095703125,-0.6246732828110456,-2.5280834763795137,-1.4495700088895855
2024-12-07 18:26:50.130021000,8.625021240234375,-0.7934491561524569,-2.306204812273383,-1.275965254087001
2024-12-07 18:26:50.139995100,8.6349951171875,-0.9720124101452527,-1.820495763516426,-0.922124197512865
2024-12-07 18:26:50.149969200,8.64496923828125,-1.296083766877651,-1.0638672486305236,-0.2694645911455154
2024-12-07 18:26:50.159943200,8.654943115234374,-1.791084960114956,-0.0366050988197326,0.6528297022372483
2024-12-07 18:26:50.169917200,8.664917236328124,-2.4596190119624137,0.997968250787258,1.6650250696890054
2024-12-07 18:26:50.179891200,8.67489111328125,-3.1485037779212,2.147616424816847,2.775177245762944
2024-12-07 18:26:50.189865200,8.684865234375,-3.779146198269725,3.292140095439553,3.865793969631195
2024-12-07 18:26:50.199839200,8.694839111328125,-4.108237282860279,4.3526656324267385,4.572615958818793
2024-12-07 18:26:50.209812200,8.704812255859375,-3.5571453690886496,4.876893504670262,4.566530209164321
2024-12-07 18:26:50.219786200,8.7147861328125,-2.202322266864031,4.548271206635237,3.9813770358368754
2024-12-07 18:26:50.229760300,8.72476025390625,-0.5298069875501096,3.696363870164752,2.7341046461403367
2024-12-07 18:26:50.239734300,8.734734375,0.8156968629915267,2.6043694282025096,1.1181590299841015
2024-12-07 18:26:50.249708300,8.744708251953124,1.5640607498139143,1.1793939084738492,-0.4990002728108316
2024-12-07 18:26:50.259682300,8.754682373046874,1.99173320466578,-0.1112432834357023,-1.7318641248613595
2024-12-07 18:26:50.269656000,8.764656005859376,2.1943653165102,-0.9850158302336932,-3.08596139702946
2024-12-07 18:26:50.279630000,8.774630126953125,1.7665403014451264,-1.571457874327898,-4.332044284680485
2024-12-07 18:26:50.289604000,8.78460400390625,0.5848258410692214,-1.906862379848957,-5.163572849988937
2024-12-07 18:26:50.299577300,8.794577392578125,-1.2513748565793037,-2.0420383275359866,-4.813610242283344
2024-12-07 18:26:50.309551400,8.80455126953125,-2.723165903496742,-1.8970032491356128,-2.917798248758912
2024-12-07 18:26:50.319525000,8.814525146484375,-2.22158080182448,-1.550575245296955,-1.076112470762804
2024-12-07 18:26:50.329499100,8.8244990234375,-0.6020294162612408,-1.08847328209877,-0.0079930445805191
2024-12-07 18:26:50.339473200,8.83447314453125,0.7954699944555759,-0.5086924494594335,0.5873134201012551
2024-12-07 18:26:50.349447200,8.844447265625,1.861056906485557,0.0531055672436952,0.8756067764878273
2024-12-07 18:26:50.359421200,8.854421142578126,2.506114221155644,0.5434077890098095,1.0502199776805936
2024-12-07 18:26:50.369395200,8.864395263671875,2.719766908708215,1.0032049823969602,1.2437339864373207
2024-12-07 18:26:50.379369000,8.874368896484375,2.456598787358403,1.2461685201078652,1.2472682980433103
2024-12-07 18:26:50.389342000,8.884342041015625,1.9653110616862768,1.195791501045227,1.0985507317379115
2024-12-07 18:26:50.399316000,8.89431591796875,1.2400363009631632,0.8963327536523341,0.8002681885175407
2024-12-07 18:26:50.409290000,8.9042900390625,0.4953074827075004,0.5477005177676677,0.4578633027151226
2024-12-07 18:26:50.419264000,8.914263916015624,0.0717775344878435,0.2187637469559907,0.0635999271206557
2024-12-07 18:26:50.429238000,8.924238037109374,0.0866436797082424,-0.0803255826026201,-0.312312456812337
2024-12-07 18:26:50.439212000,8.9342119140625,0.4954951142340898,-0.433697706490755,-0.5680386646583676
2024-12-07 18:26:50.449186000,8.94418603515625,0.9865824219632892,-0.7232032151460647,-0.6216784849092364
2024-12-07 18:26:50.459160000,8.95416015625,1.261631462177634,-0.8000906399935483,-0.5111891616459936
2024-12-07 18:26:50.469133000,8.964133056640625,1.1317799243837594,-0.6377513755708932,-0.41754225211218
2024-12-07 18:26:50.479107000,8.974107177734375,0.6746591836642474,-0.1790297024607658,-0.3878697290346026
2024-12-07 18:26:50.489081000,8.9840810546875,0.2796790381025523,0.4853332011818885,-0.3797125068683177
2024-12-07 18:26:50.499055000,8.99405517578125,0.1598275738626718,1.0564058267086744,-0.3555762828689068
2024-12-07 18:26:50.509029000,9.004029052734374,0.1282207217216491,1.4213526530563831,-0.2172667863965034
2024-12-07 18:26:50.519003100,9.014003173828126,0.1499362213801592,1.4571744925439356,0.0156128719344735
2024-12-07 18:26:50.528977200,9.02397705078125,0.252290095917508,1.1246931809931993,0.3126427116800099
2024-12-07 18:26:50.538951200,9.033951171875,0.5129969051877037,0.6271808817178011,0.5993691840760409
2024-12-07 18:26:50.548925200,9.04392529296875,0.885116947633028,0.1737619911909103,0.8004354348432272
2024-12-07 18:26:50.558898200,9.053898193359377,1.2476660651892424,-0.1764151360481977,0.8637420050404966
2024-12-07 18:26:50.568872200,9.0638720703125,1.420153214138746,-0.3509066105574369,0.7980986624587327
2024-12-07 18:26:50.578846200,9.07384619140625,1.4299059618681669,-0.3518020980924368,0.694762279690057
2024-12-07 18:26:50.588820200,9.0838203125,1.3276964642375706,-0.2208884840250015,0.5358664337195456
2024-12-07 18:26:50.598794200,9.093794189453124,1.096541437742114,-0.0678857877463102,0.4098983862955123
2024-12-07 18:26:50.608768300,9.103768310546876,0.8286994793623685,0.0351835415840148,0.3418758204270154
2024-12-07 18:26:50.618742300,9.1137421875,0.5721890623360872,0.0242675952941179,0.3182744339566677
2024-12-07 18:26:50.628716300,9.12371630859375,0.3114923360684886,-0.1191261456400156,0.2575216764280572
2024-12-07 18:26:50.638690300,9.133690185546875,0.1450426771849393,-0.3247884189605712,0.0375942194549366
2024-12-07 18:26:50.648663000,9.1436630859375,0.2195078615878708,-0.4775695814430713,-0.0895719151798635
2024-12-07 18:26:50.658637000,9.153636962890625,0.233746796554327,-0.5057634102702141,-0.2056573414171114
2024-12-07 18:26:50.668611000,9.163611083984376,0.2313210307121276,-0.4006242889285087,-0.275949861511588
2024-12-07 18:26:50.678585000,9.173585205078124,0.1572445716321468,-0.2378910567522048,-0.3109173857247457
2024-12-07 18:26:50.688559000,9.18355908203125,0.0814928728163242,-0.0898351692259311,-0.261165110964328
2024-12-07 18:26:50.698533000,9.193533203125,0.0964390975356102,-0.0219406136512756,-0.1815981281766668
2024-12-07 18:26:50.708507100,9.203507080078126,-0.0698503658175468,0.0081470660984516,-0.1244001405201852
2024-12-07 18:26:50.718481200,9.213481201171875,-0.3665186057090759,0.0523795910567045,-0.0967116308666765
2024-12-07 18:26:50.728454100,9.2234541015625,-0.848980635368824,0.1387596513926982,-0.0587995045689865
2024-12-07 18:26:50.738428200,9.23342822265625,-1.3483119667649268,0.2312240000784397,0.0723592433659359
2024-12-07 18:26:50.748402200,9.243402099609376,-1.7178654101252555,0.2613140179157256,0.1963875183664262
2024-12-07 18:26:50.758376200,9.253376220703124,-1.9613959340691565,0.2423848610401153,0.3343597457084805
2024-12-07 18:26:50.768350200,9.26335009765625,-2.022455090665817,0.2520253805667162,0.5624982739269733
2024-12-07 18:26:50.778324200,9.27332421875,-1.9006617716431613,0.3727916946291923,0.8040663386914879
2024-12-07 18:26:50.788298200,9.28329833984375,-1.7552911776781082,0.4642307919204235,0.9909756154209376
2024-12-07 18:26:50.798272300,9.293272216796876,-1.456727917820215,0.4060276092767715,1.1832367745723575
2024-12-07 18:26:50.808246000,9.30324609375,-1.0348176797568798,0.4808551789849996,1.360607676975429
2024-12-07 18:26:50.818219300,9.31321923828125,-0.6847347336072475,0.4551531669735908,1.4261892794325948
2024-12-07 18:26:50.828193300,9.323193359375,-0.4070891010284423,0.3730155665129422,1.46425363714993
2024-12-07 18:26:50.838167300,9.333167236328125,-0.3454091821849346,0.2714841142743825,1.485147810488194
2024-12-07 18:26:50.848141300,9.343141357421874,-0.4494821355998515,0.1542290232032537,1.5451292548507451
2024-12-07 18:26:50.858115000,9.353114990234374,-0.5226023168683052,0.16180793402493,1.6824534666128454
2024-12-07 18:26:50.868089000,9.363089111328126,-0.5862555450787768,0.3449041552722454,1.7725481635577975
2024-12-07 18:26:50.878063000,9.37306298828125,-0.6243091256737708,0.7120563827097416,1.874376260655373
2024-12-07 18:26:50.888037000,9.383037109375,-0.6759422822773457,1.108518875783682,1.9164944238081576
2024-12-07 18:26:50.898011100,9.39301123046875,-0.6796598414957523,1.3618114998072386,1.765491376914084
2024-12-07 18:26:50.907984400,9.402984375,-0.5651286224305629,1.5320318728685378,1.4133404653839765
2024-12-07 18:26:50.917958100,9.412958251953125,-0.3908955065965652,1.4470388829767704,0.8473239542029798
2024-12-07 18:26:50.927932000,9.422931884765624,-0.2957680761814117,1.0946861652642488,0.0956309046915732
2024-12-07 18:26:50.937906000,9.432906005859374,-0.3710661860108375,0.6998778691381216,-0.5579308198809624
2024-12-07 18:26:50.947880000,9.4428798828125,-0.7093617367982864,0.3150163820087909,-0.959956646170467
2024-12-07 18:26:50.957854000,9.45285400390625,-1.2145131526499986,0.0810766932308673,-1.0733611262280494
2024-12-07 18:26:50.967828000,9.462827880859376,-1.9469453839123247,-0.0776911424458026,-0.93947594900392
2024-12-07 18:26:50.977802000,9.472802001953124,-3.106606417912245,-0.052268531897664,-0.4970358774026855
2024-12-07 18:26:50.987776000,9.48277587890625,-4.53075191655755,0.2667185073077678,0.1975516667749732
2024-12-07 18:26:50.997749000,9.4927490234375,-4.968913032197952,0.6385252825528382,0.6196615921288728
2024-12-07 18:26:51.007723000,9.502722900390625,-4.022735758924484,0.7779992196947336,0.2860012268614024
2024-12-07 18:26:51.017697000,9.512697021484374,-2.889422049102187,0.9964648604869842,-0.515572052905336
2024-12-07 18:26:51.027671000,9.522671142578124,-1.900443160456419,1.2910954570710658,-1.5677137193635104
2024-12-07 18:26:51.037645000,9.53264501953125,-1.5416782376140354,1.4761030648976563,-2.549991356804967
2024-12-07 18:26:51.047619000,9.542619140625,-1.4485070558331905,1.5300065045207738,-3.148472798261046
2024-12-07 18:26:51.057592300,9.55259228515625,-0.1342459733605384,1.397010823482275,-3.7209865625068543
2024-12-07 18:26:51.067566300,9.56256640625,2.1244318024538456,0.9739894093066452,-3.866117210236192
2024-12-07 18:26:51.077539300,9.572539306640625,4.210112433969974,0.4580716847687959,-3.4469179846972224
2024-12-07 18:26:51.087513300,9.582513427734376,5.69804096121788,0.2812941451489925,-2.230124173764139
2024-12-07 18:26:51.097487400,9.5924873046875,5.9748564996480935,0.2757879489481449,-0.6810296685442329
2024-12-07 18:26:51.107461400,9.60246142578125,5.0042532256484025,0.3662631696432828,0.7718262301482259
2024-12-07 18:26:51.117435400,9.612435302734376,3.2142163132816552,0.5669564223796129,2.0850687832280994
2024-12-07 18:26:51.127409400,9.622409423828126,0.5943412729114294,0.9628250412136315,2.5699662233412264
2024-12-07 18:26:51.137383400,9.632383544921876,-1.1891457794204354,1.578365754020214,2.103473770099133
2024-12-07 18:26:51.147357400,9.642357421875,-1.0897584996037184,1.6997592600703235,1.1760323961514978
2024-12-07 18:26:51.157331500,9.65233154296875,0.0603892945110797,1.089396826684475,0.170256321157515
2024-12-07 18:26:51.167304400,9.662304443359377,0.9664455697983504,0.1035445456266403,-0.6997458402562886
2024-12-07 18:26:51.177278500,9.672278564453125,1.594037370404601,-0.7676034978866577,-1.149864593259245
2024-12-07 18:26:51.187252500,9.68225244140625,1.8095716339200736,-1.5155080235689875,-1.3395536369003356
2024-12-07 18:26:51.197226500,9.6922265625,1.6430378404170274,-2.1423884610354897,-1.69184980212003
2024-12-07 18:26:51.207200500,9.702200439453126,1.4294944584578275,-2.8130624475210904,-1.971934133087844
2024-12-07 18:26:51.217174500,9.712174560546876,1.3095694175250827,-3.3844530529558656,-2.058556185486168
2024-12-07 18:26:51.227148500,9.7221484375,1.3809633595228197,-3.7728929830938576,-2.050969822010398
2024-12-07 18:26:51.237122600,9.73212255859375,1.5192806739754974,-3.951594184252619,-1.976997992348671
2024-12-07 18:26:51.247096600,9.7420966796875,1.6486416517734526,-3.91873119457066,-1.8619594082832336
2024-12-07 18:26:51.257069600,9.752069580078125,1.79039186328426,-3.7136154492169617,-1.508782806967199
2024-12-07 18:26:51.267043600,9.762043701171876,1.6498136181622742,-3.3961937596321103,-1.0418607301361855
2024-12-07 18:26:51.277017300,9.772017333984374,1.171058187935501,-3.03729264318943,-0.6535268907211721
2024-12-07 18:26:51.286991400,9.781991455078124,0.4892610421501099,-2.665214065265656,-0.5576154703214764
2024-12-07 18:26:51.296965400,9.79196533203125,-0.380716642409563,-2.506843704473972,-1.102445693349838
2024-12-07 18:26:51.306939400,9.801939453125,-1.2524328411996364,-2.461276131519675,-1.599415848572552
2024-12-07 18:26:51.316913400,9.811913330078124,-2.0481797529004515,-2.2878262750178573,-1.6412430659547448
2024-12-07 18:26:51.326887400,9.821887451171875,-2.758748673531413,-1.8855980580240488,-1.4483964350655674
2024-12-07 18:26:51.336860400,9.8318603515625,-3.680256200450658,-1.1403694735527037,-1.0938597974427045
2024-12-07 18:26:51.346834400,9.84183447265625,-5.045224702984094,0.1034206269860267,-0.2029004073917865
2024-12-07 18:26:51.356808400,9.851808349609374,-6.80231094738543,2.03382696402967,1.2939324340626597
2024-12-07 18:26:51.366782500,9.861782470703124,-8.286626544833183,4.502265242263674,3.090863489857316
2024-12-07 18:26:51.376756500,9.871756591796874,-8.062318023231626,6.913419790786504,4.426586608684063
2024-12-07 18:26:51.386730500,9.88173046875,-5.373896685379743,8.383544950318337,4.661876250766217
2024-12-07 18:26:51.396704500,9.89170458984375,-1.4324128301225605,7.993645469021796,3.654967737676203
2024-12-07 18:26:51.406678500,9.901678466796875,2.7105001909300683,5.544909085601568,2.019178260952234
2024-12-07 18:26:51.416652500,9.911652587890623,5.491511841934919,1.7963690379977226,0.9632451663218438
2024-12-07 18:26:51.426625500,9.92162548828125,5.927000523495674,-1.4534452428877354,-0.3095641810175031
2024-12-07 18:26:51.436599600,9.931599609375,4.542481517317891,-3.519156122434139,-1.6912798932775854
2024-12-07 18:26:51.446573600,9.941573486328124,2.5359406196206806,-4.569008874237537,-2.634645031739771
2024-12-07 18:26:51.456547600,9.951547607421874,0.8620745832849294,-4.994819626870751,-3.426872391012311
2024-12-07 18:26:51.466521600,9.961521484375,-0.2087339358508586,-4.577182243821024,-3.7923900029852975
2024-12-07 18:26:51.476495600,9.97149560546875,-0.7726607082109898,-3.414986722907424,-2.977376226887107
2024-12-07 18:26:51.486469600,9.9814697265625,-0.4203693652968853,-1.92390353102088,-1.3739127103589477
2024-12-07 18:26:51.496443400,9.991443359375,0.7238825757123529,-0.267857740470767,-0.0127914578381925
2024-12-07 18:26:51.506417400,10.00141748046875,1.7263105823874472,1.4136808032542467,0.7466301218323409
2024-12-07 18:26:51.516390700,10.011390625,2.054098183164,2.9791724626541134,1.0545329455088823
2024-12-07 18:26:51.526364700,10.02136474609375,1.6917454649627208,3.986843192288279,1.1217713021971285
2024-12-07 18:26:51.536338700,10.031338623046874,0.7547592138826846,3.8308354689747097,1.0693982139464466
2024-12-07 18:26:51.546312400,10.0413125,0.0986376304931938,2.290944114777446,0.5062390649579465
2024-12-07 18:26:51.556286500,10.051286376953126,-0.0838758954953402,0.3916021935611963,-0.31812340811342
2024-12-07 18:26:51.566260500,10.061260498046876,0.0745716221857815,-0.8485153559446335,-1.1229045440107583
2024-12-07 18:26:51.576234500,10.071234375,0.3972083430051803,-1.3921119455248117,-1.651474537111819
2024-12-07 18:26:51.586208500,10.08120849609375,0.7147569469053298,-1.3566793976157905,-1.6856033089458942
2024-12-07 18:26:51.596181500,10.091181396484377,1.2067232294261454,-0.9154518801420928,-1.1874001778621226
2024-12-07 18:26:51.606155500,10.101155517578125,1.9430081905938683,-0.2769628379464149,-0.2379085924088954
2024-12-07 18:26:51.616129300,10.11112939453125,2.550574709650874,0.3502876018762588,0.8788357484716921
2024-12-07 18:26:51.626103300,10.121103271484374,2.7685224640488624,0.7693395278990268,1.613519484987855
2024-12-07 18:26:51.636077300,10.131077392578124,2.6823347114145752,0.9879957228273152,1.984133251056075
2024-12-07 18:26:51.646051300,10.14105126953125,2.1038754827678203,0.950119873419404,2.024162479105592
2024-12-07 18:26:51.656025300,10.151025390625,1.5269909560918806,0.7175064648091792,1.792742371933162
2024-12-07 18:26:51.665999400,10.160999267578124,1.2361124055176973,0.5171487276375294,1.4050517988577484
2024-12-07 18:26:51.675973400,10.170973388671875,0.9708061030954122,0.4054863420069217,0.9136120974943042
2024-12-07 18:26:51.685946400,10.1809462890625,0.6737041479617357,0.2994640080899,0.3435955568917095
2024-12-07 18:26:51.695920400,10.19092041015625,0.465727825545147,0.185970899900794,-0.1820613252416253
2024-12-07 18:26:51.705894400,10.200894287109374,0.4741606497824192,0.0552080924808979,-0.6111450351309031
2024-12-07 18:26:51.715868400,10.210868408203124,0.5161158774584531,-0.0582955371022224,-0.8532499101858586
2024-12-07 18:26:51.725842400,10.220842529296876,0.589231309486553,-0.0716658908069133,-0.9171801652394236
2024-12-07 18:26:51.735816400,10.23081640625,0.9325222574084996,-0.0779793117374181,-0.7458643981568515
2024-12-07 18:26:51.745790500,10.24079052734375,0.9895253435473887,-0.0846902075529098,-0.4838624710422008
2024-12-07 18:26:51.755764500,10.250764404296875,0.8894283810913562,-0.1496528013288974,-0.1336470210867002
2024-12-07 18:26:51.765737500,10.260737548828123,0.716630266496539,-0.2686328164964914,0.2885787491992115
2024-12-07 18:26:51.775711500,10.27071142578125,0.4314040060630068,-0.3792541686415672,0.6363135978527367
2024-12-07 18:26:51.785685500,10.280685546875,0.2893810237591154,-0.4267997636705636,0.9244602392449974
2024-12-07 18:26:51.795659500,10.290659423828124,0.2689788534551858,-0.4535445627331733,1.1389292846817525
2024-12-07 18:26:51.805633500,10.300633544921874,0.3385761212944984,-0.4554144482582807,1.307766605886817
2024-12-07 18:26:51.815607600,10.310607666015626,0.354194546186924,-0.4398258339822292,1.2679463444128631
2024-12-07 18:26:51.825581600,10.32058154296875,0.4058797252386808,-0.5300935494065284,0.9898021146621554
2024-12-07 18:26:51.835555600,10.3305556640625,0.3313625366538762,-0.6110866560071706,0.7367274442382157
2024-12-07 18:26:51.845529600,10.340529541015623,0.0250707283705472,-0.6920902840018271,0.4554509078111499
2024-12-07 18:26:51.855502300,10.35050244140625,-0.5075871185660362,-0.6743091281175613,0.2277953408040106
2024-12-07 18:26:51.865476400,10.360476318359376,-1.0187620324909687,-0.5294499908059835,0.0753213811071589
2024-12-07 18:26:51.875450400,10.370450439453125,-1.5387480293810367,-0.2643073545128107,-0.053163014785666
2024-12-07 18:26:51.885424400,10.38042431640625,-2.0468413439035413,0.0843394944190979,-0.0691995554923079
2024-12-07 18:26:51.895398400,10.3903984375,-2.418214988428354,0.5168026906788349,0.0491623277769424
2024-12-07 18:26:51.905372400,10.400372314453126,-2.710177827107906,0.8663853591561317,0.2355845699081197
2024-12-07 18:26:51.915346400,10.410346435546876,-2.772865461689233,1.0422907921165228,0.4124791235037148
2024-12-07 18:26:51.925320400,10.420320556640624,-2.6162568498730656,1.0758914484232664,0.4981519123531878
2024-12-07 18:26:51.935293400,10.43029345703125,-2.3146914855897425,1.0299182172775267,0.5259457090120763
2024-12-07 18:26:51.945267500,10.440267333984377,-1.9631752187013625,0.9519149401426314,0.5641972598645836
2024-12-07 18:26:51.955241500,10.450241455078125,-1.4736720383584498,0.9003723844319581,0.7057168044246733
2024-12-07 18:26:51.965215500,10.460215576171874,-0.7947124540865421,0.856698077878356,0.903118541334942
2024-12-07 18:26:51.975189500,10.470189453125,-0.1489373648022301,0.6825403653681278,1.0636468838781117
2024-12-07 18:26:51.985163500,10.48016357421875,0.2817336873437278,0.3527811722576618,1.1620664146412163
2024-12-07 18:26:51.995137500,10.490137451171876,0.4370680597066879,0.1921305915743112,1.391052937991172
2024-12-07 18:26:52.005111600,10.500111572265626,0.5294365468025207,0.2779430811554193,1.7248706127122044
2024-12-07 18:26:52.015085600,10.51008544921875,0.4966144736528396,0.7960083391159772,2.059859230908752
2024-12-07 18:26:52.025058600,10.52005859375,0.1570119319200515,1.368230719199777,2.1110110337361694
2024-12-07 18:26:52.035032600,10.530032470703125,-0.386164386421442,1.6606436397343871,1.7363304566204547
2024-12-07 18:26:52.045006600,10.540006591796876,-0.682566084331274,1.6317822869092224,1.2357746979959308
2024-12-07 18:26:52.054981000,10.549981201171876,-0.5534639035999774,1.4997037207156418,0.8268320780552924
2024-12-07 18:26:52.064955000,10.559954833984374,-0.2509165425419807,1.188130172637105,0.3369675901193171
2024-12-07 18:26:52.074929000,10.569928955078124,0.0735357763320207,0.8364788811922073,-0.1557406516089104
2024-12-07 18:26:52.084903000,10.57990283203125,0.131760568019282,0.5584785168915987,-0.5921394520182163
2024-12-07 18:26:52.094877000,10.589876953125,-0.2339437804311513,0.4349292941123246,-0.8155692180238664
2024-12-07 18:26:52.104850000,10.599849853515623,-0.9291220935761928,0.468482019624114,-0.7382642984166741
2024-12-07 18:26:52.114824000,10.609823974609377,-1.8792612562179565,0.5385287847965955,-0.3777196890832856
2024-12-07 18:26:52.124797700,10.619797607421877,-2.9986931556820866,0.5702835209757089,0.0915165647079236
2024-12-07 18:26:52.134771700,10.629771728515625,-3.616753157833218,0.4721235909968614,0.2534928593033924
2024-12-07 18:26:52.144745700,10.639745849609374,-2.945689295247197,0.1726823792606592,-0.3278629310350865
2024-12-07 18:26:52.154719700,10.6497197265625,-1.9159394202739,-0.1700555378884077,-1.3908368110224605
2024-12-07 18:26:52.164693800,10.65969384765625,-1.371698687571287,-0.2039174754798412,-2.4215165141917763
2024-12-07 18:26:52.174667800,10.669667724609376,-1.0304916332513094,0.1970464206665754,-2.7345377768605945
2024-12-07 18:26:52.184641800,10.679641845703124,-0.7199370529569685,0.695842914533615,-2.595419229027629
2024-12-07 18:26:52.194614800,10.68961474609375,-0.282276872576028,0.9866969151884316,-2.5544065428987146
2024-12-07 18:26:52.204588800,10.6995888671875,0.2172691244840622,1.1879238364100455,-2.505551911097765
2024-12-07 18:26:52.214562800,10.709562744140625,0.9384761973768472,1.285129242143035,-2.276709837719798
2024-12-07 18:26:52.224536800,10.719536865234376,1.6066227112114428,1.2980518520802258,-1.6603689144462346
2024-12-07 18:26:52.234510800,10.7295107421875,1.798073649958521,1.2391145099431276,-1.033944111792743
2024-12-07 18:26:52.244484900,10.73948486328125,1.9423137785889208,1.0081266567081213,-0.5883812685284763
2024-12-07 18:26:52.254459000,10.749458984375,2.191937797102332,0.5145780003666878,-0.4717701013840735
2024-12-07 18:26:52.264433000,10.759432861328126,2.458801265838742,0.1755769316583871,-0.1059182159554213
2024-12-07 18:26:52.274406000,10.769406005859375,2.506076811754703,-0.0296761763393878,0.340160175615549
2024-12-07 18:26:52.284380000,10.7793798828125,2.2551152610272167,-0.1002846670478582,0.7023157638095319
2024-12-07 18:26:52.294354000,10.78935400390625,1.8182307411938905,-0.1472954245477914,0.6311793767694384
2024-12-07 18:26:52.304328000,10.799327880859376,1.0889287707813085,-0.1899409725755453,0.2911598517335951
2024-12-07 18:26:52.314302000,10.809302001953125,0.4478139101266861,-0.2910913165420293,-0.1225466946732252
2024-12-07 18:26:52.324276000,10.81927587890625,0.2173242156721651,-0.4714116433352232,-0.4709314586028456
2024-12-07 18:26:52.334250000,10.82925,0.0697805154517293,-0.8222042721241712,-0.988767803178355
2024-12-07 18:26:52.344224000,10.83922412109375,-0.0266546365611255,-1.2506529720455408,-1.3499544732749462
2024-12-07 18:26:52.354196700,10.84919677734375,0.0809559894606471,-1.6924439686208963,-1.6381335556320844
2024-12-07 18:26:52.364170800,10.859170654296875,0.2460936524301767,-2.0260335336744784,-1.8539422521747648
2024-12-07 18:26:52.374144800,10.869144775390623,0.2840006276287138,-2.230647174724937,-1.944266081700474
2024-12-07 18:26:52.384118800,10.879118896484377,0.3865241596445441,-2.327137125664949,-1.9780872488901016
2024-12-07 18:26:52.394092800,10.8890927734375,0.4224477059409022,-2.301404133993388,-1.955511698336154
2024-12-07 18:26:52.404066800,10.89906689453125,0.5059015035666525,-2.233219655561447,-1.8739026517942547
2024-12-07 18:26:52.414040800,10.909040771484374,0.6500818648338318,-2.133145416393876,-1.71489618505612
2024-12-07 18:26:52.424014800,10.919014892578126,0.7443053321465849,-2.0423691669255493,-1.5313756009168922
2024-12-07 18:26:52.433988900,10.92898876953125,0.7651651648238301,-2.025997877839208,-1.416148800802976
2024-12-07 18:26:52.443961900,10.9389619140625,0.7028548391222953,-2.0643144567519425,-1.339358844980597
2024-12-07 18:26:52.453935900,10.948935791015623,0.534383940076828,-2.0601871476888656,-1.3225591013491154
2024-12-07 18:26:52.463910000,10.958909912109377,0.3557581422418355,-2.083233676755428,-1.336832541373372
2024-12-07 18:26:52.473884000,10.9688837890625,0.1496820274233818,-2.1297131038576365,-1.2556550181165336
2024-12-07 18:26:52.483858000,10.97885791015625,-0.1246077919214963,-2.0764631597071883,-1.056342990605533
2024-12-07 18:26:52.493832000,10.98883203125,-0.5071113177478314,-1.868472735700011,-0.7261996935483068
2024-12-07 18:26:52.503806000,10.998805908203124,-0.738276427245885,-1.6298831752896308,-0.1954295600544661
2024-12-07 18:26:52.513780000,11.008780029296876,-0.8482108200401067,-1.391900348600745,0.3357425783690065
2024-12-07 18:26:52.523753000,11.0187529296875,-0.86562372713387,-1.1689660379618405,0.9735651925452052
2024-12-07 18:26:52.533727000,11.02872705078125,-0.9947434435218572,-0.8861386918962001,1.7762072705872356
2024-12-07 18:26:52.543701000,11.038700927734377,-1.3803279842287302,-0.5016472071230411,2.388437835932523
2024-12-07 18:26:52.553675000,11.048675048828123,-2.0145318964511154,0.1302753161638975,2.6064216845571995
2024-12-07 18:26:52.563649000,11.05864892578125,-2.5148703590631483,1.0413029501229525,2.500171094842255
2024-12-07 18:26:52.573623000,11.068623046875,-2.940336243781448,2.2024410709381104,2.3462357938885687
2024-12-07 18:26:52.583597000,11.07859716796875,-3.494288223159313,3.503219717633724,2.361315874120593
2024-12-07 18:26:52.593571000,11.088571044921874,-3.627034313350915,4.591805227935314,2.4115111068755386
2024-12-07 18:26:52.603544000,11.0985439453125,-2.6567139479458333,4.763653494459391,2.125853505820036
2024-12-07 18:26:52.613518000,11.10851806640625,-0.885212955353409,3.7139509647816418,1.4360890344172714
2024-12-07 18:26:52.623492000,11.1184921875,0.8454290803670883,2.200131040430069,0.5767462141837925
2024-12-07 18:26:52.633466000,11.128466064453123,1.8468822506606577,0.3471668395072221,-0.3295726575624197
2024-12-07 18:26:52.643439900,11.13843994140625,2.080602013077587,-1.2338690105050802,-1.0852912179965526
2024-12-07 18:26:52.653414000,11.148413818359376,2.001909146243334,-1.9971926391154529,-2.0787705598667263
2024-12-07 18:26:52.663387600,11.1583876953125,1.6580770041167736,-1.9696125582724808,-3.270285406506061
2024-12-07 18:26:52.673361700,11.168361572265624,1.0043687654793263,-1.375786833667755,-4.153233485667407
2024-12-07 18:26:52.683335700,11.178335693359376,0.1457334359280765,-0.7949486009299754,-3.724666420063376
2024-12-07 18:26:52.693309000,11.188308837890624,-0.0711426706504076,-0.4788040916740894,-2.003732416147739
2024-12-07 18:26:52.703283000,11.198282958984375,0.7055395481616258,-0.2426958266854286,-0.4305615273568779
2024-12-07 18:26:52.713257000,11.208257080078123,1.610622594502568,0.1074152495801448,0.8773172336675226
2024-12-07 18:26:52.723230700,11.218230712890623,1.8530746755599976,0.4762263501405716,1.7540692346677182
2024-12-07 18:26:52.733204700,11.228204833984377,1.2733832747697829,0.8105249402463436,1.9865546329841013
2024-12-07 18:26:52.743178800,11.2381787109375,0.4710463902194052,1.056728482791781,1.5517214927226304
2024-12-07 18:26:52.753152800,11.24815283203125,0.0615109920173883,0.9810837514817714,0.6675981592368334
2024-12-07 18:26:52.763126800,11.258126708984374,0.1216133593458682,0.6551596064895391,-0.2106392580155283
2024-12-07 18:26:52.773099800,11.268099853515626,0.1924550742883235,0.349746334606409,-1.0198813188444822
2024-12-07 18:26:52.783073800,11.27807373046875,0.1648153722126036,0.2098363441348075,-1.5716875914305448
2024-12-07 18:26:52.793047800,11.2880478515625,0.2063631150662898,0.1694938123524189,-1.761923455299437
2024-12-07 18:26:52.803021800,11.298021728515623,0.3595493512183427,0.144895962190628,-1.6789169630497691
2024-12-07 18:26:52.812995800,11.307995849609377,0.4967729521501809,0.1235591596513986,-1.4360159691810608
2024-12-07 18:26:52.822969900,11.317969970703125,0.5661772547006607,0.1889414401441812,-0.8686615604598075
2024-12-07 18:26:52.832943900,11.32794384765625,0.6454075163472444,0.3076747870743274,0.0425196566257625
2024-12-07 18:26:52.842918000,11.33791796875,0.8574351599812507,0.3905979849547147,0.9953084569934756
2024-12-07 18:26:52.852891000,11.347890869140626,0.8679868760686367,0.5317629439234733,1.5760674139499664
2024-12-07 18:26:52.862865000,11.357864990234376,0.833543996784091,0.5590209532052278,1.7292543807543814
2024-12-07 18:26:52.872839000,11.3678388671875,0.8020470347583294,0.4772650455385446,1.4849204314731062
2024-12-07 18:26:52.882813000,11.37781298828125,0.5170049352526664,0.3341109585791826,1.1089776524018495
2024-12-07 18:26:52.892787000,11.387786865234377,0.2387240369776263,0.2316851878494024,0.8644785756867378
2024-12-07 18:26:52.902761000,11.397760986328125,0.3495914363056421,0.1726665971696376,0.805345564847067
2024-12-07 18:26:52.912735000,11.40773486328125,0.5493266941973939,0.0954126770973205,0.7821575084179639
2024-12-07 18:26:52.922709000,11.417708984375,0.8701538448441773,-0.0709527741014957,0.732213473945111
2024-12-07 18:26:52.932681700,11.427681640625,1.142607023346424,-0.2914893759489059,0.6699847621124237
2024-12-07 18:26:52.942655700,11.43765576171875,1.235991409486532,-0.4951742117166519,0.6369806103941053
2024-12-07 18:26:52.952629800,11.447629638671875,1.152847846853733,-0.5077455239981412,0.6138244834732264
