time,seconds_elapsed,z,y,x
2024-12-07 18:32:17.948722700,0.02172265625,-0.0399596699446439,-0.0291249721974134,0.0634969051375985
2024-12-07 18:32:17.958696700,0.03169677734375,0.0059717678859829,-0.0236275438249111,0.0432154568701982
2024-12-07 18:32:17.968670700,0.041670654296875,0.0332648484811186,-0.0119803606510162,-0.0068628715068101
2024-12-07 18:32:17.978644700,0.051644775390625,0.0081906129792332,-0.0024053075760602,-0.0569958526805043
2024-12-07 18:32:17.988618500,0.061618408203125,-0.0175733583524823,0.0266898540049791,-0.1154080018997192
2024-12-07 18:32:17.998592300,0.07159228515625,-0.0483574959337711,0.0240367091476917,-0.1531289530068635
2024-12-07 18:32:18.008565500,0.0815654296875,-0.0307049348652362,0.0335673385590314,-0.0600254296347498
2024-12-07 18:32:18.018539500,0.09153955078125,-0.0606356704875826,0.0211427412718534,0.0526987400084733
2024-12-07 18:32:18.028513500,0.101513427734375,-0.1915834790855646,0.0507458523750305,0.0486953495860099
2024-12-07 18:32:18.038487600,0.111487548828125,-0.1965069069623947,0.0349327816933393,0.0313908713027834
2024-12-07 18:32:18.048461300,0.12146142578125,-0.0427659595370292,-0.0141407535552978,0.0753539316698908
2024-12-07 18:32:18.058435300,0.131435302734375,0.0724555798798799,-0.000675122782588,0.1254512570083141
2024-12-07 18:32:18.068408600,0.14140869140625,0.1108928625628352,-0.0047439796566963,0.1073521212160587
2024-12-07 18:32:18.078382600,0.151382568359375,0.0749006349444389,-0.0236368961751461,0.0631616818338632
2024-12-07 18:32:18.088356600,0.161356689453125,0.0447404744803905,-0.0718564449429512,0.0291226341098546
2024-12-07 18:32:18.098330600,0.17133056640625,0.0743979461193084,0.0017675941944122,-0.0100397479772567
2024-12-07 18:32:18.108304400,0.181304443359375,0.0795750564962625,0.018461539363861,-0.0597679477423429
2024-12-07 18:32:18.118278400,0.1912783203125,-0.0519312627673149,-0.0098965401142835,-0.1302969434738159
2024-12-07 18:32:18.128251600,0.201251708984375,-0.1661588227108121,0.0108376203566789,-0.1161155656471848
2024-12-07 18:32:18.138225700,0.2112255859375,-0.240453308455646,-0.0056722004175186,-0.0488671990215778
2024-12-07 18:32:18.148199700,0.22119970703125,-0.260492764660716,-0.0172054018229246,0.0263695360094308
2024-12-07 18:32:18.158173400,0.23117333984375,-0.1791457300558686,-0.0282896904170513,0.0756149206936359
2024-12-07 18:32:18.168147500,0.2411474609375,-0.0866252672687172,-0.036578210812807,0.0563879499152302
2024-12-07 18:32:18.178121500,0.25112158203125,0.0082590020403265,-0.0448252301543951,0.0679445321962237
2024-12-07 18:32:18.188094500,0.261094482421875,0.0594821165382862,-0.0250111071377992,0.0970353098630905
2024-12-07 18:32:18.198068500,0.271068359375,0.0587920884475111,-0.0610305150240659,0.1359697284132242
2024-12-07 18:32:18.208042500,0.28104248046875,0.044221126781404,-0.0972340473055839,0.1047743796825408
2024-12-07 18:32:18.218016500,0.2910166015625,-0.0287403567939996,-0.0920522607535123,0.0837374368727207
2024-12-07 18:32:18.227990300,0.300990234375,-0.0968611223399639,-0.0348281522750854,0.012694938661158
2024-12-07 18:32:18.237963500,0.310963623046875,-0.1099392150998115,0.0578881253451108,-0.0824663940235972
2024-12-07 18:32:18.247937500,0.3209375,-0.0573971269577741,-0.0111579383522272,-0.1418997029840946
2024-12-07 18:32:18.257911600,0.33091162109375,-0.0208975343391299,0.0370393985837698,-0.020915946778655
2024-12-07 18:32:18.267885600,0.340885498046875,0.0413604766532778,-0.0204582661390304,-0.0162903328046202
2024-12-07 18:32:18.277859300,0.350859375,0.0775078948333859,-0.1040080714851617,0.0307797536671161
2024-12-07 18:32:18.287833300,0.360833251953125,0.0347872357428073,-0.0841916103810071,0.2416010171860456
2024-12-07 18:32:18.297806600,0.370806640625,0.0235313899740576,-0.2366173835545778,0.0065492755129933
2024-12-07 18:32:18.307780600,0.380780517578125,0.0597699935689568,-0.0219879599243402,0.2437391982585191
2024-12-07 18:32:18.317754600,0.390754638671875,0.0293763166099786,0.0155453596562147,0.1518067644923925
2024-12-07 18:32:18.327728400,0.400728271484375,0.0447661934435367,-0.1818108576118946,-0.0779392719879746
2024-12-07 18:32:18.337702400,0.410702392578125,0.0339481545701622,-0.3297258753627538,-0.4457312586337327
2024-12-07 18:32:18.347676400,0.420676513671875,0.0133463883072137,-0.1987538091063499,-0.2562172792986035
2024-12-07 18:32:18.357649700,0.430649658203125,0.0164127901405096,-0.2330132215827703,-0.1963324271783232
2024-12-07 18:32:18.367623700,0.440623779296875,-0.0430260717779397,-0.3276742035299539,-0.0741772891059517
2024-12-07 18:32:18.377597700,0.45059765625,-0.1292544486835599,-0.3336211292356252,-0.0190533677771687
2024-12-07 18:32:18.387571500,0.460571533203125,-0.1231456104144454,-0.2964455370515584,0.0172691147089004
2024-12-07 18:32:18.397545500,0.47054541015625,-0.0124193365901708,-0.3439104680597782,-0.0222691149532794
2024-12-07 18:32:18.407519500,0.48051953125,0.1608373354271054,-0.4227349984496831,-0.1236731414198875
2024-12-07 18:32:18.417492500,0.490492431640625,0.2949178890928626,-0.5278343723028898,-0.1921042880892753
2024-12-07 18:32:18.427466500,0.500466552734375,0.4390995655342936,-0.6060340487927198,-0.1855076663032174
2024-12-07 18:32:18.437440500,0.5104404296875,0.4132023232117295,-0.6102519587486982,-0.107523093868792
2024-12-07 18:32:18.447414300,0.520414306640625,0.2023436502918601,-0.6864438025474547,-0.0327411168679595
2024-12-07 18:32:18.457388300,0.53038818359375,-0.0146592244714498,-0.705817196059227,0.036925124554336
2024-12-07 18:32:18.467362300,0.5403623046875,-0.2140010625988244,-0.6403624348521232,0.1847802288115024
2024-12-07 18:32:18.477335600,0.55033544921875,-0.3897834537014365,-0.524368742018938,0.4700006074935197
2024-12-07 18:32:18.487309600,0.5603095703125,-0.3806313022136688,-0.3522515954256057,0.694666271969676
2024-12-07 18:32:18.497283600,0.57028369140625,-0.1905325087279081,-0.3819306943744421,0.6311074075117706
2024-12-07 18:32:18.507257300,0.58025732421875,-0.0914884893909096,-0.413663803243637,0.624060703870654
2024-12-07 18:32:18.517231400,0.5902314453125,-0.1519724764481186,-0.4309627285689115,0.6198538998305797
2024-12-07 18:32:18.527205400,0.600205322265625,-0.0122597621142864,-0.5442758040159941,0.3936062268599867
2024-12-07 18:32:18.537178600,0.6101787109375,0.0959933995947241,-0.6402531292587519,-0.0501861726656556
2024-12-07 18:32:18.547152600,0.620152587890625,0.0803904645323753,-0.3663070087850094,-0.3297258753627538
2024-12-07 18:32:18.557126400,0.63012646484375,0.396211148661375,-0.4178828822433948,-0.4652820545390248
2024-12-07 18:32:18.567100400,0.640100341796875,0.7612368854641914,-0.3583282849907875,-0.5149643693357706
2024-12-07 18:32:18.577074400,0.650074462890625,0.717602034138143,-0.2811509372860193,-0.3222092161223292
2024-12-07 18:32:18.587048400,0.66004833984375,0.3050079059526324,-0.122543845129013,-0.0445785619169473
2024-12-07 18:32:18.597021700,0.670021728515625,-0.0798418907389044,-0.542241083317995,-0.1092529864013195
2024-12-07 18:32:18.606995500,0.679995361328125,0.2699330854400992,-0.7551958517342805,-0.1798877805948257
2024-12-07 18:32:18.616969500,0.689969482421875,-0.2081844852745533,-0.1629986051142215,-0.3737938574090599
2024-12-07 18:32:18.626943500,0.699943603515625,-0.5356012069121003,0.0958902314811945,-0.3362166986867785
2024-12-07 18:32:18.636917500,0.70991748046875,-0.4003749903425574,0.4214209932416677,-0.0375146148800849
2024-12-07 18:32:18.646890500,0.719890380859375,-0.2825806778281927,0.477687654864788,0.277194016353786
2024-12-07 18:32:18.656864500,0.729864501953125,-0.1565004752665758,0.5700117182970047,0.1403679633721709
2024-12-07 18:32:18.666838500,0.739838623046875,-0.3440174355655908,0.497878209978342,0.140733289553225
2024-12-07 18:32:18.676812300,0.749812255859375,-0.3240682879924774,0.6065285543113946,0.2084209243789315
2024-12-07 18:32:18.686786300,0.759786376953125,-0.097032387253642,0.6195020176529884,0.6819491214767098
2024-12-07 18:32:18.696760300,0.76976025390625,-0.118064069366455,0.5924094280660152,0.8217939377576112
2024-12-07 18:32:18.706733600,0.779733642578125,0.0421326300695538,0.1446697522193193,0.8592939395904541
2024-12-07 18:32:18.716707600,0.78970751953125,0.007254793433845,0.0236988554954528,0.9080756522856652
2024-12-07 18:32:18.726681300,0.799681396484375,-0.3195493492633104,-0.0917646759837865,0.8374208382174372
2024-12-07 18:32:18.736655400,0.8096552734375,-0.464535620085895,-0.4224146804541349,0.4644730762436985
2024-12-07 18:32:18.746629400,0.81962939453125,-0.5374478576920926,-0.6263987914294004,0.0880935862556099
2024-12-07 18:32:18.756603400,0.829603271484375,-0.630654549177736,-0.8341507305055856,-0.1206267594613134
2024-12-07 18:32:18.766576600,0.83957666015625,-0.5782363796763121,-0.4674918395429849,-0.408653427735716
2024-12-07 18:32:18.776550700,0.849550537109375,-0.2532549223616719,-0.199665663254261,-0.512548540365696
2024-12-07 18:32:18.786524400,0.8595244140625,-0.1463138661645353,-0.1938239514887332,-0.3795088740549981
2024-12-07 18:32:18.796498400,0.86949853515625,-0.242319248457998,-0.179807116574049,-0.2864715477868914
2024-12-07 18:32:18.806472400,0.879472412109375,-0.4480538563624024,-0.2272790618449449,-0.1664493300899863
2024-12-07 18:32:18.816446500,0.889446533203125,-0.5884200661689043,-0.0702291360020637,-0.0686607176415622
2024-12-07 18:32:18.826419700,0.899419677734375,-0.5705448022603988,0.0730155518501997,0.0295278539098799
2024-12-07 18:32:18.836393500,0.9093935546875,-0.6468896446637808,0.1798030249208211,0.1845258156590163
2024-12-07 18:32:18.846367500,0.919367431640625,-0.8512135089874268,0.3791173905193805,0.290242444627732
2024-12-07 18:32:18.856341500,0.929341552734375,-0.9531757538586856,0.4205483020603656,0.4911727209903299
2024-12-07 18:32:18.866315500,0.9393154296875,-1.0502670316927134,0.264366391223669,0.9551546527162194
2024-12-07 18:32:18.876288500,0.94928857421875,-0.955222749516368,0.2333721180230379,1.091486346309632
2024-12-07 18:32:18.886262500,0.959262451171875,-0.7228814358457922,0.3894493994414806,0.8956982551410794
2024-12-07 18:32:18.896236500,0.969236572265625,-0.5175479560881853,0.4144377102255821,0.7057651736110448
2024-12-07 18:32:18.906210300,0.979210205078125,-0.3636395431414246,0.375559990298748,0.2708329568892717
2024-12-07 18:32:18.916184300,0.989184326171875,-0.2715451968118548,-0.1015384665012359,-0.3165611272327602
2024-12-07 18:32:18.926158300,0.999158447265625,-0.1364811850666999,-1.5405127009660005,-1.432208685852587
2024-12-07 18:32:18.936131600,1.009131591796875,0.1937323276825249,-1.968747465875745,-2.0679165728971363
2024-12-07 18:32:18.946105600,1.019105712890625,0.0670984367609024,-1.240598611021042,-1.539366453540325
2024-12-07 18:32:18.956079400,1.029079345703125,-0.4191498334392905,-0.5266659130454063,-1.036264371433854
2024-12-07 18:32:18.966053400,1.039053466796875,-0.938325390729308,-0.0010609072297811,-0.6687196375474334
2024-12-07 18:32:18.976027400,1.04902734375,-0.6773888278238475,-0.0365051455765962,-0.0176769648574292
2024-12-07 18:32:18.986001400,1.05900146484375,0.6094450262799859,-0.6212824713289737,0.5907961476504803
2024-12-07 18:32:18.995974700,1.068974609375,-1.2331417191438376,-0.589153641140461,0.0641049540333449
2024-12-07 18:32:19.005948400,1.078948486328125,-1.377962716402113,0.6706038438588381,0.1301679102666676
2024-12-07 18:32:19.015922400,1.08892236328125,-1.0387956434771417,1.3563830450177192,-0.2413657471254467
2024-12-07 18:32:19.025896400,1.098896484375,-0.7913485306113958,1.8298071972191328,-0.907189370970428
2024-12-07 18:32:19.035870500,1.108870361328125,-0.2145972749263048,2.206147524240613,-0.9760684806030244
2024-12-07 18:32:19.045844500,1.118844482421875,0.4632769983269273,2.6111522202104327,-0.6428090973518789
2024-12-07 18:32:19.055817700,1.128817626953125,0.8958870557114481,2.933193386289477,-0.066082172390446
2024-12-07 18:32:19.065791500,1.13879150390625,1.1019155319958924,2.644370014679432,0.6574845423057675
2024-12-07 18:32:19.075765500,1.148765625,0.8886319700166583,2.453753334799409,1.4403352936848997
2024-12-07 18:32:19.085739300,1.1587392578125,0.469970212355256,2.621654325002432,1.912213531618565
2024-12-07 18:32:19.095713300,1.16871337890625,0.3214391085326671,2.7812708864629268,1.165898394019529
2024-12-07 18:32:19.105686500,1.1786865234375,-0.2285021738991141,3.201795807647705,0.3193667592380195
2024-12-07 18:32:19.115660500,1.18866064453125,-1.005284711280465,1.6936843240708113,-0.3607986206270754
2024-12-07 18:32:19.125634300,1.19863427734375,-1.7323706130787728,-1.0320435388684273,-0.564195652429387
2024-12-07 18:32:19.135608300,1.2086083984375,-1.0862298870861529,-2.2633815695911643,-0.5292435815136879
2024-12-07 18:32:19.145582300,1.218582275390625,0.0834416687965393,-2.7530320494502782,-0.585443242315203
2024-12-07 18:32:19.155556400,1.228556396484375,0.7996423117041588,-2.8984231016814705,-0.3827563315436244
2024-12-07 18:32:19.165529600,1.238529541015625,0.9668845457375048,-2.498265261220932,0.0222243990287184
2024-12-07 18:32:19.175503600,1.248503662109375,0.9814029004335404,-1.7108628378868105,0.5823294942088425
2024-12-07 18:32:19.185477400,1.258477294921875,0.9295274595066904,-0.9276227949291468,1.08847328209877
2024-12-07 18:32:19.195451400,1.268451416015625,0.8399749066144228,-0.5374035801589488,1.259873950985819
2024-12-07 18:32:19.205425400,1.27842529296875,0.3258767987191677,-0.44789983484447,0.955504196806252
2024-12-07 18:32:19.215399400,1.2883994140625,-0.3641353638343513,-0.2354068387210369,0.5651924814470112
2024-12-07 18:32:19.225372700,1.29837255859375,-0.8539746442638337,-0.1300929453343152,0.360960679320991
2024-12-07 18:32:19.235346400,1.308346435546875,-1.1479283644996583,-0.1018149453550577,0.4009508905343711
2024-12-07 18:32:19.245320400,1.318320556640625,-1.075572153341025,-0.0488251134455203,0.3970199808262288
2024-12-07 18:32:19.255294500,1.32829443359375,-0.758897044339776,-0.2118383316069841,0.2252259287074208
2024-12-07 18:32:19.265268500,1.3382685546875,-0.3152610044196248,-0.668224255245924,-0.1456399124257266
2024-12-07 18:32:19.275242500,1.348242431640625,-0.0237403565496206,-1.2486468929201364,-0.7288653325609863
2024-12-07 18:32:19.285215500,1.358215576171875,0.0566036384925246,-1.7398697366625069,-1.0513966202445328
2024-12-07 18:32:19.295189500,1.368189453125,-0.1007125370711088,-1.99701085280776,-1.038594714077562
2024-12-07 18:32:19.305163300,1.378163330078125,-0.5053922388702631,-2.002618171295524,-0.888993350674957
2024-12-07 18:32:19.315137300,1.38813720703125,-0.911189546522498,-1.84816527620852,-0.6542448297321796
2024-12-07 18:32:19.325111300,1.398111328125,-1.164137010370195,-1.614429585570097,-0.5128538069225848
2024-12-07 18:32:19.335085300,1.408085205078125,-1.2188713478595017,-1.3933616533249615,-0.3816356569506228
2024-12-07 18:32:19.345058000,1.41805810546875,-1.20115741199255,-1.224255378985405,-0.2688099266290664
2024-12-07 18:32:19.355032000,1.428031982421875,-1.1457295392811295,-1.05031569314003,-0.102613548386842
2024-12-07 18:32:19.365006000,1.438006103515625,-1.1276740965001284,-0.8897112896859646,0.0399443262450397
2024-12-07 18:32:19.374980000,1.44797998046875,-1.0237821987405418,-0.7443290052831173,0.1691143115155398
2024-12-07 18:32:19.384953900,1.457953857421875,-1.0000576242819428,-0.6163000067412853,0.3002553045980632
2024-12-07 18:32:19.394927000,1.467927001953125,-1.136982607593387,-0.4571779507994651,0.3504518525272607
2024-12-07 18:32:19.404901000,1.477901123046875,-1.2609499096542596,-0.2833651062041521,0.2085625248067081
2024-12-07 18:32:19.414875000,1.487875,-1.5510064763210714,-0.0383504811823368,0.0016129881545901
2024-12-07 18:32:19.424849000,1.497848876953125,-2.130644101097434,0.529337178081274,0.0153271868608891
2024-12-07 18:32:19.434823000,1.507822998046875,-2.621118902951479,1.4689000016510485,0.4333215666547417
2024-12-07 18:32:19.444797000,1.517796875,-2.627169581292569,2.567251703685522,0.993224709521979
2024-12-07 18:32:19.454770000,1.52777001953125,-2.0523294199258086,3.620862931239605,1.338337685239315
2024-12-07 18:32:19.464744000,1.537743896484375,-0.9708673317633568,4.188264759299159,1.2442064262546595
2024-12-07 18:32:19.474718000,1.547718017578125,0.0337191681198775,3.8283997662603855,0.7778308773905038
2024-12-07 18:32:19.484692000,1.55769189453125,0.5689077025778592,2.200587552025914,0.2987504529930651
2024-12-07 18:32:19.494666000,1.567666015625,0.7258284490831196,-0.2015899093151092,-0.1451353239044547
2024-12-07 18:32:19.504639700,1.5776396484375,0.0920576675809919,-1.9894763656497,-0.6945011445358396
2024-12-07 18:32:19.514613000,1.587613037109375,-0.8934750261336565,-3.0046283909499643,-1.2164961431607604
2024-12-07 18:32:19.524587000,1.5975869140625,-1.3844862729519605,-3.266436914384365,-1.4354405073806642
2024-12-07 18:32:19.534561000,1.60756103515625,-0.7946152773223817,-2.6313731704622505,-1.1797427219115195
2024-12-07 18:32:19.544535000,1.61753515625,0.1606073260635137,-1.3825316317528484,-0.5603142078861594
2024-12-07 18:32:19.554508800,1.6275087890625,0.7653573263950646,-0.172011348131299,0.096749917050451
2024-12-07 18:32:19.564482000,1.63748193359375,1.0069318939656018,0.7237374681532383,0.6688675215855241
2024-12-07 18:32:19.574456000,1.6474560546875,1.049846468193084,1.0201742373764515,1.0283376700878142
2024-12-07 18:32:19.584430000,1.65743017578125,1.055138144860417,0.8870464543908834,1.199827332432568
2024-12-07 18:32:19.594404000,1.667404052734375,1.0554214918464422,0.6390344011187553,1.161652500078082
2024-12-07 18:32:19.604378000,1.677378173828125,0.8815349974930285,0.4514122268795967,1.0089283284798265
2024-12-07 18:32:19.614352000,1.687351806640625,0.6884693170256913,0.3532534659445285,0.9161242264457048
2024-12-07 18:32:19.624324900,1.697324951171875,0.7410640121378004,0.2987368628591298,0.856868977465853
2024-12-07 18:32:19.634299000,1.707298828125,0.9916847866035996,0.2895627918004989,0.7685204666011035
2024-12-07 18:32:19.644273000,1.71727294921875,1.225889117667079,0.2579705527067184,0.4994878371320664
2024-12-07 18:32:19.654247000,1.727246826171875,1.3193547523498534,0.1571358505606651,0.0860851690426468
2024-12-07 18:32:19.664221000,1.737220947265625,1.2185382434476166,0.0759065971165895,-0.2484711952164769
2024-12-07 18:32:19.674194700,1.747194580078125,0.8285800907664,0.0974275240510702,-0.4741610881738364
2024-12-07 18:32:19.684168000,1.75716796875,0.4051408895701169,0.1843833384484052,-0.5703104820478707
2024-12-07 18:32:19.694142000,1.767141845703125,0.3107499567359685,0.2817676078796386,-0.4326099843192845
2024-12-07 18:32:19.704116000,1.777115966796875,1.2642957129508257,-0.4063999497205018,-0.1070674590557813
2024-12-07 18:32:19.714090000,1.787090087890625,2.178800667631626,-0.6590244652241468,0.5567345227684826
2024-12-07 18:32:19.724064000,1.79706396484375,1.332629682856053,0.1828863778889179,1.0575253322578966
2024-12-07 18:32:19.734037800,1.807037841796875,1.0176035101056098,0.0568009146302938,0.9592505437277256
2024-12-07 18:32:19.744011000,1.817010986328125,-0.1875321578681469,0.184611301985383,0.6037070671498775
2024-12-07 18:32:19.753985000,1.826985107421875,-1.3679039714634418,0.3684808456927537,0.59956434132196
2024-12-07 18:32:19.763959000,1.836958984375,-1.3802338762044906,0.7101748067468404,0.8175049353267997
2024-12-07 18:32:19.773933000,1.84693310546875,-0.3846681565143168,0.7237462359815836,0.8111023748081178
2024-12-07 18:32:19.783906800,1.85690673828125,0.9090455202311276,0.0143733932673931,0.4553353186074644
2024-12-07 18:32:19.793880000,1.866880126953125,0.5005103120476008,-0.5495078594505787,0.0543404428008943
2024-12-07 18:32:19.803854000,1.87685400390625,2.405835983848572,0.1721183156371116,-0.2710969415877014
2024-12-07 18:32:19.813828000,1.886828125,2.748046077731252,-0.0333352833688259,-0.4306833271056413
2024-12-07 18:32:19.823802000,1.896802001953125,1.731270250621438,-0.7035001512885093,0.5231060286067426
2024-12-07 18:32:19.833775900,1.90677587890625,1.3705968638092278,-0.5361024344325065,1.3100551552154125
2024-12-07 18:32:19.843750000,1.91675,0.9332312093954532,-0.2831353891015052,1.67338592466861
2024-12-07 18:32:19.853723000,1.926722900390625,0.711190778856352,-0.1379232005685567,1.809927900011837
2024-12-07 18:32:19.863697000,1.93669677734375,0.5935311255723238,0.01393149471879,1.6332687260746954
2024-12-07 18:32:19.873671000,1.9466708984375,0.6656102733552456,0.0654191053718328,1.1727460679572077
2024-12-07 18:32:19.883645000,1.95664501953125,0.9954038801919668,0.0529711272090673,0.5449556760389358
2024-12-07 18:32:19.893619000,1.966618896484375,1.261059215247631,0.1340817227095365,0.0432511127054691
2024-12-07 18:32:19.903592700,1.9765927734375,1.1618611743927,0.1377162798196077,-0.3740937171384692
2024-12-07 18:32:19.913566000,1.98656591796875,0.7588613885045051,0.0595925911754369,-0.6667910075724125
2024-12-07 18:32:19.923540000,1.9965400390625,0.2213929994810372,0.0085965634316205,-0.8608994020257145
2024-12-07 18:32:19.933514000,2.006513916015625,-0.25336448368337,0.0252934312105178,-0.8784460915669798
2024-12-07 18:32:19.943488000,2.016488037109375,-0.5537210566988214,0.1174298631161451,-0.6613244857948273
2024-12-07 18:32:19.953461800,2.026461669921875,-0.6111241019407286,0.1129553480505943,-0.3100499917730689
2024-12-07 18:32:19.963435000,2.03643505859375,-0.628449294218421,0.0921691651314497,0.0411458109892904
2024-12-07 18:32:19.973409000,2.046408935546875,-0.62225920740664,0.0189332485288381,0.3197594118174165
2024-12-07 18:32:19.983383000,2.056383056640625,-0.4276204689363017,-0.0810737706214189,0.5909853135470301
2024-12-07 18:32:19.993357000,2.066357177734375,-0.1771090000638738,-0.1072130050063133,0.8161297745160758
2024-12-07 18:32:20.003331000,2.0763310546875,-0.0786947665303945,-0.106667061561346,0.9967373938180506
2024-12-07 18:32:20.013304800,2.086304931640625,-0.0199275567958131,-0.0476046317398548,1.123032042847946
2024-12-07 18:32:20.023278000,2.096278076171875,-0.0003302548676729,0.1063829839229583,1.2084862205106763
2024-12-07 18:32:20.033252000,2.106252197265625,-0.0628016163498163,0.1991547911226749,1.1693339944913983
2024-12-07 18:32:20.043226000,2.11622607421875,-0.247696995973587,0.1620312213867902,0.9603553631644696
2024-12-07 18:32:20.053200100,2.1262001953125,-0.6730214263945817,0.0086140990883111,0.607239150266163
2024-12-07 18:32:20.063174000,2.136173828125,-1.0104033694684504,-0.1350789170533418,0.3134546856500208
2024-12-07 18:32:20.073148000,2.14614794921875,-1.267325289905071,-0.1724918251246213,0.1326507400583475
2024-12-07 18:32:20.083121000,2.156120849609375,-1.5323714800864456,-0.1383241825848817,0.0151934409460052
2024-12-07 18:32:20.093095000,2.166094970703125,-1.7473644763320684,-0.0403542222201824,-0.1126425923069938
2024-12-07 18:32:20.103069000,2.17606884765625,-1.8380705831736328,0.1725543689668178,-0.1349609166968614
2024-12-07 18:32:20.113043000,2.18604296875,-1.8025947806447744,0.2933721209555864,-0.2369302123634144
2024-12-07 18:32:20.123017000,2.196016845703125,-1.6189719051748512,0.6229378373205662,-0.1678670879334211
2024-12-07 18:32:20.132990700,2.20599072265625,-1.3482646204918622,0.578787729948759,-0.2414093305388465
2024-12-07 18:32:20.142964000,2.2159638671875,-1.1478729810506103,0.901620338666439,-0.1240748906211927
2024-12-07 18:32:20.152938000,2.22593798828125,-0.8350076395958661,0.7379775904297828,-0.1755064237054437
2024-12-07 18:32:20.162912000,2.235912109375,-0.5184884883413091,0.7405389653503894,-0.1101668498432263
2024-12-07 18:32:20.172886000,2.245885986328125,-0.1329348907619714,0.8539537476062774,0.2282433768324553
2024-12-07 18:32:20.182859800,2.25585986328125,0.2930436927188187,0.6446142470777034,0.2508947691015899
2024-12-07 18:32:20.192833000,2.2658330078125,0.7092109301507472,0.3085761198282241,0.0713052042683586
2024-12-07 18:32:20.202807000,2.27580712890625,0.992589480358362,-0.0378489614009857,-0.2004476804774254
2024-12-07 18:32:20.212781000,2.285781005859375,0.9553057516247032,-0.2935229276031255,-0.4806457740180194
2024-12-07 18:32:20.222755000,2.295755126953125,0.8113000162720679,-0.6546329522669315,-0.8200702557701617
2024-12-07 18:32:20.232728800,2.305728759765625,0.5274480033338069,-0.7608154451817274,-1.0787660540115087
2024-12-07 18:32:20.242702800,2.315702880859375,0.1669254962343722,-0.457644399267435,-1.0513416751869022
2024-12-07 18:32:20.252676000,2.325676025390625,0.1161924302756786,-0.2783399715185165,-1.244808629931509
2024-12-07 18:32:20.262650000,2.335650146484375,-0.4742623565912246,0.7614262705564498,-1.4421249535806475
2024-12-07 18:32:20.272624000,2.3456240234375,-1.0174468582391738,1.883920480200648,-1.4582492821685968
2024-12-07 18:32:20.282598100,2.35559814453125,-1.5819383518099783,2.900468928295374,-1.3117176816001537
2024-12-07 18:32:20.292572000,2.365572021484375,-1.921655459833145,3.002754998293519,-1.3420242647975682
2024-12-07 18:32:20.302546000,2.3755458984375,-2.251615728473664,2.5119834054499863,-1.3832865417733788
2024-12-07 18:32:20.312519000,2.385518798828125,-2.395109422650933,1.817114304384589,-0.904727364771068
2024-12-07 18:32:20.322493000,2.395492919921875,-2.333590247327089,1.3699153112858533,0.0064194385882467
2024-12-07 18:32:20.332467000,2.405467041015625,-2.334161325213313,1.1435463500231504,0.7860698595561086
2024-12-07 18:32:20.342441500,2.41544140625,-1.916495738982409,1.0761638356238603,1.3748051291540264
2024-12-07 18:32:20.352415500,2.42541552734375,-1.297662414371222,1.0404723445177078,1.7895082123175263
2024-12-07 18:32:20.362388700,2.435388671875,-0.6866793648689985,0.9776759888648986,1.8681956723243
2024-12-07 18:32:20.372362500,2.445362548828125,0.4493815978348255,0.9487140982747078,2.101328136372566
2024-12-07 18:32:20.382336300,2.455336181640625,1.7665490692734718,0.8976555266886949,2.4722508222594857
2024-12-07 18:32:20.392310300,2.465310302734375,2.381461421048641,0.7798655980885029,2.745779301843047
2024-12-07 18:32:20.402284300,2.4752841796875,2.1609967153936624,0.5469418083548545,2.578824944840372
2024-12-07 18:32:20.412258300,2.48525830078125,1.670186397974938,0.3256418209195136,1.824075667829812
2024-12-07 18:32:20.422231600,2.4952314453125,1.4108704220086334,0.308348740813136,0.5865323161935433
2024-12-07 18:32:20.432205300,2.505205322265625,1.239430736285448,0.2123427739977836,-0.8380953764781356
2024-12-07 18:32:20.442179300,2.515179443359375,1.1143488971114155,-0.0955085386872291,-2.060746827398241
2024-12-07 18:32:20.452153300,2.5251533203125,0.9750801271528003,-0.7088368361413478,-3.130597242091596
2024-12-07 18:32:20.462127400,2.53512744140625,0.7603789534606039,-1.3491747210741043,-3.737949095484614
2024-12-07 18:32:20.472101400,2.545101318359375,0.6098071375906468,-1.909002899008989,-3.8955546093836415
2024-12-07 18:32:20.482074600,2.55507470703125,0.5828153780296444,-2.392347556722164,-3.7205370651736858
2024-12-07 18:32:20.492048400,2.56504833984375,0.6612678602367639,-2.7652199153721333,-3.340545814429224
2024-12-07 18:32:20.502022400,2.5750224609375,0.9418868826031684,-2.984188244989514,-2.829915090383589
2024-12-07 18:32:20.511996400,2.584996337890625,1.1771873383402824,-2.968575080794096,-2.26063022505641
2024-12-07 18:32:20.521970400,2.594970458984375,1.267540393960476,-2.8211861327439545,-1.7698761678695678
2024-12-07 18:32:20.531943700,2.604943603515625,1.3360881527468562,-2.587617615365982,-1.3561311160832643
2024-12-07 18:32:20.541917400,2.61491748046875,1.2853048909708855,-2.347230065622925,-0.9322527928173542
2024-12-07 18:32:20.551891500,2.624891357421875,1.069036175701022,-2.2027350854486225,-0.6824567056726664
2024-12-07 18:32:20.561865500,2.634865478515625,0.6373001246720552,-1.9744062222898004,-0.5720758842851966
2024-12-07 18:32:20.571839500,2.644839599609375,0.1811529782250523,-1.692069290089607,-0.50708106874004
2024-12-07 18:32:20.581813500,2.6548134765625,-0.1773281592398881,-1.6006033047914503,-0.4888233813852071
2024-12-07 18:32:20.591786500,2.664786376953125,-0.4539180722206831,-1.4868138440042733,-0.476384901703149
2024-12-07 18:32:20.601760500,2.674760498046875,-0.6523582853332162,-1.3899988988935947,-0.4308010352011769
2024-12-07 18:32:20.611734300,2.684734375,-0.8053560131758452,-1.312412385866046,-0.19545725177899
2024-12-07 18:32:20.621708300,2.694708251953125,-0.895989931564033,-1.2733330058872698,0.2581343649663031
2024-12-07 18:32:20.631682300,2.704682373046875,-0.91098087220788,-1.2313485521167515,0.7797247283130884
2024-12-07 18:32:20.641656300,2.71465625,-0.9235141905665396,-1.1741454864263534,1.1539706403385848
2024-12-07 18:32:20.651629600,2.724629638671875,-1.0740507889926434,-1.093600708115101,1.4203563354954123
2024-12-07 18:32:20.661603300,2.734603271484375,-1.1059703603446482,-0.9470037872254848,1.575775445266068
2024-12-07 18:32:20.671577300,2.744577392578125,-1.1434598407834768,-0.7459002001225948,1.7617212107256053
2024-12-07 18:32:20.681551400,2.75455126953125,-1.3124556404858827,-0.5283277087777852,1.985436004217714
2024-12-07 18:32:20.691525400,2.764525390625,-1.4974297844342888,-0.2324351294338703,2.002800688255578
2024-12-07 18:32:20.701498600,2.77449853515625,-1.5234586903125047,0.1761281358003616,1.766348870526254
2024-12-07 18:32:20.711472400,2.784472412109375,-1.5370402025498449,0.6210124222159386,1.298217856296897
2024-12-07 18:32:20.721446400,2.7944462890625,-1.815537410456687,1.093577911761403,0.7614068352036177
2024-12-07 18:32:20.731420400,2.80442041015625,-2.40943780773282,1.631066832116246,0.5705773893557489
2024-12-07 18:32:20.741394400,2.81439453125,-3.0942858655214307,2.0055033713430164,0.7673414859496056
2024-12-07 18:32:20.751368400,2.824368408203125,-3.393959132447838,2.4449545267939565,1.1085353885270657
2024-12-07 18:32:20.761341700,2.834341796875,-3.0501018558800217,3.1033050382792946,1.087747525107488
2024-12-07 18:32:20.771315500,2.8443154296875,-2.3089660936802625,3.5600188786983487,0.5579209560740739
2024-12-07 18:32:20.781289500,2.85428955078125,-1.5333071535013616,3.5268893470346927,-0.322780294008553
2024-12-07 18:32:20.791263500,2.864263427734375,-0.7141209140241146,2.6027713453561065,-1.09651644943133
2024-12-07 18:32:20.801237500,2.874237548828125,0.2835620900809765,0.6878799728304147,-1.3821414633914828
2024-12-07 18:32:20.811211500,2.88421142578125,1.0073885516919194,-0.9732990889549256,-1.321852998906374
2024-12-07 18:32:20.821184500,2.8941845703125,1.1113520533829926,-1.955339118248224,-0.8994549042608588
2024-12-07 18:32:20.831158300,2.904158203125,0.98502649775818,-2.570395846930146,-0.1470029444072395
2024-12-07 18:32:20.841132300,2.91413232421875,1.1863901971019803,-2.914113422766328,0.4208627017717808
2024-12-07 18:32:20.851106300,2.924106201171875,1.664253793055564,-3.015032296064496,0.5073002644486725
2024-12-07 18:32:20.861080300,2.934080322265625,2.019233352140337,-2.61542799783349,0.2295131775725633
2024-12-07 18:32:20.871054300,2.944054443359375,2.347499530214072,-1.6631459779441355,-0.3336136035162955
2024-12-07 18:32:20.881027600,2.954027587890625,2.368804184049368,-0.5644979233115911,-0.9100054513044656
2024-12-07 18:32:20.891001300,2.96400146484375,2.107217632802576,0.288020238533616,-1.032443132645264
2024-12-07 18:32:20.900975400,2.973975341796875,1.7764175523370502,0.993281554275751,-0.7019566481735557
2024-12-07 18:32:20.910949400,2.983949462890625,1.2647073624916374,1.63754976439476,-0.2666409850921482
2024-12-07 18:32:20.920923400,2.99392333984375,0.7847527856081724,2.273914069521427,0.0706582481343299
2024-12-07 18:32:20.930896600,3.003896728515625,0.5962409690529108,2.7134786222189664,0.3255718974884599
2024-12-07 18:32:20.940870400,3.013870361328125,0.910734788492322,2.540310505267977,0.427480220215395
2024-12-07 18:32:20.950844400,3.023844482421875,1.5488148114956914,1.3277970020025969,0.3466558943103999
2024-12-07 18:32:20.960818400,3.033818359375,1.798447597837448,0.3085182521611452,0.2278768816076219
2024-12-07 18:32:20.970792400,3.04379248046875,1.6049217525124548,-0.2014081230074167,0.1629128995921462
2024-12-07 18:32:20.980766500,3.053766357421875,1.513720555630326,-0.2638397370010614,0.0801608204949647
2024-12-07 18:32:20.990739500,3.063739501953125,1.5482190375596283,-0.0080593878149986,-0.0757995565455406
2024-12-07 18:32:21.000713500,3.07371337890625,1.5511621052742004,0.3719587509363889,-0.2697697115719318
2024-12-07 18:32:21.010687500,3.0836875,1.5382365727275609,0.6521703615456819,-0.4718335950743407
2024-12-07 18:32:21.020661500,3.09366162109375,1.474951995166391,0.7843652475953101,-0.5803806251633912
2024-12-07 18:32:21.030635500,3.103635498046875,1.3051361112527549,0.7831342444956302,-0.5017682031542062
2024-12-07 18:32:21.040609500,3.113609619140625,1.1151789181947709,0.6718418612211943,-0.2595888015583157
2024-12-07 18:32:21.050582500,3.12358251953125,1.0415012491740283,0.4576420611798763,0.0147382810570299
2024-12-07 18:32:21.060556300,3.133556396484375,0.9890209742218256,0.1387070444226265,0.2246070661567151
2024-12-07 18:32:21.070530300,3.1435302734375,1.013150622349977,-0.1784972030192613,0.3858993057444691
2024-12-07 18:32:21.080504300,3.15350439453125,1.0725696835894136,-0.4416746767193079,0.5270055202633143
2024-12-07 18:32:21.090478300,3.163478271484375,1.0584481461912394,-0.566245643761754,0.6648020257122814
2024-12-07 18:32:21.100451600,3.17345166015625,0.9806821849435567,-0.4900310036092996,0.878272853891924
2024-12-07 18:32:21.110425600,3.183425537109375,0.8135211263876407,-0.3610667700439691,0.9921092225607484
2024-12-07 18:32:21.120399400,3.1933994140625,0.7039846468698233,-0.2696066299647092,1.0774029489647596
2024-12-07 18:32:21.130373400,3.203373291015625,0.6456651443701237,-0.1483569162994623,1.1369283201228826
2024-12-07 18:32:21.140347400,3.213347412109375,0.5126945977728814,-0.0832692348390817,1.182120995350182
2024-12-07 18:32:21.150321400,3.2233212890625,0.4193120382636785,-0.0467950689226388,1.1729856488667427
2024-12-07 18:32:21.160294700,3.233294677734375,0.1888433135319501,-0.1745095946878194,0.9597384733751416
2024-12-07 18:32:21.170268400,3.243268310546875,-0.1906547468680888,-0.258320096796751,0.6452525449812412
2024-12-07 18:32:21.180242400,3.253242431640625,-0.2686363236278295,-0.2298801842540502,0.4048827866232022
2024-12-07 18:32:21.190216400,3.263216552734375,-0.1496744286388158,-0.1505985577464103,0.2665307661833241
2024-12-07 18:32:21.200190500,3.2731904296875,-0.1265571724236011,-0.0711509270220994,0.0620168226476758
2024-12-07 18:32:21.210164500,3.28316455078125,-0.262610998923704,-0.0313660291224718,-0.0426349170358851
2024-12-07 18:32:21.220137500,3.293137451171875,-0.5848819917032495,-0.0695586893945932,-0.1328966411108151
2024-12-07 18:32:21.230111500,3.303111572265625,-1.0140724133700132,-0.1134030918180942,-0.1695666035939939
2024-12-07 18:32:21.240085500,3.31308544921875,-1.3642781821817158,-0.1798936258137226,-0.1044199219553731
2024-12-07 18:32:21.250059500,3.3230595703125,-1.6632956155478953,-0.0639373423814773,-0.0495585788192227
2024-12-07 18:32:21.260033500,3.333033447265625,-1.8907862743169068,-0.0401852953940629,-0.0938142106584273
2024-12-07 18:32:21.270006500,3.343006591796875,-2.053834563791752,0.0654565147727727,-0.1606019192360341
2024-12-07 18:32:21.279980500,3.35298046875,-2.091163885232806,0.1918506055891513,-0.226089669397287
2024-12-07 18:32:21.289954300,3.362954345703125,-2.074474616238475,0.5443108753293753,-0.2251378668314777
2024-12-07 18:32:21.299928300,3.37292822265625,-1.936850106355548,0.7120692421913146,-0.2145292329250834
2024-12-07 18:32:21.309902300,3.38290234375,-1.785715542036295,0.9851555309653282,-0.1451081984355114
2024-12-07 18:32:21.319876400,3.39287646484375,-1.627733888301253,0.9865689048945904,-0.0702389632763341
2024-12-07 18:32:21.329849600,3.402849609375,-1.503797127509117,0.7109656648635864,0.0376683258707635
2024-12-07 18:32:21.339823400,3.4128232421875,-1.4267700019299985,0.3993395098149776,0.428395143103227
2024-12-07 18:32:21.349797400,3.42279736328125,-1.3183359306961298,-0.1099883149385452,0.8052965380735695
2024-12-07 18:32:21.359771100,3.432771240234375,-1.0513754313260315,-0.3452244732677936,1.3201318742021917
2024-12-07 18:32:21.369745200,3.4427451171875,-0.8010954331219196,-0.3876221840143203,1.7618037744425237
2024-12-07 18:32:21.379719200,3.45271923828125,-0.361132236495614,-0.1225280630379915,2.152242769443244
2024-12-07 18:32:21.389692400,3.4626923828125,-0.0020878756573423,0.1640413921654224,2.259256160224229
2024-12-07 18:32:21.399666400,3.47266650390625,-0.0020657734233886,0.4423182353198528,1.8951262032173573
2024-12-07 18:32:21.409640200,3.48264013671875,-0.4572995313525199,0.9185556913763284,1.2456808827213943
2024-12-07 18:32:21.419614200,3.4926142578125,-1.179812499212101,1.67031806153059,0.529047109093517
2024-12-07 18:32:21.429588200,3.502588134765625,-1.944329063934088,2.579756964993477,-0.0551856614533811
2024-12-07 18:32:21.439561200,3.512561279296875,-2.6019834098488093,3.219073105663061,-0.7485995952744037
2024-12-07 18:32:21.449535200,3.52253515625,-2.851142879590392,3.334992564216256,-1.3771598755866288
2024-12-07 18:32:21.459509200,3.53250927734375,-2.5199182901024817,2.889835890600085,-1.813123773443699
2024-12-07 18:32:21.469483300,3.542483154296875,-1.849292234411836,2.042735662150383,-2.096172361044585
2024-12-07 18:32:21.479457000,3.55245703125,-1.0758265664935112,1.140757011565566,-2.313280449748039
2024-12-07 18:32:21.489431000,3.56243115234375,-0.3304267171084881,0.4664087204813957,-2.4704081170022487
2024-12-07 18:32:21.499404300,3.572404296875,0.2618256206996738,0.0886275470018386,-2.464818626432121
2024-12-07 18:32:21.509378300,3.58237841796875,1.0495125600636004,-0.0813601863473653,-2.0569553261607885
2024-12-07 18:32:21.519352300,3.592352294921875,2.201487131214141,-0.1452788240283727,-1.4544628954976797
2024-12-07 18:32:21.529326000,3.602326171875,2.7151374953418967,-0.0396937124848365,-0.796254349766299
2024-12-07 18:32:21.539300000,3.612300048828125,2.85633168040514,0.2261737309515476,-0.0306580269835889
2024-12-07 18:32:21.549274000,3.622274169921875,2.410305968869477,0.610069587919116,0.6085641517922282
2024-12-07 18:32:21.559247400,3.632247314453125,1.2365756391152738,0.810391669255495,0.8740035790748893
2024-12-07 18:32:21.569221400,3.642221435546875,0.1321659522160887,0.857522253742814,0.6791247847709805
2024-12-07 18:32:21.579195100,3.652195068359375,-0.1136255023971199,0.6539186665177344,-0.264662013169378
2024-12-07 18:32:21.589169200,3.662169189453125,0.3770329854607582,0.1355477036088705,-1.381560302502662
2024-12-07 18:32:21.599143200,3.67214306640625,1.0159300239354372,-0.4917150111734867,-2.153717810431868
2024-12-07 18:32:21.609116400,3.682116455078125,1.3398004512682555,-1.128244735994935,-2.593940388646722
2024-12-07 18:32:21.619090400,3.69209033203125,1.4375247663088142,-1.713361084443331,-2.7821605287790296
2024-12-07 18:32:21.629064400,3.702064453125,1.3519963543660938,-2.241325220605731,-2.724226810726523
2024-12-07 18:32:21.639038200,3.7120380859375,1.1886936517387627,-2.724263051083684,-2.448104807518422
2024-12-07 18:32:21.649012200,3.72201220703125,1.0158324087798596,-3.0154321090370413,-2.018991798469424
2024-12-07 18:32:21.658986200,3.731986328125,0.9595920506417752,-3.1294121239602566,-1.586455390843004
2024-12-07 18:32:21.668959200,3.741959228515625,1.0419164058461785,-3.093828769403696,-1.2104290251415222
2024-12-07 18:32:21.678933200,3.751933349609375,1.0887623281732202,-2.924993128699064,-0.8109636969897895
2024-12-07 18:32:21.688907300,3.7619072265625,0.8536620711833238,-2.6510136904776096,-0.4233003772474825
2024-12-07 18:32:21.698881000,3.771881103515625,0.4806365677982568,-2.41837222481668,-0.1924710025098174
2024-12-07 18:32:21.708855000,3.78185498046875,0.04964636670053,-2.3059704189956185,-0.1731339224204421
2024-12-07 18:32:21.718829000,3.7918291015625,-0.3247838889159262,-2.3180682685464618,-0.498268086078763
2024-12-07 18:32:21.728802300,3.80180224609375,-0.6949240461230277,-2.3610727130144835,-0.7503396438747644
2024-12-07 18:32:21.738776300,3.8117763671875,-1.076237923773378,-2.428995325639844,-0.728069506008178
2024-12-07 18:32:21.748750300,3.821750244140625,-1.4297041556857526,-2.4525521423161027,-0.4620155270237475
2024-12-07 18:32:21.758724000,3.83172412109375,-1.7301843550808726,-2.290162024489045,0.0899769157841801
2024-12-07 18:32:21.768698000,3.841697998046875,-1.944699650812149,-1.83098910048008,0.7961901254236697
2024-12-07 18:32:21.778671400,3.85167138671875,-2.150766997802257,-1.0833084466814995,1.5719272454053164
2024-12-07 18:32:21.788645400,3.861645263671875,-2.247782872312516,-0.1168383269637823,2.325283022230864
2024-12-07 18:32:21.798619400,3.871619384765625,-2.3609638458125293,0.9067758217334748,3.042698301625252
2024-12-07 18:32:21.808593200,3.88159326171875,-2.5957670195519924,1.874277038064599,3.870551977813243
2024-12-07 18:32:21.818567200,3.891567138671875,-2.953846882739663,2.727414208590984,4.7678480235397815
2024-12-07 18:32:21.828541200,3.901541259765625,-2.792005630967021,3.174361857277155,5.1905356757164
2024-12-07 18:32:21.840384300,3.91338427734375,-1.9096714459203183,3.0953268990069627,4.845615153831243
2024-12-07 18:32:21.850358300,3.923358154296875,-0.8331802780382335,3.2522780406504865,3.8855303512364623
2024-12-07 18:32:21.860332300,3.933332275390625,-0.0281616801232099,3.607418927776813,2.602617908360064
2024-12-07 18:32:21.870306300,3.943306396484375,0.6052798694245517,3.6373575544446703,1.15684210412167
2024-12-07 18:32:21.880280300,3.9532802734375,1.114661177930981,3.1877029848873613,-0.2609101132899523
2024-12-07 18:32:21.890253300,3.96325341796875,1.3563900592803957,2.006923759534955,-1.607176691832393
2024-12-07 18:32:21.900227300,3.973227294921875,1.4901457649059593,0.0877069250255823,-2.7906413568764923
2024-12-07 18:32:21.910201300,3.983201416015625,1.3445716111928223,-1.6492717663705347,-3.5294781944841143
2024-12-07 18:32:21.920175400,3.99317529296875,0.7152168925672769,-2.799620782145858,-3.8652810516729934
2024-12-07 18:32:21.930149400,4.0031494140625,0.0625479338496923,-3.570708615016937,-3.455807393595576
2024-12-07 18:32:21.940123400,4.013123291015625,0.0306780468583106,-3.733772686582803,-2.5131097791314123
2024-12-07 18:32:21.950096100,4.02309619140625,0.7123721706606447,-2.892394342911244,-1.60200265019536
2024-12-07 18:32:21.960070100,4.033070068359375,1.2073486678481102,-1.2753367469251156,-1.1178454339902848
2024-12-07 18:32:21.970044200,4.043044189453125,1.0690519577920437,0.4743243159115314,-1.1143836030986158
2024-12-07 18:32:21.980018200,4.05301806640625,0.712902185884118,1.7439134590953589,-1.0962033648941665
2024-12-07 18:32:21.989992200,4.0629921875,0.4092174913592636,2.2526240287333725,-0.8611408826313912
2024-12-07 18:32:21.999966200,4.07296630859375,0.215383018476516,2.3700042074888943,-0.532952957425639
2024-12-07 18:32:22.009939200,4.082939208984375,0.027988077121973,2.2703671906948086,-0.4829625995930284
2024-12-07 18:32:22.019913200,4.092913330078125,0.2205500458508729,2.025726659682393,-0.6587478402398527
2024-12-07 18:32:22.029887200,4.10288720703125,0.812117250939086,1.2088310153603552,-1.0236858256939798
2024-12-07 18:32:22.039861200,4.112861328125,1.4892787728130816,0.3617296178668737,-1.081977782599628
2024-12-07 18:32:22.049835300,4.122835205078125,2.1429916876256465,-0.115785018518567,-0.8541937669072299
2024-12-07 18:32:22.059808300,4.132808349609375,2.4362784683853387,-0.3728384563803673,-0.5594931007616222
2024-12-07 18:32:22.069782300,4.1427822265625,2.254261420676857,-0.4160293633311986,-0.2453547436963766
2024-12-07 18:32:22.079756300,4.15275634765625,1.9154034137010576,-0.2408516601234674,0.1518215236701071
2024-12-07 18:32:22.089730300,4.162730224609375,1.7017127322256564,0.0778168146520853,0.4449122704010456
2024-12-07 18:32:22.099704300,4.172704345703125,1.5402163483679294,0.3922995281755924,0.5339587734673172
2024-12-07 18:32:22.109678300,4.18267822265625,1.3261620942771437,0.6820972977757453,0.3938242535248398
2024-12-07 18:32:22.119651300,4.1926513671875,1.1048866567611693,0.8513017717927693,0.2203444402761757
2024-12-07 18:32:22.129625300,4.202625244140625,0.8094685630612075,0.8427595688968896,0.0742880560040473
2024-12-07 18:32:22.139599400,4.212599365234375,0.5946206743746996,0.5925391919255256,0.0362379460077732
2024-12-07 18:32:22.149573400,4.222573486328125,0.5771541373975575,0.2039659907966852,0.11582834620364
2024-12-07 18:32:22.159547400,4.23254736328125,0.5268101438216864,-0.2666261528491974,0.1013339569050818
2024-12-07 18:32:22.169521400,4.242521484375,0.5609007025372237,-0.6495183857321739,0.0357150911774486
2024-12-07 18:32:22.179494100,4.252494140625,0.7242173606246709,-0.8248737835943698,-0.0026435733113437
2024-12-07 18:32:22.189468200,4.26246826171875,0.8793548039097339,-0.8508961136013269,0.1094243243802338
2024-12-07 18:32:22.200065000,4.27306494140625,0.9189953249026088,-0.636481794026494,0.359369902998209
2024-12-07 18:32:22.210039000,4.2830390625,0.8454998805809766,-0.3199322111010551,0.5058832372575998
2024-12-07 18:32:22.220013000,4.293012939453125,0.630672230964899,-0.0514583845585584,0.70602828152664
2024-12-07 18:32:22.229987000,4.302987060546875,0.3047924365710467,0.1968704795777797,0.8319793047506362
2024-12-07 18:32:22.239961000,4.312961181640625,0.1039431895554065,0.1901443861931562,0.8458394877988845
2024-12-07 18:32:22.249934000,4.32293408203125,-0.0638390696387738,0.1164449437320232,0.7211220980230718
2024-12-07 18:32:22.259908000,4.332908203125,-0.2744196562696248,0.0294300926238298,0.5740899640539661
2024-12-07 18:32:22.269882000,4.342882080078125,-0.5097773220866918,-0.0955336731284856,0.3640851680170744
2024-12-07 18:32:22.279856000,4.352856201171875,-0.610347199284099,-0.1714724189490079,0.2248414229018613
2024-12-07 18:32:22.289830100,4.362830078125,-0.6131985335946083,-0.2303974861264228,0.2153804246606305
2024-12-07 18:32:22.299803100,4.37280322265625,-0.6419640248298645,-0.2224292837262153,0.2631169756844639
2024-12-07 18:32:22.309777200,4.382777099609375,-0.7811661592930554,-0.150461195102334,0.3687439536083489
2024-12-07 18:32:22.319751200,4.392751220703125,-0.766308124313876,-0.126115273874998,0.7170999298349022
2024-12-07 18:32:22.329725200,4.40272509765625,-0.6710445733636617,-0.2015355487793683,1.0539341758981349
2024-12-07 18:32:22.339699200,4.41269921875,-0.613154767518118,-0.2315636072963476,1.2690532827414571
2024-12-07 18:32:22.349673200,4.422673095703125,-0.6626402445685118,-0.1689391010791063,1.29965724145025
2024-12-07 18:32:22.359646200,4.432646240234375,-0.7266863080214708,-0.0705634825229644,1.2513739797964691
2024-12-07 18:32:22.369620000,4.442619873046875,-0.6682213326364755,0.0519482139021158,1.174488746906072
2024-12-07 18:32:22.379594000,4.452593994140625,-0.5090372808417305,0.1879337244063615,1.1494055974453687
2024-12-07 18:32:22.389568000,4.462568115234375,-0.4905400856425985,0.1824281127274036,0.9752133250784129
2024-12-07 18:32:22.399542000,4.4725419921875,-0.6006546573093161,0.2143324865102767,0.7123772852271795
2024-12-07 18:32:22.409516000,4.48251611328125,-0.9321001595389098,0.3183674460023641,0.5500310065418481
2024-12-07 18:32:22.419489000,4.492489013671875,-1.2714087598264217,0.1753174039393663,0.4432547124523669
2024-12-07 18:32:22.429463000,4.502463134765625,-1.4824246691346168,0.0126736036121845,0.5565070341555401
2024-12-07 18:32:22.439437000,4.51243701171875,-1.6277777274429797,-0.2184586265295743,0.7787515724319964
2024-12-07 18:32:22.449411000,4.5224111328125,-1.6198942807167769,-0.1690069056183099,1.1266299942746758
2024-12-07 18:32:22.459385000,4.532385009765625,-1.3833558076173067,0.0179126733094453,1.584274101281166
2024-12-07 18:32:22.469359000,4.542359130859375,-1.2632874126911162,0.1919832920581102,1.9048092467114328
2024-12-07 18:32:22.479332000,4.55233203125,-1.0407184282332658,0.5729769978433847,2.26262096048221
2024-12-07 18:32:22.489306000,4.56230615234375,-0.6305466318238526,1.026997361394763,2.644555600379407
2024-12-07 18:32:22.499280100,4.572280029296875,-0.0869493846565485,1.4495681091934445,2.92610985776931
2024-12-07 18:32:22.509254100,4.582254150390625,0.35569384483397,1.4865192449718714,2.857500139662623
2024-12-07 18:32:22.519228200,4.592228271484375,0.5053799639105796,1.0225777913868426,2.378166178895533
2024-12-07 18:32:22.529202200,4.6022021484375,0.3484937041968107,0.6066688395649195,1.8404168540388344
2024-12-07 18:32:22.539175200,4.612175048828125,-0.0825344908237457,0.6056354048639535,1.4650219911739228
2024-12-07 18:32:22.549149200,4.622149169921875,-0.6604377660881727,0.8468564828217029,1.0238171239234506
2024-12-07 18:32:22.559123200,4.632123291015625,-1.270924045049399,1.3038847960174085,0.4945127886658534
2024-12-07 18:32:22.569097000,4.642096923828125,-1.785386456212401,1.946999159926176,-0.0377413728406652
2024-12-07 18:32:22.579071000,4.652071044921875,-1.92875272461772,2.4832617533564565,-0.4516986426055431
2024-12-07 18:32:22.589044000,4.6620439453125,-1.7373218057453632,2.706817995285988,-0.7647218049705028
2024-12-07 18:32:22.599018000,4.67201806640625,-1.6155166501544416,2.413013912653923,-1.1734424527235328
2024-12-07 18:32:22.608992000,4.681991943359375,-1.3567780356846748,1.867178604236245,-1.357566117322445
2024-12-07 18:32:22.618966000,4.691966064453125,-1.4625661224544046,1.136620350152254,-1.304713355796039
2024-12-07 18:32:22.628940000,4.70193994140625,-1.958531338418275,0.3169534875512123,-1.2385381713598966
2024-12-07 18:32:22.638914000,4.7119140625,-2.084339592170715,-0.3798006966084241,-1.4730940923400222
2024-12-07 18:32:22.648887000,4.721886962890625,-0.9802969850182532,-0.8248071480989456,-1.4238589367888868
2024-12-07 18:32:22.658861000,4.731861083984375,0.7019318790584802,-0.8858341559916734,-1.2737369105130434
2024-12-07 18:32:22.668835000,4.7418349609375,2.8589585217773914,-0.6554173806428909,-1.094094994438067
2024-12-07 18:32:22.678809000,4.75180908203125,4.594035763466358,-0.1627098513007163,-0.5554242438875139
2024-12-07 18:32:22.688783000,4.761783203125,5.093057882782817,0.4740642036706209,0.1821926965363323
2024-12-07 18:32:22.698757000,4.771757080078125,4.503073928298056,1.0560393314838408,0.8110505715556442
2024-12-07 18:32:22.708730000,4.781730224609375,3.268685570093989,1.414325530898571,1.1802140657503155
2024-12-07 18:32:22.718704000,4.7917041015625,1.433458685913682,1.5259972688794134,1.050237805598229
2024-12-07 18:32:22.728678100,4.80167822265625,0.2418283962011337,1.2988456328064202,0.3204247438583523
2024-12-07 18:32:22.738652200,4.811652099609375,0.5465510554715991,0.6523515633314848,-0.9147297764126212
2024-12-07 18:32:22.748626200,4.821626220703125,1.3473346461653708,-0.2566220607072115,-2.0320073473870752
2024-12-07 18:32:22.758600200,4.83160009765625,1.9584245170429349,-1.1930062542408704,-2.6298183422356844
2024-12-07 18:32:22.768573000,4.841572998046875,2.1587316930711267,-1.8563006518691776,-2.622767254680395
2024-12-07 18:32:22.778547000,4.851546875,2.15833538722992,-2.281510515999794,-2.283842173817753
2024-12-07 18:32:22.788521000,4.86152099609375,2.1211375832140447,-2.4372002594053743,-1.9373259071737527
2024-12-07 18:32:22.798495000,4.871494873046875,1.6857362876757978,-2.4198592485040424,-1.7864364036567508
2024-12-07 18:32:22.808469000,4.881468994140625,1.290312928391248,-2.390761748835444,-1.901421942360699
2024-12-07 18:32:22.818443000,4.891443115234375,0.6477450924493372,-2.172812240871787,-1.8411086356952784
2024-12-07 18:32:22.828416000,4.901416015625,0.3547071718841791,-1.950531425705552,-1.709115701958537
2024-12-07 18:32:22.838390000,4.91139013671875,0.4501743556477129,-1.868704206368327,-1.5713760412633415
2024-12-07 18:32:22.848364000,4.921364013671875,0.1740975067555904,-1.9304332250505685,-1.471252702257037
2024-12-07 18:32:22.858338000,4.931338134765625,-0.1348573832571506,-1.971969350531697,-1.3380772807374597
2024-12-07 18:32:22.868312000,4.94131201171875,-0.5886559207513928,-2.010192990463972,-1.3884806032851338
2024-12-07 18:32:22.878285000,4.95128515625,-0.9651401862882076,-2.052528741890192,-1.434472831392288
2024-12-07 18:32:22.888259000,4.961259033203125,-1.2236515678733586,-2.133516587793827,-1.583802392116189
2024-12-07 18:32:22.898233000,4.971233154296875,-1.4321217382214964,-2.1269377939254044,-1.634659595911205
2024-12-07 18:32:22.908207000,4.98120703125,-1.554804845690727,-1.909406803634763,-1.5981345765903592
2024-12-07 18:32:22.918181000,4.99118115234375,-1.5130501090228556,-1.4749708459973334,-1.4333847438946363
2024-12-07 18:32:22.928155100,5.001155029296875,-1.249226592504233,-0.8524281454741954,-0.9599164602905512
2024-12-07 18:32:22.938128100,5.011128173828125,-1.113737925606221,-0.3245002496689558,-0.3669668609332293
2024-12-07 18:32:22.948102100,5.02110205078125,-1.4294861290208996,0.0256546657383441,0.2605257901474833
2024-12-07 18:32:22.958076200,5.031076171875,-1.773758562260866,0.235068985068798,0.7896770902678371
2024-12-07 18:32:22.968050200,5.04105029296875,-2.1340015948317945,0.4216220687717199,1.2509087003722783
2024-12-07 18:32:22.978024200,5.051024169921875,-2.836180288258195,0.5931470946907996,1.7065835531324147
2024-12-07 18:32:22.987998200,5.060998291015625,-3.3389801725476977,0.7876555213123559,2.2997400001734496
2024-12-07 18:32:22.997971000,5.070970947265625,-3.616215982216597,0.9623808045774698,2.541933138033748
2024-12-07 18:32:23.007945000,5.080945068359375,-3.889377674314379,1.1624082868814467,2.226715972755849
2024-12-07 18:32:23.017919000,5.0909189453125,-3.918644685330986,1.7197230206906795,1.8409113595575093
2024-12-07 18:32:23.027893000,5.10089306640625,-3.818868552327156,2.4757722743839023,1.4551280814081429
2024-12-07 18:32:23.037867000,5.110866943359375,-3.667005673733353,2.806825014436245,0.666932608000189
2024-12-07 18:32:23.047841000,5.120841064453125,-3.2150720533281563,2.7813620718777177,-0.1721496606234461
2024-12-07 18:32:23.057814000,5.13081396484375,-2.5758523587703706,2.4841531492382285,-0.907237886287272
2024-12-07 18:32:23.067788000,5.1407880859375,-1.580184932271391,1.8960335273206232,-1.6238316201657057
2024-12-07 18:32:23.077762000,5.150761962890625,-0.0854201292626559,0.9580582652032374,-2.284361813777685
2024-12-07 18:32:23.087736000,5.160736083984375,2.106130714348704,-0.3382230700731277,-2.737244113209844
2024-12-07 18:32:23.097710000,5.1707099609375,4.040044036599993,-1.5573165362507104,-3.001006401060521
2024-12-07 18:32:23.107684000,5.18068408203125,4.364593386107683,-2.487225980812311,-3.1371868496149777
2024-12-07 18:32:23.117657000,5.190656982421875,3.4454572644948955,-3.1032723050534723,-3.344387000027299
2024-12-07 18:32:23.127631000,5.200631103515625,2.0834043571472165,-3.118847475326061,-3.280101867121458
2024-12-07 18:32:23.137605000,5.210605224609375,0.1479039118349552,-2.5394325533896684,-2.4191977158553897
2024-12-07 18:32:23.147579100,5.2205791015625,-0.900056596481055,-1.7529197723716496,-0.6492689410157502
2024-12-07 18:32:23.157553200,5.23055322265625,-0.1413736332833766,-0.810341400372982,0.3577694820642471
2024-12-07 18:32:23.167527200,5.240527099609375,0.7553677011698484,-0.0447901588410139,0.4116431110709905
2024-12-07 18:32:23.177500200,5.250500244140625,0.8954230914615094,0.834261789664626,0.4819268998697399
2024-12-07 18:32:23.187474200,5.26047412109375,2.106155556529015,1.9546926370382307,1.3498403453759849
2024-12-07 18:32:23.197448200,5.2704482421875,3.236082108131051,2.402956629019976,1.7932482756286858
2024-12-07 18:32:23.207422200,5.280422119140625,3.502818151095509,2.46577987267971,1.518483824509382
2024-12-07 18:32:23.217396200,5.290396240234375,2.5312708742439747,2.573674430209398,0.7465651668373495
2024-12-07 18:32:23.227370200,5.300370361328125,1.0124176319003104,2.4356068527340886,-0.1839616059049963
2024-12-07 18:32:23.237343000,5.310343017578125,-0.341972047343105,1.678925146356225,-1.137799330803752
2024-12-07 18:32:23.247317000,5.32031689453125,-1.0658534540116786,0.3559481118559837,-1.9500570861920712
2024-12-07 18:32:23.257291000,5.330291015625,-0.8100218130297958,-0.4336638042211532,-2.5082062249988315
2024-12-07 18:32:23.267265000,5.34026513671875,0.3010978929020464,-0.7164584170609712,-2.497894089820981
2024-12-07 18:32:23.277239000,5.350239013671875,1.5670393272332843,-0.5956050092369317,-1.793311403992772
2024-12-07 18:32:23.287213000,5.360213134765625,2.313038457685709,-0.2086982800155878,-0.5419446576546877
2024-12-07 18:32:23.297186000,5.37018603515625,2.623060100147128,0.3329337314933538,0.8318223606232553
2024-12-07 18:32:23.307160000,5.38016015625,2.427926965755969,0.9040408438116312,1.909670715267956
2024-12-07 18:32:23.317134000,5.390134033203125,2.0431993341393766,1.2452110732525583,2.639162801425159
2024-12-07 18:32:23.327108000,5.400108154296875,1.715392444140464,1.3288526485353709,2.923488277094066
2024-12-07 18:32:23.337082000,5.41008203125,1.3127986087046564,1.0868716921210289,2.6647292043581605
2024-12-07 18:32:23.347055400,5.420055419921875,0.8496955056399107,0.8134183236002922,2.016553757667541
2024-12-07 18:32:23.357029400,5.430029296875,0.3187543994933366,0.6484504642397165,1.0819388388287274
2024-12-07 18:32:23.367003400,5.44000341796875,0.2589573717869818,0.4799462474465369,0.2669121301837265
2024-12-07 18:32:23.376977400,5.449977294921875,0.4655010310519486,0.2836187887042761,-0.3465964192081243
2024-12-07 18:32:23.386951400,5.459951416015625,0.9462357985276728,0.0147802205026149,-0.6776079504672438
2024-12-07 18:32:23.396925400,5.469925537109375,1.3357389009177685,-0.2689706701487303,-0.9076332422804086
2024-12-07 18:32:23.406898400,5.4798984375,1.4393949440948663,-0.4282686671793461,-0.998770872407034
2024-12-07 18:32:23.416872400,5.48987255859375,1.312568453210592,-0.4572445862948894,-0.9206873696427792
2024-12-07 18:32:23.426846500,5.499846435546875,0.8626724761128425,-0.4127870204091072,-0.8471394644815474
2024-12-07 18:32:23.436820500,5.509820556640625,0.2363461653977632,-0.3051338704198598,-0.7954954942230135
2024-12-07 18:32:23.446794500,5.51979443359375,-0.1417237618952989,-0.2077209594160318,-0.6554051056832074
2024-12-07 18:32:23.456768500,5.5297685546875,-0.2558872436266392,-0.0680307491749525,-0.352438861626014
2024-12-07 18:32:23.466741500,5.539741455078125,-0.1669347024541348,-0.065299278384447,-0.0087338530104607
2024-12-07 18:32:23.476715500,5.549715576171875,-0.0418201300542801,-0.1348848557859659,0.2180654624935239
2024-12-07 18:32:23.486689500,5.559689453125,0.0802314015131443,-0.1021171431720256,0.4519204686626791
2024-12-07 18:32:23.496663600,5.56966357421875,0.1751747075330466,-0.2124064868837595,0.6071883333943784
2024-12-07 18:32:23.506637600,5.579637451171875,0.1845779842376708,-0.262753110808134,0.7805464930247515
2024-12-07 18:32:23.516611600,5.589611572265625,0.0633322891604155,-0.3882207344293594,0.8450026716485619
2024-12-07 18:32:23.526584300,5.599584228515625,-0.1204226151913404,-0.4455488878041505,0.8529418671499938
2024-12-07 18:32:23.536558300,5.609558349609375,-0.2287673276413231,-0.3846376152455806,0.8904140311278402
2024-12-07 18:32:23.546532400,5.619532470703125,-0.1760579931735992,-0.2768874346226453,0.8902797372236847
2024-12-07 18:32:23.556506400,5.62950634765625,-0.181258922817558,-0.1294698449999094,0.8824475822933018
2024-12-07 18:32:23.566480400,5.63948046875,-0.2196153953492641,-0.0071463646233081,0.872256735407561
2024-12-07 18:32:23.576454400,5.649454345703125,-0.408384474601224,0.065317983084917,0.7739660186558961
2024-12-07 18:32:23.586427400,5.659427490234375,-0.5232504785787314,0.0848047738432884,0.7619346584700047
2024-12-07 18:32:23.596401400,5.6694013671875,-0.3939011912185698,-0.0423053562879562,0.7531511941641569
2024-12-07 18:32:23.606375400,5.67937548828125,-0.1969072313915938,0.0985965678304433,0.7534117447964847
2024-12-07 18:32:23.616349400,5.689349365234375,-0.0537285945128649,0.0669680883795022,0.5510820864973589
2024-12-07 18:32:23.626323500,5.699323486328125,0.0893856718927621,-0.1136842468470334,0.166342837508209
2024-12-07 18:32:23.636297500,5.70929736328125,-0.0588888998854905,-0.1664957995802164,-0.1933558590529486
2024-12-07 18:32:23.646270500,5.7192705078125,-0.5465280399221927,-0.1445616156697273,-0.3548239666642621
2024-12-07 18:32:23.656244500,5.729244384765625,-1.0837784022808077,-0.1312374391943216,-0.3310669877734035
2024-12-07 18:32:23.666218500,5.739218505859375,-1.5662912853449582,-0.1496650762885809,-0.0984620912631973
2024-12-07 18:32:23.676192500,5.749192626953125,-1.8051508948683737,-0.1662871252655983,0.2751580170141532
2024-12-07 18:32:23.686166500,5.75916650390625,-1.593655093088746,0.0046399347603321,0.7750200577534735
2024-12-07 18:32:23.696140500,5.769140625,-1.1546505854267626,0.1957756700783967,1.335847183597833
2024-12-07 18:32:23.706113500,5.779113525390625,-0.7357919900190085,0.4196072218179703,1.90558870665133
2024-12-07 18:32:23.716087600,5.789087646484375,-0.270740529365465,0.497417606729269,2.4234258549444374
2024-12-07 18:32:23.726061600,5.7990615234375,0.2349952622454613,0.671825494608283,2.939521712528169
2024-12-07 18:32:23.736035600,5.80903564453125,0.5023070592712611,0.55860652718544,3.072742434494198
2024-12-07 18:32:23.746009600,5.819009521484375,0.5220896911710501,0.7563485289007424,3.1440576121672987
2024-12-07 18:32:23.755982300,5.828982421875,0.1988648682653903,0.7096978368848562,2.745127852196992
2024-12-07 18:32:23.765956400,5.838956298828125,-0.0299130538351833,0.809647572889924,2.205998178897798
2024-12-07 18:32:23.775930400,5.848930419921875,-0.0122386462610214,0.949700186702609,1.7621373903110622
2024-12-07 18:32:23.785904400,5.858904296875,-0.0161713095348328,1.0338894589960574,1.151371417625621
2024-12-07 18:32:23.795878400,5.86887841796875,0.1536534152723848,1.1313222437441348,0.6747747728679329
2024-12-07 18:32:23.805852400,5.878852294921875,0.2176250983148813,0.9474462702959776,-0.0375817252995446
2024-12-07 18:32:23.815825400,5.888825439453125,0.3268447669684887,0.7519260362833737,-0.5300083918737247
2024-12-07 18:32:23.825799400,5.89879931640625,0.1694987807884812,0.177391872125864,-1.2542198707468808
2024-12-07 18:32:23.835773400,5.9087734375,-0.3494581653147935,-0.1021685810983181,-1.4519867146424947
2024-12-07 18:32:23.845747500,5.91874755859375,-0.8549277072049677,-0.4995739079803228,-1.406927675732225
2024-12-07 18:32:23.855721500,5.928721435546875,-1.5367857893973589,-0.6939210065603256,-1.2464954139746725
2024-12-07 18:32:23.865695500,5.938695556640625,-2.299535271381586,-0.5668897868841887,-1.1237567038606853
2024-12-07 18:32:23.875668500,5.94866845703125,-3.2725995286673304,-0.0318698869913816,-0.98377196765244
2024-12-07 18:32:23.885642500,5.958642578125,-4.09566480153501,0.5446218409746885,-0.9768138921428472
2024-12-07 18:32:23.895616500,5.968616455078125,-3.936706996244192,1.0479045403450726,-1.0950090405430644
2024-12-07 18:32:23.905590500,5.978590576171875,-3.314937618181109,1.733519490852952,-1.1740038129333406
2024-12-07 18:32:23.915564500,5.988564453125,-2.724782106521725,2.4447417608261106,-1.0936561646293848
2024-12-07 18:32:23.925538600,5.99853857421875,-2.163978946074843,2.653620658105611,-1.2426789244264365
2024-12-07 18:32:23.935511600,6.008511474609375,-1.4586309749625623,2.352091534179449,-1.848368689826131
2024-12-07 18:32:23.945485600,6.018485595703125,-0.8499993108920753,1.6325316439718007,-2.622458042600751
2024-12-07 18:32:23.955459600,6.02845947265625,0.1268963412500917,0.919119754999876,-3.067175740277767
2024-12-07 18:32:23.965433600,6.03843359375,1.683306868571788,0.3812111479282379,-3.0164313492074606
2024-12-07 18:32:23.975407600,6.04840771484375,3.589328852073848,-0.0746294167876243,-2.436411008723825
2024-12-07 18:32:23.985381600,6.058381591796875,5.0163633501589295,-0.5178016385883093,-1.469574247650802
2024-12-07 18:32:23.995354400,6.068354248046875,5.432227293795347,-0.7538233943372964,-0.2680069396831095
2024-12-07 18:32:24.005328400,6.078328369140625,4.655644370639324,-0.685747636976838,0.9414479066640138
2024-12-07 18:32:24.015302400,6.088302490234375,2.813638201582432,-0.6151596045345068,1.9026884551651777
2024-12-07 18:32:24.025276400,6.0982763671875,0.7926888393044471,-0.5208873296439648,2.5582278547525403
2024-12-07 18:32:24.035250400,6.10825048828125,-0.5742325508624315,-0.2253197444707155,2.706443901276588
2024-12-07 18:32:24.045224400,6.118224365234375,-0.922075682196021,0.0856628519773483,2.5472797597587107
2024-12-07 18:32:24.055197400,6.128197509765625,-0.8744760188922286,0.2653103940755129,1.5570277824372052
2024-12-07 18:32:24.065171500,6.13817138671875,-0.4192693681657314,0.0326081381380558,0.2181840473718941
2024-12-07 18:32:24.075145500,6.1481455078125,0.3168012195989489,-0.4002946185827255,-0.6372814199715853
2024-12-07 18:32:24.085119500,6.158119384765625,0.9790452313914896,-0.8127361865550279,-1.0350279615066944
2024-12-07 18:32:24.095093500,6.168093505859375,1.337444243530929,-1.1898656181275844,-1.362220226738602
2024-12-07 18:32:24.105066500,6.17806640625,1.4580787479072808,-1.5178858586162327,-1.5727467450946568
2024-12-07 18:32:24.115040500,6.18804052734375,1.3480742124862968,-1.7668389921307563,-1.6156657032363115
2024-12-07 18:32:24.125014500,6.1980146484375,1.090242191467434,-1.9566852721601724,-1.5441430202923714
2024-12-07 18:32:24.134988500,6.207988525390625,0.8896177661836147,-2.047213684347272,-1.3615779833123087
2024-12-07 18:32:24.144962600,6.217962646484375,0.7133972759246826,-1.9905273360073563,-1.14255850802958
2024-12-07 18:32:24.154936600,6.2279365234375,0.512738509979844,-1.803088117119669,-0.9317994960919022
2024-12-07 18:32:24.164910600,6.23791064453125,0.22760522505939,-1.6254636052817106,-0.8183402901723981
2024-12-07 18:32:24.174883600,6.247883544921875,-0.1034749875217676,-1.552464420044422,-0.8750202087715268
2024-12-07 18:32:24.184857600,6.257857666015625,-0.3343621568612754,-1.7117413742870091,-1.1278189117982982
2024-12-07 18:32:24.194831600,6.26783154296875,-0.464794855543971,-2.096159209302068,-1.6186436961337922
2024-12-07 18:32:24.204805400,6.277805419921875,-0.7282090606093407,-2.365687513333559,-1.9158301146805288
2024-12-07 18:32:24.214779400,6.287779296875,-1.0522297100678086,-2.5516554906249045,-1.9437971490144728
2024-12-07 18:32:24.224752400,6.29775244140625,-1.204511983117461,-2.83825943261981,-1.9483640185385944
2024-12-07 18:32:24.234726400,6.307726318359375,-1.6629337964981794,-2.743707171744108,-1.810721388477087
2024-12-07 18:32:24.244700400,6.317700439453125,-2.2916584005266425,-2.096461991640925,-0.9600517771080136
2024-12-07 18:32:24.254674400,6.32767431640625,-2.507069914445281,-1.5428537111341951,0.0625588205698877
2024-12-07 18:32:24.264648400,6.3376484375,-2.5874779146343467,-1.0687596968472004,0.8388564970437437
2024-12-07 18:32:24.274622500,6.34762255859375,-2.730295316985249,-0.5791822822242975,1.540339974747598
2024-12-07 18:32:24.284595500,6.357595458984375,-2.838374583432078,-0.1477870074570179,2.241354446700216
2024-12-07 18:32:24.294569500,6.367569580078125,-2.975714431154728,0.1570452496677637,2.890225182178616
2024-12-07 18:32:24.304543500,6.37754345703125,-3.352305518066883,0.3736667238980531,3.382632851791381
2024-12-07 18:32:24.314517500,6.387517578125,-3.753945706039667,0.8028074977368116,3.2516873812809584
2024-12-07 18:32:24.324491500,6.397491455078125,-3.641737376964092,1.586862948730588,2.523460785014928
2024-12-07 18:32:24.334465500,6.407465576171875,-3.1173417469382283,2.6316303600937125,1.7624629690036178
2024-12-07 18:32:24.344438500,6.4174384765625,-2.761936655917764,3.531661383742094,1.4892983542963862
2024-12-07 18:32:24.354412500,6.42741259765625,-1.8551788082323968,4.003075365164876,1.6450458192385733
2024-12-07 18:32:24.364386600,6.437386474609375,-0.4746298747293651,3.9562113226592537,0.8951073035106062
2024-12-07 18:32:24.374360600,6.447360595703125,1.0433397166475653,3.280009512662887,-0.6147130298107862
2024-12-07 18:32:24.384334600,6.45733447265625,2.7299387586325405,1.896031773754954,-1.900547351483256
2024-12-07 18:32:24.394307300,6.467307373046875,3.963334306406975,-0.1750672285705804,-2.943714780303836
2024-12-07 18:32:24.404281300,6.47728125,3.546913021148741,-1.9732149666786192,-3.6436388266712414
2024-12-07 18:32:24.414255400,6.48725537109375,1.854948944999277,-2.8772108023047447,-3.745168525344133
2024-12-07 18:32:24.424229400,6.4972294921875,0.8755361954696476,-2.8922353529572487,-2.457613809619844
2024-12-07 18:32:24.434203400,6.507203369140625,1.1415709582969549,-2.1852952903479337,-0.9213453220948576
2024-12-07 18:32:24.444177400,6.517177490234375,1.588856752896309,-0.8287140924096107,0.2900797283466905
2024-12-07 18:32:24.454150400,6.527150390625,1.491607800282538,0.7915992905020713,0.9728922617197036
2024-12-07 18:32:24.464124400,6.53712451171875,1.2617609337761997,2.126521614339948,0.934818405521661
2024-12-07 18:32:24.474098400,6.547098388671875,1.4288932776942849,2.863238975575566,0.5873452034790069
2024-12-07 18:32:24.484072400,6.557072509765625,1.7610279677644372,3.062929773271084,0.4086459750816226
2024-12-07 18:32:24.494046500,6.56704638671875,1.8477178247019648,2.569718970581889,0.1130879614543169
2024-12-07 18:32:24.504020500,6.5770205078125,1.5136200178653,1.5431307745099068,-0.1566833575528115
2024-12-07 18:32:24.513993500,6.586993408203125,1.285035134118795,0.5039519769340753,-0.1243622196625918
2024-12-07 18:32:24.523967500,6.596967529296875,1.245619800183922,-0.147948920020461,0.2189952176243066
2024-12-07 18:32:24.533941500,6.60694140625,1.206090192219615,-0.3321083865851164,0.8992267945934086
2024-12-07 18:32:24.543915500,6.61691552734375,1.0921915719695388,-0.1806324614822864,1.4707532283023
2024-12-07 18:32:24.553889500,6.6268896484375,0.9925101315118372,0.0377156904101371,1.7331468581482767
2024-12-07 18:32:24.563863600,6.636863525390625,1.0696943473488092,0.206172560930252,1.7577935158878564
2024-12-07 18:32:24.573836500,6.64683642578125,1.063376980895549,0.282669525155425,1.453155758421868
2024-12-07 18:32:24.583810600,6.656810546875,1.0635247188031671,0.2029506762742996,1.0028047310329973
2024-12-07 18:32:24.593784600,6.66678466796875,1.0592227838255464,-0.0190823016107082,0.54731173764579
2024-12-07 18:32:24.603758600,6.676758544921875,0.9110054221272468,-0.2558598441630602,-0.0169743695460259
2024-12-07 18:32:24.613732600,6.686732666015625,0.6316087811626494,-0.356426835283637,-0.574300282336399
2024-12-07 18:32:24.623706600,6.69670654296875,0.3753566497463733,-0.2936865937322378,-1.0675007828272878
2024-12-07 18:32:24.633679400,6.706679443359375,0.1697779630560427,-0.1501134045779704,-1.3992109638750552
2024-12-07 18:32:24.643653400,6.7166533203125,0.1140026651464402,-0.0443961910873651,-1.4941621609404685
2024-12-07 18:32:24.653627400,6.72662744140625,0.0414262353658676,0.0105547117620706,-1.4618220260888335
2024-12-07 18:32:24.663601400,6.736601318359375,-0.052620998597145,-0.1000941129118204,-1.3297590958558023
2024-12-07 18:32:24.673575400,6.746575439453125,-0.0210603236854076,-0.2971984012454748,-1.1067892755120992
2024-12-07 18:32:24.683549400,6.756549560546875,0.0577163489747792,-0.4599830713480711,-0.8873127041116357
2024-12-07 18:32:24.693522400,6.7665224609375,0.1957745010346174,-0.462485994079709,-0.4793728314727544
2024-12-07 18:32:24.703496400,6.776496337890625,0.2344185583360493,-0.4215004882186651,0.1662088723976165
2024-12-07 18:32:24.713470500,6.786470458984375,0.2560534670390189,-0.2109586261630058,0.8895571220375597
2024-12-07 18:32:24.723444500,6.796444580078125,0.1503770239502191,-0.0581406388014554,1.320052963747084
2024-12-07 18:32:24.733418500,6.80641845703125,0.0851041221160441,-0.0216068516522645,1.5924869260922074
2024-12-07 18:32:24.743391500,6.8163916015625,-0.0736164403527975,0.148788293454051,1.6478114845596252
2024-12-07 18:32:24.753365500,6.826365478515625,-0.3242809808950871,0.0495335539758205,1.5353244846731424
2024-12-07 18:32:24.763339500,6.836339599609375,-0.4357615802180021,-0.0056084875315427,1.3119526593998074
2024-12-07 18:32:24.773313500,6.8463134765625,-0.7227133127372711,0.0562584783166646,0.777161015304923
2024-12-07 18:32:24.783287600,6.85628759765625,-1.0142718083996325,0.0374351199030876,0.2705013503147289
2024-12-07 18:32:24.793261600,6.866261474609375,-1.1312438447456803,0.0622282003760337,-0.0250618144117295
2024-12-07 18:32:24.803234600,6.876234619140625,-1.121884553313255,0.0820943458408117,-0.1770356060341
2024-12-07 18:32:24.813208600,6.88620849609375,-1.1007821440517902,0.0979302128762006,-0.2247131934123113
2024-12-07 18:32:24.823182600,6.8961826171875,-0.9701257196158172,0.0201227505743503,-0.1622392929132096
2024-12-07 18:32:24.833156600,6.906156494140625,-0.9726228701937945,-0.0432844304531812,-0.120327867846284
2024-12-07 18:32:24.843130600,6.916130615234375,-0.907829203243926,-0.162436295056343,0.0360380943204276
2024-12-07 18:32:24.853104600,6.926104736328125,-0.8880037551157176,-0.148847914686799,0.1699402044130489
2024-12-07 18:32:24.863077400,6.936077392578125,-0.9982008174341171,-0.0933802944868803,0.3298826733596622
2024-12-07 18:32:24.873051400,6.946051513671875,-1.1170932273834944,-0.1512087985992431,0.4746544246487319
2024-12-07 18:32:24.883025400,6.956025390625,-1.228307869246602,0.0325520240366458,0.7320997113723308
2024-12-07 18:32:24.892999400,6.96599951171875,-1.2687608756661417,0.0012806874603033,0.9093306207828225
2024-12-07 18:32:24.902973400,6.975973388671875,-0.9511912289779632,-0.0001268412500619,1.1730857482403516
2024-12-07 18:32:24.912947500,6.985947509765625,-0.7087508383583278,0.0770873313337564,1.3382260415583849
2024-12-07 18:32:24.922920400,6.99592041015625,-0.5232277552902698,0.259601368778944,1.44456840121001
2024-12-07 18:32:24.932894500,7.00589453125,-0.3552132947754114,0.4209147972851991,1.381376616498828
2024-12-07 18:32:24.942868500,7.015868408203125,-0.2566705760240554,0.5104121128588914,1.301808720395714
2024-12-07 18:32:24.952842500,7.025842529296875,-0.2751467284351587,0.3824316296339035,1.1555360630244016
2024-12-07 18:32:24.962816500,7.03581640625,-0.2873136976994574,0.3597393208324909,1.118499513984844
2024-12-07 18:32:24.972790500,7.04579052734375,-0.1061002214588224,0.6070914488911628,1.2457371429532766
2024-12-07 18:32:24.982763500,7.055763427734375,0.1968921068876981,0.985258406817913,1.277456953949481
2024-12-07 18:32:24.992737500,7.065737548828125,0.4267126699090003,1.390386436906457,1.2598071693599224
2024-12-07 18:32:25.002711600,7.075711669921875,0.3833440683037042,1.3611422222435474,0.9228845143608748
2024-12-07 18:32:25.012685600,7.085685546875,0.0139835171669721,1.2572709288805723,0.6001761896099895
2024-12-07 18:32:25.022659600,7.09565966796875,-0.6382149014294147,1.254630643504858,0.440033704579249
2024-12-07 18:32:25.032632600,7.105632568359375,-1.254775166542083,1.3441869957894086,0.3945368953062221
2024-12-07 18:32:25.042606600,7.115606689453125,-1.6389458949282765,1.4087778336435557,0.2190925405189394
2024-12-07 18:32:25.052580600,7.12558056640625,-2.0488012457996607,1.361806823632121,-0.1625880515519529
2024-12-07 18:32:25.062554600,7.1355546875,-2.619094703647494,1.192773614528775,-0.7361477446541189
2024-12-07 18:32:25.072528600,7.145528564453125,-3.298240750402212,1.0292460171043871,-1.4597051800653338
2024-12-07 18:32:25.082502700,7.155502685546875,-3.586474923947453,0.907489522960782,-2.4122091721422967
2024-12-07 18:32:25.092475400,7.165475341796875,-2.964317131088674,0.7399848385989666,-3.5250019258528944
2024-12-07 18:32:25.102449400,7.175449462890625,-1.276803896868229,0.6702566378563642,-4.108223546595871
2024-12-07 18:32:25.112423400,7.18542333984375,1.4243795996621251,0.4090864123255014,-4.103865059125424
2024-12-07 18:32:25.122397400,7.1953974609375,3.4175048432081936,-0.0795236185699701,-3.672959321440756
2024-12-07 18:32:25.132371500,7.205371337890625,4.890404728150368,-0.0805745889276266,-2.263238361728192
2024-12-07 18:32:25.142345500,7.215345458984375,5.263371779346466,0.1837707595080137,-0.5843881072390824
2024-12-07 18:32:25.152318500,7.225318359375,3.9580733171388505,0.6092606096237898,1.0249243545129894
2024-12-07 18:32:25.162292500,7.23529248046875,1.3133791850715877,1.0109867223143576,1.950365421488881
2024-12-07 18:32:25.172266500,7.2452666015625,-0.7899360334649682,1.4554799635857345,1.9817285280019044
2024-12-07 18:32:25.182240500,7.255240478515625,-1.014648459692299,1.8806658623188728,1.2551410772450269
2024-12-07 18:32:25.192214500,7.265214599609375,-0.156087802812457,1.8241706526368853,0.2596493726391345
2024-12-07 18:32:25.202188500,7.2751884765625,0.9357470646739006,1.384129130077362,-0.345462008350715
2024-12-07 18:32:25.212161500,7.28516162109375,1.6286527567118405,0.6364870547235012,-0.8575675541892647
2024-12-07 18:32:25.222135600,7.295135498046875,1.9636673861324787,-0.2671352714151144,-1.2669028267093
2024-12-07 18:32:25.232109600,7.305109619140625,1.96568837056607,-1.1162176135927435,-1.416562642300874
2024-12-07 18:32:25.242083600,7.31508349609375,1.761779662914574,-1.7975515257805583,-1.4163380397647618
2024-12-07 18:32:25.252057600,7.3250576171875,1.489276434725523,-2.3137352077782154,-1.4343344458349048
2024-12-07 18:32:25.262031600,7.335031494140625,1.2461769956752655,-2.699575769072771,-1.3420504221521317
2024-12-07 18:32:25.272004600,7.345004638671875,1.0511422070920466,-3.0279326941698788,-1.2699192519210278
2024-12-07 18:32:25.281978600,7.354978515625,0.9593395371854304,-3.286840235465765,-1.3795888562992211
2024-12-07 18:32:25.291952600,7.36495263671875,0.8948068592593074,-3.3817952319234608,-1.4408113867640495
2024-12-07 18:32:25.301926400,7.374926513671875,0.8583250945582985,-3.360290087080001,-1.4775978335000577
2024-12-07 18:32:25.311900400,7.384900390625,0.8496274088397622,-3.0905729824781414,-1.3754067483089862
2024-12-07 18:32:25.321873400,7.394873291015625,0.7207961540043354,-2.8017823440939185,-1.2302148719117043
2024-12-07 18:32:25.331847400,7.404847412109375,0.6704688193023205,-2.5450164910018445,-1.1069481193356214
2024-12-07 18:32:25.341821400,7.414821533203125,0.4783861585229635,-2.416594693750143,-0.9819476748347282
2024-12-07 18:32:25.351795000,7.424794921875,0.0288134220302104,-2.621473123216629,-1.0962865861982107
2024-12-07 18:32:25.361769000,7.43476904296875,-0.4122118508696555,-2.9403970340579746,-1.2644783760413527
2024-12-07 18:32:25.371743000,7.444742919921875,-0.7382219205796718,-3.21969094530046,-1.3431184897750614
2024-12-07 18:32:25.381716000,7.454716064453125,-1.1088450389981268,-3.371372622108459,-1.3370511525601148
2024-12-07 18:32:25.391690000,7.46468994140625,-1.490333104171604,-3.379734792262316,-1.1440684011358766
2024-12-07 18:32:25.401664000,7.4746640625,-1.7505206022754312,-3.161862441188097,-0.8007746036697179
2024-12-07 18:32:25.411638000,7.484637939453125,-2.11794755500108,-2.561576580658555,-0.3355398954037576
2024-12-07 18:32:25.421612000,7.494612060546875,-3.00209974925518,-1.4376239888995883,0.3975106138873845
2024-12-07 18:32:25.431586000,7.5045859375,-4.64451741194725,0.3905845409512519,1.4317884146139024
2024-12-07 18:32:25.441559000,7.51455908203125,-6.639283116176724,2.8555396532446142,2.780097751030325
2024-12-07 18:32:25.451533000,7.524532958984375,-8.255708259478212,5.932783198550343,4.29315078266263
2024-12-07 18:32:25.461507000,7.534507080078125,-7.745992896711826,9.073295977717638,5.482117406123876
2024-12-07 18:32:25.471481000,7.544481201171875,-4.687762094911933,10.994905844843387,5.52010080755949
2024-12-07 18:32:25.481455000,7.554455078125,-1.0406510620854794,10.42219597350359,3.798696701914072
2024-12-07 18:32:25.491429000,7.56442919921875,1.5448365555144845,7.420450444513559,0.7766404985621571
2024-12-07 18:32:25.501401900,7.57440185546875,3.2681530706524846,3.716347504529357,-1.704393641872704
2024-12-07 18:32:25.511376000,7.5843759765625,3.823555248838663,-0.5214209981292486,-3.208124133886397
2024-12-07 18:32:25.521350000,7.594349853515625,2.414861732477694,-4.143956831017136,-4.077242132876814
2024-12-07 18:32:25.531324000,7.604323974609375,0.214565126222372,-6.440671345889568,-4.672829021935165
2024-12-07 18:32:25.541298000,7.6142978515625,-1.2937725673258305,-7.712599161154031,-4.481521729442477
2024-12-07 18:32:25.551272000,7.62427197265625,-0.878993350186199,-6.941379226335883,-3.177494310083985
2024-12-07 18:32:25.561245000,7.634244873046875,1.21275724889338,-4.419230400702357,-1.5011498278707265
2024-12-07 18:32:25.571219000,7.644218994140625,3.801046479910612,-1.717479041156173,0.2316685289755463
2024-12-07 18:32:25.581193000,7.65419287109375,5.7523903910428285,0.8957797959446907,1.8421698351860043
2024-12-07 18:32:25.591167000,7.6641669921875,5.673004719638824,2.947918661734461,3.01963189881444
2024-12-07 18:32:25.601141000,7.67414111328125,3.620775837478041,4.136484887701273,3.251632143962383
2024-12-07 18:32:25.611114000,7.684114013671875,1.400240891444683,4.51005048931241,3.028258272862434
2024-12-07 18:32:25.621088000,7.694087890625,0.6439098982006312,3.843268249568343,2.4534403233274817
2024-12-07 18:32:25.631062000,7.70406201171875,0.6704251262910663,2.167694751727581,0.891326469797641
2024-12-07 18:32:25.641036000,7.7140361328125,0.661944736585021,0.6545289073705672,-0.7778847995348275
2024-12-07 18:32:25.651010000,7.724010009765625,0.8975139262609183,-0.2691600552409887,-2.080369227235019
2024-12-07 18:32:25.660984000,7.733984130859375,1.2399975763879716,-0.673526453307271,-2.942430585712194
2024-12-07 18:32:25.670957000,7.74395703125,1.3160095335751771,-0.6710416507542133,-3.374115491075813
2024-12-07 18:32:25.680931000,7.75393115234375,1.2464251252174376,-0.3921551512688398,-3.386128292691708
2024-12-07 18:32:25.690905000,7.763905029296875,1.2464146038234234,-0.057844870725274,-2.8669419217467307
2024-12-07 18:32:25.700879000,7.773879150390625,1.3735697421401738,0.230244341391325,-2.0454110188394785
2024-12-07 18:32:25.710853000,7.78385302734375,1.4581610193632542,0.4913181208103895,-1.2044771309997886
2024-12-07 18:32:25.720827100,7.7938271484375,1.4228893611043691,0.7384089675843716,-0.3616107407275587
2024-12-07 18:32:25.730799900,7.8037998046875,1.1798457438945769,0.8121265302240848,0.189948863621056
2024-12-07 18:32:25.740774000,7.81377392578125,0.9769541043311356,0.6976064170747995,0.4719749763064086
2024-12-07 18:32:25.750748000,7.823747802734375,0.7816378684580325,0.5703402195990085,0.5693782792316749
2024-12-07 18:32:25.760722000,7.833721923828125,0.7404507025450467,0.2968582095056772,0.6261899709843098
2024-12-07 18:32:25.770696000,7.843696044921875,0.8180015597373247,0.0903179843068122,0.7068075953360646
2024-12-07 18:32:25.780670000,7.853669921875,0.8647824540041387,-0.1534019247293472,0.8348944615449756
2024-12-07 18:32:25.790643000,7.863642822265625,0.945046807938814,-0.1779132656514644,1.0374788617901505
2024-12-07 18:32:25.800617000,7.873616943359375,1.0859374800108372,-0.2480038699656724,1.239303895035386
2024-12-07 18:32:25.810591000,7.883591064453125,1.0629671579856426,-0.1930973907798528,1.3568126686066388
2024-12-07 18:32:25.820565000,7.89356494140625,0.8821616049587726,-0.2497720486819744,1.3654786440126596
2024-12-07 18:32:25.830539000,7.9035390625,0.60946519228518,-0.2454424950450658,1.302206633672118
2024-12-07 18:32:25.843628800,7.91662890625,0.2710779446262866,-0.287580093550682,1.2204679694011806
2024-12-07 18:32:25.853602800,7.926602783203125,0.0483814613312482,-0.3068208005934953,1.014531847575307
2024-12-07 18:32:25.863576800,7.936576904296875,-0.0982061072081327,-0.2757540466785431,0.7886074882749468
2024-12-07 18:32:25.873550800,7.94655078125,-0.097263200334832,-0.2647252876639366,0.5359557925034314
2024-12-07 18:32:25.883524900,7.95652490234375,-0.0797444947790354,-0.2609755797415972,0.2580538653423078
2024-12-07 18:32:25.893499000,7.966498779296875,-0.2623152308475226,-0.2573328393250703,-0.1345513677815906
2024-12-07 18:32:25.903471900,7.976471923828125,-0.4900046270590275,-0.2420458383440971,-0.3648256111208349
2024-12-07 18:32:25.913446000,7.98644580078125,-0.7311030284851789,-0.2598901225924491,-0.4319483055401593
2024-12-07 18:32:25.923420000,7.996419921875,-0.9851146874982863,-0.2899824785172939,-0.3820840583052486
2024-12-07 18:32:25.933394000,8.006393798828125,-1.2049796736944467,-0.3995259722977876,-0.3032390148502774
2024-12-07 18:32:25.943368000,8.016367919921874,-1.2335194664150475,-0.3580728489249944,-0.1017056854274589
2024-12-07 18:32:25.953342000,8.026342041015624,-1.3156851239264011,-0.1183528231799602,-0.0465929796124342
2024-12-07 18:32:25.963315000,8.03631494140625,-1.4291823237687349,0.0101420393079519,0.0569597858532797
2024-12-07 18:32:25.973289000,8.0462890625,-1.5956383758604529,0.0705932931393384,0.2158707106619141
2024-12-07 18:32:25.983263000,8.056262939453125,-1.8087281688332555,0.1068313122123479,0.3769828627087175
2024-12-07 18:32:25.993237000,8.066237060546875,-1.974147863614559,-0.0638145927846431,0.5769422847451642
2024-12-07 18:32:26.003211000,8.0762109375,-1.8977485145449635,-0.3910837226450443,0.8458197601851075
2024-12-07 18:32:26.013185000,8.08618505859375,-1.648202675834298,-0.6972609646379947,1.0744344545479865
2024-12-07 18:32:26.023158000,8.096157958984374,-1.4063234262287616,-0.9591805472314358,1.2371569461345673
2024-12-07 18:32:26.033132000,8.106132080078124,-1.1221978570461273,-1.0705945110589266,1.3827436670683324
2024-12-07 18:32:26.043106000,8.11610595703125,-0.784615422964096,-0.8308306461721658,1.620077382198721
2024-12-07 18:32:26.053080000,8.126080078125,-0.5244376060040667,-0.27667349961102,2.0391504971399903
2024-12-07 18:32:26.063054000,8.13605419921875,-0.4406574990333989,0.3344242623120546,2.5512922102704643
2024-12-07 18:32:26.073026800,8.14602685546875,-0.5797725762676448,0.9212222802370786,3.007282704851032
2024-12-07 18:32:26.083000800,8.156000732421875,-0.6862146699666977,0.9834943197548388,3.167708536867797
2024-12-07 18:32:26.092974800,8.165974853515625,-0.5618600490886718,0.9282178382128476,3.140798902632296
2024-12-07 18:32:26.102948900,8.175948974609375,-0.3385861312318593,0.7088695693671703,2.868094306652248
2024-12-07 18:32:26.112923000,8.1859228515625,-0.0971983184050768,0.456902056467533,2.5307079796642062
2024-12-07 18:32:26.122897000,8.19589697265625,0.1489899535059928,0.3518108659207821,2.3296520310953257
2024-12-07 18:32:26.132870000,8.205869873046876,0.3171826201319694,0.3247463333845138,2.179435458403826
2024-12-07 18:32:26.142844000,8.215843994140625,0.3600590543061495,0.425663453117013,1.952593472801894
2024-12-07 18:32:26.152818000,8.22581787109375,0.1934316642355173,0.646987405949831,1.4678373408555985
2024-12-07 18:32:26.163415800,8.236415771484374,-0.1533037250518798,1.0852110654324292,0.6820604728966951
2024-12-07 18:32:26.173389000,8.24638916015625,-0.6426414857000112,1.9385686007112264,-0.0191543348004575
2024-12-07 18:32:26.183363000,8.256363037109375,-1.2174065360039472,2.71039410020709,-0.4965033779611811
2024-12-07 18:32:26.193337000,8.266337158203125,-1.7240734709851442,3.331148748269677,-0.819489167946577
2024-12-07 18:32:26.203310800,8.276310791015625,-2.065706203371286,3.655909694701433,-1.008330654847622
2024-12-07 18:32:26.213284900,8.286284912109375,-2.3050381065815686,3.7735511547416447,-1.0834790540080517
2024-12-07 18:32:26.223259000,8.2962587890625,-2.437628713950515,3.394897290080785,-1.274877312719822
2024-12-07 18:32:26.233232100,8.306232177734374,-2.338823325674981,2.547034845086932,-1.446735516116023
2024-12-07 18:32:26.243206100,8.3162060546875,-2.139998204898089,1.5335948844015597,-1.5225623259946703
2024-12-07 18:32:26.253180000,8.326179931640626,-1.884814652561396,0.6389759489297866,-1.4246812129572033
2024-12-07 18:32:26.263154000,8.33615380859375,-1.4495410750560462,-0.0517220039308071,-1.2146940621748563
2024-12-07 18:32:26.273128000,8.3461279296875,-1.3792739451311529,-0.639818244972825,-1.2903648047089575
2024-12-07 18:32:26.283102000,8.35610205078125,-1.0531855494879183,-0.9678098438888788,-1.3616902115151286
2024-12-07 18:32:26.293075200,8.3660751953125,-0.6014256782144308,-1.0729501342743637,-1.1114007878955452
2024-12-07 18:32:26.303049000,8.376049072265625,-0.5940786764524877,-0.9861655847907066,-1.0248333152286708
2024-12-07 18:32:26.313023000,8.38602294921875,-0.4675467846006155,-0.7447545372188091,-1.4082704686433076
2024-12-07 18:32:26.322997000,8.3959970703125,0.3348123848468065,-0.3920791634231805,-2.0213804471716283
2024-12-07 18:32:26.332971000,8.405970947265626,1.700590742458403,-0.0259580325990915,-2.502534609103203
2024-12-07 18:32:26.342945000,8.415945068359376,2.92392783755511,0.1948848587185144,-2.835029364657402
2024-12-07 18:32:26.352918300,8.425918212890625,3.6554219111844897,0.1849257747620344,-3.005936843200028
2024-12-07 18:32:26.362892000,8.43589208984375,4.095187247151136,-0.0287087926119565,-2.809776849979162
2024-12-07 18:32:26.372866000,8.445865966796875,3.401899277797342,-0.4282797730952501,-2.3734363738946613
2024-12-07 18:32:26.382840000,8.455840087890625,1.777406124982983,-0.8429846098244189,-1.731098108924925
2024-12-07 18:32:26.392814000,8.46581396484375,0.5745828256048262,-1.0925099902689457,-1.3049658692523836
2024-12-07 18:32:26.402788000,8.4757880859375,0.3279655876919627,-1.2141834823042157,-1.3286241004765034
2024-12-07 18:32:26.412761000,8.485760986328126,0.7942764007568359,-1.3300263684898614,-1.6562975733540952
2024-12-07 18:32:26.422735000,8.495735107421876,1.3431111832514404,-1.4748364059627057,-1.954254245620966
2024-12-07 18:32:26.432709000,8.505709228515625,1.567290963906795,-1.6183283465743064,-1.975761436291039
2024-12-07 18:32:26.442683100,8.51568310546875,1.588345296242833,-1.753234245148301,-1.7811714688658713
2024-12-07 18:32:26.452657200,8.5256572265625,1.503684022523463,-1.911292471250892,-1.4778890715315938
2024-12-07 18:32:26.462630100,8.535630126953125,1.4474809276558458,-2.129643545752764,-1.1778978246971965
2024-12-07 18:32:26.472604200,8.545604248046875,1.4057318900763989,-2.375704464957118,-0.8311886658295988
2024-12-07 18:32:26.482578200,8.555578125,1.325121206922084,-2.595366622057557,-0.4820893969550728
2024-12-07 18:32:26.492552200,8.56555224609375,1.1667572758711873,-2.705691037082672,-0.1813468202967196
2024-12-07 18:32:26.502526200,8.575526123046876,0.9173184046663344,-2.5967998697310684,0.0949724590491503
2024-12-07 18:32:26.512500200,8.585500244140626,0.5309358454495668,-2.33789642008841,0.3494630606856196
2024-12-07 18:32:26.522473200,8.59547314453125,-0.0778505707912147,-1.9692191750407213,0.7003917369443923
2024-12-07 18:32:26.532447200,8.605447265625,-0.8454208970606326,-1.6546581355839969,0.986896017957106
2024-12-07 18:32:26.542421200,8.615421142578125,-1.6705390108048914,-1.590005338409543,0.9806655991349368
2024-12-07 18:32:26.552395300,8.625395263671875,-2.4073608553282915,-1.834554684007168,0.833066442400217
2024-12-07 18:32:26.562369300,8.635369384765625,-3.2654479033470154,-1.9688585250347848,0.5249691190648824
2024-12-07 18:32:26.572343300,8.64534326171875,-4.345826726317405,-1.9368465992242097,0.2537177175678312
2024-12-07 18:32:26.582316300,8.65531640625,-6.231513631668687,-0.8268021213084459,0.5016592628870159
2024-12-07 18:32:26.592290000,8.6652900390625,-8.828502301970124,1.279211542531848,1.896707481059432
2024-12-07 18:32:26.602264000,8.67526416015625,-10.275617757314444,3.631498307022452,3.633988662533462
2024-12-07 18:32:26.612238000,8.685238037109375,-8.125849122899771,5.482836368048191,4.242447892646491
2024-12-07 18:32:26.622212000,8.695212158203125,-3.177067609104514,5.834357895633578,3.9595594640433776
2024-12-07 18:32:26.632186000,8.70518603515625,2.8406150558352468,4.981997554698586,2.661122996559739
2024-12-07 18:32:26.642159000,8.7151591796875,7.843220514276624,3.0318647729218005,0.5251040705561637
2024-12-07 18:32:26.652133000,8.725133056640624,9.078060415640472,0.4151373829275369,-1.0056487222872674
2024-12-07 18:32:26.662107100,8.735107177734376,7.05013244652152,-1.89844526463747,-1.9851045803062617
2024-12-07 18:32:26.672081200,8.7450810546875,4.24676663262844,-3.085943569111824,-3.272633723197877
2024-12-07 18:32:26.682055200,8.75505517578125,1.0096179181791842,-2.953673279738426,-5.265531003206968
2024-12-07 18:32:26.692029200,8.765029296875,-0.4330547324120998,-1.7443951051324604,-5.84960982530117
2024-12-07 18:32:26.702002200,8.775002197265625,0.0197796362251043,-0.4005892176151275,-4.448085908308625
2024-12-07 18:32:26.711976200,8.78497607421875,1.2676292412877082,0.9020072921574116,-2.379953646834194
2024-12-07 18:32:26.721950200,8.7949501953125,2.409423779207468,2.096349178916216,-0.1684128121826797
2024-12-07 18:32:26.731924200,8.80492431640625,2.182188702634722,3.024563509997725,1.5835586464881897
2024-12-07 18:32:26.741898200,8.814898193359374,0.9632963119871912,3.469291729068756,2.609329388697445
2024-12-07 18:32:26.751872300,8.824872314453126,0.577525162667036,3.1691479220211503,2.219211880736053
2024-12-07 18:32:26.761845200,8.83484521484375,1.1290256572395565,2.2875147248506544,1.409611069597304
2024-12-07 18:32:26.771819300,8.8448193359375,1.7720241396836935,1.2092489485114812,0.6768613698836415
2024-12-07 18:32:26.781793300,8.854793212890625,1.7131074019432069,0.3707026133954524,-0.0617457506213337
2024-12-07 18:32:26.791767300,8.864767333984375,1.2324269950032234,-0.0746580583602189,-0.6929363794371485
2024-12-07 18:32:26.801741000,8.874740966796875,0.9367471816271544,-0.2189589772671461,-1.0608435899604112
2024-12-07 18:32:26.811714000,8.884714111328124,1.1267634113959968,-0.1511789879828691,-1.1641995542123913
2024-12-07 18:32:26.821688000,8.89468798828125,1.5656769528388976,-0.0528483776122331,-1.1890535710923371
2024-12-07 18:32:26.831662000,8.904662109375,2.184664152837545,-0.0165589206129312,-1.067480032300204
2024-12-07 18:32:26.841636000,8.914635986328125,2.6848750435471533,0.038758477461338,-0.7889230570301413
2024-12-07 18:32:26.851610000,8.924610107421875,2.8115514584362504,0.0521615643918514,-0.5494720574848354
2024-12-07 18:32:26.861584100,8.934584228515625,2.6957769613116978,0.0094774379193782,-0.4320977604808285
2024-12-07 18:32:26.871558100,8.94455810546875,2.513103349390626,-0.0955886181861162,-0.4338245842734352
2024-12-07 18:32:26.881531100,8.95453125,2.1328853041529654,-0.1856330462485551,-0.5377967807276174
2024-12-07 18:32:26.891505200,8.964505126953124,1.6885229957848786,-0.2784896091222762,-0.7231251084085554
2024-12-07 18:32:26.901479200,8.974479248046874,1.318432376807928,-0.3518114504426717,-0.9107266051858663
2024-12-07 18:32:26.911453200,8.984453125,0.9511227668516338,-0.4210141660064458,-0.9309900794051588
2024-12-07 18:32:26.921427200,8.99442724609375,0.4012473161976784,-0.6038736558884382,-0.8646119197428226
2024-12-07 18:32:26.931400200,9.004400146484375,-0.1452536895871162,-0.9192033416301012,-0.6868984875123948
2024-12-07 18:32:26.941374200,9.014374267578123,-0.6321516558676957,-1.2761767048805952,-0.3661591247469186
2024-12-07 18:32:26.951348200,9.02434814453125,-0.9887129311859608,-1.5701099668502807,0.0692067387183429
2024-12-07 18:32:26.961322200,9.034322265625,-1.134382800358534,-1.640302277973294,0.5198080465072765
2024-12-07 18:32:26.971296300,9.044296142578125,-1.108957267200947,-1.2391349682092665,0.9987460302267224
2024-12-07 18:32:26.981270300,9.054270263671874,-1.0737053365558384,-0.3966261592030525,1.176528728301078
2024-12-07 18:32:26.991243000,9.064242919921876,-1.0826357350517064,0.4289204090863466,1.0910944974478334
2024-12-07 18:32:27.001217000,9.074217041015626,-1.144351309730485,0.9712672908663748,0.9437753997635095
2024-12-07 18:32:27.011191000,9.08419091796875,-1.333937988975644,1.1088444544762373,0.7863976302057504
2024-12-07 18:32:27.021165000,9.0941650390625,-1.569092898762226,0.8279729186534881,0.7879507048666476
2024-12-07 18:32:27.031139000,9.10413916015625,-1.903258217877149,0.2126280206799507,0.955924906436354
2024-12-07 18:32:27.041113000,9.114113037109377,-2.143191009590029,-0.3967167600959539,1.1761629637286066
2024-12-07 18:32:27.051086000,9.124086181640624,-2.2244489046067,-0.5247849216043948,1.3829764529109
2024-12-07 18:32:27.061060000,9.13406005859375,-2.1088246296077964,0.1776034690499305,1.555090384633839
2024-12-07 18:32:27.071034000,9.1440341796875,-1.8197417302787304,1.612858390730619,1.7669434754185378
2024-12-07 18:32:27.081008000,9.154008056640626,-1.6321178024739027,2.9401486122548577,2.119494346051663
2024-12-07 18:32:27.090982100,9.163982177734376,-1.5255939487755297,3.377483213943243,2.6637942615956067
2024-12-07 18:32:27.100956200,9.1739560546875,-1.298943247961998,2.672411867815256,3.19210794184804
2024-12-07 18:32:27.110929200,9.18392919921875,-0.7558171985030174,1.2493997571140527,3.39569048628509
2024-12-07 18:32:27.120903200,9.193903076171877,-0.0735475398350507,-0.14983458763659,3.211732972033322
2024-12-07 18:32:27.130877200,9.203877197265625,0.3884615574479103,-1.0621902553290128,2.790004812538624
2024-12-07 18:32:27.140851200,9.213851318359374,0.6154671361137181,-1.3700474132329226,2.297038339999318
2024-12-07 18:32:27.150825200,9.2238251953125,0.8963965396035463,-1.237950142338872,1.7917871170349418
2024-12-07 18:32:27.160799200,9.23379931640625,1.111269124339893,-0.7922107003986835,1.1799803300596774
2024-12-07 18:32:27.170772200,9.243772216796875,1.0943915662318466,-0.1449094061940908,0.6363902432855219
2024-12-07 18:32:27.180746200,9.253746337890624,0.8315718929935246,0.6043038639992475,0.5142301733097061
2024-12-07 18:32:27.190720300,9.26372021484375,0.2429647067546844,1.2083949620306491,0.7728757392011583
2024-12-07 18:32:27.200694300,9.2736943359375,-0.5623088888347149,1.5356044706583023,1.1757762294333427
2024-12-07 18:32:27.210668300,9.283668212890625,-1.4162790030539034,1.6924579971462488,1.3592410647973416
2024-12-07 18:32:27.220642300,9.293642333984376,-2.0132669910818337,1.573964304190874,1.0848463237732648
2024-12-07 18:32:27.230615000,9.303614990234376,-2.1575649873793123,1.3781225831389423,0.6999203931055963
2024-12-07 18:32:27.240589000,9.313589111328126,-2.0673171456992625,1.1085516090095042,0.2712935418720357
2024-12-07 18:32:27.250563000,9.32356298828125,-1.93164201631844,0.7333043379217385,-0.0618930318712256
2024-12-07 18:32:27.260537000,9.333537109375,-1.707624002096057,0.2223176400452852,-0.1392822687610052
2024-12-07 18:32:27.270511000,9.343510986328123,-1.5501964751124382,-0.3815168528765439,-0.1587486195195466
2024-12-07 18:32:27.280485000,9.353485107421877,-1.5296860403947532,-1.0656371809124945,-0.323860892319493
2024-12-07 18:32:27.290458000,9.3634580078125,-1.7238170120060443,-1.508016206508875,-0.4587919618673622
2024-12-07 18:32:27.300432100,9.37343212890625,-2.280522527875751,-1.5225883372187614,-0.5140049862517043
2024-12-07 18:32:27.310406100,9.38340625,-3.027003304365277,-0.8615396726906299,-0.553797811729461
2024-12-07 18:32:27.320380200,9.393380126953126,-3.9880905620008704,0.3338251273751259,-0.8414213790956884
2024-12-07 18:32:27.330354200,9.403354248046876,-4.917085229805112,1.5824024621903896,-1.8250208397254344
2024-12-07 18:32:27.340328200,9.413328125,-4.771304301473498,2.48292039257288,-3.217474438294768
2024-12-07 18:32:27.350301000,9.423301025390623,-2.668390941736102,2.857127214697003,-4.298678313912451
2024-12-07 18:32:27.360275000,9.43327490234375,1.1485612555757163,2.683864989721775,-4.002476814749837
2024-12-07 18:32:27.370249000,9.4432490234375,4.489849412804841,2.1913386621654034,-2.4905840590685604
2024-12-07 18:32:27.380223000,9.453222900390625,6.55765872593522,1.834890199571848,-1.0611683649353685
2024-12-07 18:32:27.390197000,9.463197021484374,6.964400036439299,1.4473667997568844,-0.2127503684179857
2024-12-07 18:32:27.400171000,9.4731708984375,5.508377052018046,0.924599063193798,0.6356719389483332
2024-12-07 18:32:27.410144000,9.48314404296875,2.047248901791125,0.7879512893885373,2.0040148863509297
2024-12-07 18:32:27.420118000,9.493117919921875,-1.9407434605322773,0.8899597114890814,2.1455989475145936
2024-12-07 18:32:27.430092000,9.503092041015623,-2.7065964614897964,0.6153659407615661,0.210164699306339
2024-12-07 18:32:27.440066000,9.513066162109377,-1.530403394883871,0.0798094497740268,-1.3300520874530075
2024-12-07 18:32:27.450040000,9.5230400390625,-0.0877604087784886,-0.5583633660793305,-1.6060975182935595
2024-12-07 18:32:27.460014000,9.53301416015625,1.170119884172082,-1.3591501716434955,-1.3138865500718355
2024-12-07 18:32:27.469987000,9.542987060546874,1.7637515475094316,-2.094851049312949,-1.1323489564433693
2024-12-07 18:32:27.479961000,9.552961181640624,1.717209868825972,-2.482089786967635,-1.0038022176377477
2024-12-07 18:32:27.489935000,9.56293505859375,1.3938368696212768,-2.5944939308762547,-0.746877959113568
2024-12-07 18:32:27.499909000,9.5729091796875,1.1299646916553376,-2.705921923229098,-0.4965398009814322
2024-12-07 18:32:27.509883100,9.582883056640624,0.9601018998600542,-2.915256163060665,-0.4211697218943387
2024-12-07 18:32:27.519857200,9.592857177734375,1.0261012893378734,-3.172608291608095,-0.6031502369847148
2024-12-07 18:32:27.529830100,9.602830078125,1.2926228127688169,-3.352676104944944,-0.7453500188939273
2024-12-07 18:32:27.539804200,9.61280419921875,1.4900304679632186,-3.449130400049686,-0.867853532012552
2024-12-07 18:32:27.549778200,9.622778076171874,1.4385042788654565,-3.408407929039001,-0.8670824745748191
2024-12-07 18:32:27.559752200,9.632752197265624,1.2442705775320528,-3.193108058801293,-0.8450939301285892
2024-12-07 18:32:27.569726200,9.642726318359376,0.8468892160475253,-3.000587006604672,-0.9240510008569808
2024-12-07 18:32:27.579699000,9.652698974609375,0.2890760311968624,-2.952749150630832,-1.170270690819621
2024-12-07 18:32:27.589673000,9.6626728515625,-0.2650818460166454,-2.9892274082005024,-1.524862711891532
2024-12-07 18:32:27.599647000,9.67264697265625,-0.8694346637241542,-3.0255922685235737,-1.8154051623791456
2024-12-07 18:32:27.609621000,9.68262109375,-1.6203110448241234,-2.8943402162820098,-1.816545418455452
2024-12-07 18:32:27.619595000,9.692594970703125,-2.371790214122832,-2.5960312234461305,-1.5964984998211265
2024-12-07 18:32:27.629569000,9.702569091796876,-3.1250135967403647,-1.8943191246181723,-0.9512700663678348
2024-12-07 18:32:27.639542000,9.7125419921875,-3.855556653255224,-0.7884381961226463,0.0951504094319418
2024-12-07 18:32:27.649516000,9.72251611328125,-4.536584860494733,0.5481611210167407,1.2468686312012374
2024-12-07 18:32:27.659490000,9.732489990234376,-5.018305131876469,2.080865194058418,2.3855580427125096
2024-12-07 18:32:27.669464000,9.742464111328124,-5.481612963733077,3.8696424617528913,3.4697239830061792
2024-12-07 18:32:27.679438000,9.75243798828125,-6.118274790501594,6.001045418393612,4.417224029316007
2024-12-07 18:32:27.689412000,9.762412109375,-6.832327899986505,7.9159052267372605,4.647143961058557
2024-12-07 18:32:27.699385000,9.772385009765625,-6.078674016997218,8.418032326331733,4.018912108983099
2024-12-07 18:32:27.709359000,9.782359130859374,-2.465079323194921,7.048278927609324,2.9548624895229936
2024-12-07 18:32:27.719333000,9.7923330078125,2.022028389686346,4.58972374548614,1.1555751529257745
2024-12-07 18:32:27.729307100,9.80230712890625,5.952583293041586,1.3613783690869807,-1.0407396171517669
2024-12-07 18:32:27.739281200,9.81228125,7.775822217786311,-1.953430069756508,-3.0209020648807288
2024-12-07 18:32:27.749255200,9.822255126953126,6.518603311353922,-4.3966193404436105,-3.8877754998147487
2024-12-07 18:32:27.759228200,9.832228271484375,4.51061104580462,-5.682185804960131,-3.967710037273168
2024-12-07 18:32:27.769202200,9.8422021484375,2.8444389980375764,-6.377457057085633,-3.996488095729053
2024-12-07 18:32:27.779176200,9.85217626953125,0.7863644585885107,-5.930927926072478,-3.981791461856663
2024-12-07 18:32:27.789150000,9.86214990234375,-0.9421769515909254,-3.104216892427206,-2.9018159589901567
2024-12-07 18:32:27.799124000,9.8721240234375,-1.01869875799641,0.4835293666303157,-1.4590695125102997
2024-12-07 18:32:27.809098000,9.882097900390624,0.3674230072028934,3.153178783994913,-0.5524289710616692
2024-12-07 18:32:27.819071000,9.892071044921876,1.354579064335674,4.896717564558982,0.4808579554639756
2024-12-07 18:32:27.829045000,9.902044921875,1.2120213358342646,5.320484828665852,1.064237104856223
2024-12-07 18:32:27.839019000,9.91201904296875,0.6463515922643244,4.547855611571669,1.2290361835211514
2024-12-07 18:32:27.848993000,9.921992919921877,0.3313952698796987,2.377409515309333,1.303743341720104
2024-12-07 18:32:27.858967000,9.931967041015625,0.3925532106757163,0.2116553762555122,1.2118703830562532
2024-12-07 18:32:27.868941000,9.941941162109377,0.6406085185676813,-0.92308456697762,1.0236578417085112
2024-12-07 18:32:27.878914000,9.9519140625,1.020583402699232,-1.4377829788535832,0.5609119911162183
2024-12-07 18:32:27.888888000,9.96188818359375,1.4817982077993452,-1.3577180930137631,0.0001177811607718
2024-12-07 18:32:27.898862000,9.971862060546876,1.805072568935156,-0.920061419764161,-0.1550589346887543
2024-12-07 18:32:27.908836000,9.981836181640626,1.8590866293258963,-0.2729424963891506,-0.0176310798890888
2024-12-07 18:32:27.918810000,9.99181005859375,1.772603108615428,0.4198936375439167,0.2017109784115106
2024-12-07 18:32:27.928784100,10.0017841796875,1.6668180905856191,0.9477332705438136,0.2885056839630007
2024-12-07 18:32:27.938757000,10.011757080078125,1.442427005267143,1.3281535603553056,0.2834905957473442
2024-12-07 18:32:27.948731100,10.021731201171876,1.2340410060711204,1.2971867596834896,0.1639942102891393
2024-12-07 18:32:27.958705200,10.031705078125,1.0888124509252608,1.0485001681506634,0.0235502956039272
2024-12-07 18:32:27.968679200,10.04167919921875,0.9847159705042838,0.618090981811285,-0.182801165557187
2024-12-07 18:32:27.978653200,10.051653076171876,0.9336457084804772,0.2069867999225854,-0.4181334960035979
2024-12-07 18:32:27.988627200,10.061627197265626,0.9546205458395184,-0.0707382545679807,-0.5140563876453786
2024-12-07 18:32:27.998600000,10.071599853515623,1.0699737488120793,-0.2090396407991647,-0.3579093289263546
2024-12-07 18:32:28.008574000,10.081573974609377,1.079679004137963,-0.3196919726043939,-0.2923407320812344
2024-12-07 18:32:28.018548000,10.0915478515625,1.0755224689804015,-0.3298258286058902,-0.3344015024909749
2024-12-07 18:32:28.028522000,10.10152197265625,1.080106289639324,-0.3458388057738542,-0.3948954629529267
2024-12-07 18:32:28.038496000,10.11149609375,0.944899508422613,-0.3535691077649593,-0.4212268954416737
2024-12-07 18:32:28.048469000,10.121468994140624,0.7562754636645317,-0.3363736428141594,-0.3360867156315594
2024-12-07 18:32:28.058443000,10.131443115234376,0.618003303527832,-0.3290115896135568,-0.204428968665935
2024-12-07 18:32:28.068417000,10.1414169921875,0.5600672473877668,-0.2938005755007267,0.0011788710536435
2024-12-07 18:32:28.078391000,10.15139111328125,0.4668856172781437,-0.4258353025525808,0.1622967039225623
2024-12-07 18:32:28.088365000,10.161364990234375,0.3083954294990748,-0.4235790480583906,0.2260593838568776
2024-12-07 18:32:28.098339000,10.171339111328123,0.1826291882574558,-0.4612684349834918,0.4386683345101773
2024-12-07 18:32:28.108312000,10.18131201171875,0.1803811901349574,-0.488428244587779,0.6697402127668262
2024-12-07 18:32:28.118286000,10.1912861328125,0.225370524809882,-0.4353431356102228,0.900084361270815
2024-12-07 18:32:28.128260000,10.201260009765624,0.3323438758414238,-0.4950006087154149,1.1011186825297772
2024-12-07 18:32:28.138234000,10.211234130859374,0.3692102559458464,-0.5160848977982998,1.156410653901845
2024-12-07 18:32:28.148208000,10.2212080078125,0.2787327702283859,-0.6079208854526281,0.998484237485379
2024-12-07 18:32:28.158182100,10.23118212890625,0.0825690141478553,-0.6376116748392582,0.729718149998039
2024-12-07 18:32:28.168155100,10.241155029296875,-0.1851835489153862,-0.5357517212986945,0.5539486549096182
2024-12-07 18:32:28.178129200,10.251129150390623,-0.4356985249191522,-0.3793751646727323,0.7108212879568337
2024-12-07 18:32:28.188103200,10.261103271484377,-0.5980050561159849,-0.0215741184264421,0.965832406336069
2024-12-07 18:32:28.198077200,10.2710771484375,-0.6896791312068701,0.1615425610870123,1.1591701086778192
2024-12-07 18:32:28.208051200,10.28105126953125,-0.6359399422347545,0.434725295972824,1.3207666649743914
2024-12-07 18:32:28.218025200,10.291025146484374,-0.4761503622949123,0.4859563015162944,1.3320021986074746
2024-12-07 18:32:28.227998000,10.300998046875,-0.2271498825073242,0.1336520991206169,1.1668084946017712
2024-12-07 18:32:28.237972000,10.310971923828124,0.000147299516201,-0.5334902061074972,0.7062267997734248
2024-12-07 18:32:28.247946000,10.320946044921875,0.0348433498442172,-1.0091834722846746,0.1528564196757972
2024-12-07 18:32:28.257920000,10.330919921875,-0.2773409870764241,-0.9414987600684164,-0.2132215661263093
2024-12-07 18:32:28.267894000,10.34089404296875,-1.059888992649317,-0.2053945622950792,-0.3660821870531887
2024-12-07 18:32:28.277868000,10.350867919921876,-1.6950117732822894,0.7930044811248779,-0.0227624514281749
2024-12-07 18:32:28.287841000,10.360841064453124,-2.017304283773899,1.547100847184658,0.5614796714689583
2024-12-07 18:32:28.297815000,10.37081494140625,-2.1530103928148745,1.8918460125029088,1.1641774885110556
2024-12-07 18:32:28.307789000,10.3807890625,-1.80957806366086,1.7954402327150103,1.6203924394972622
2024-12-07 18:32:28.317763000,10.39076318359375,-1.1596750625252723,1.0805202772676945,1.7025260944351552
2024-12-07 18:32:28.327737000,10.400737060546875,-0.5357645807802677,-0.1930862848639488,1.3752239390879868
2024-12-07 18:32:28.337711000,10.410711181640623,0.0121428577363491,-1.219273498919606,0.7903571084212512
2024-12-07 18:32:28.347684000,10.42068408203125,0.5871060609608888,-1.4812836824059483,-0.1821606574302539
2024-12-07 18:32:28.357658000,10.430658203125,0.4428747001588344,-1.2944675638526677,-1.5026853668749331
2024-12-07 18:32:28.367632100,10.440632080078124,0.0120166375407949,-0.632901012930274,-2.602833889198303
2024-12-07 18:32:28.377606100,10.450606201171874,-0.3329495135843753,0.5520031833976506,-3.371744670291245
2024-12-07 18:32:28.387580200,10.460580078125,-1.0094874967325478,1.8827356543302536,-3.8933465779453513
2024-12-07 18:32:28.397554200,10.47055419921875,-1.691379554259777,3.091711631119251,-3.956765449410677
2024-12-07 18:32:28.407527200,10.480527099609375,-2.344128007954359,3.885285436564683,-3.297393485923111
2024-12-07 18:32:28.417501200,10.490501220703123,-2.855755341821909,3.9423359420418738,-2.2609642793163656
2024-12-07 18:32:28.427475200,10.50047509765625,-2.718947993540764,3.396768344649672,-1.2607133244194089
2024-12-07 18:32:28.437449200,10.51044921875,-1.7492016286313532,2.499619013917446,-0.5071399227878078
2024-12-07 18:32:28.447423200,10.52042333984375,-0.8530822254687547,1.38821727617383,-0.0661674303879495
2024-12-07 18:32:28.457396000,10.53039599609375,-0.4553799614667892,0.6188344936549663,0.4162024548757821
2024-12-07 18:32:28.467370000,10.540369873046876,-0.3370125252395868,0.3727355805277824,1.0223524581983685
2024-12-07 18:32:28.477344000,10.550343994140626,-0.5312771331679076,0.2242091528803109,1.2559167377926408
2024-12-07 18:32:28.487318000,10.560318115234375,-0.793673758688569,0.0693266342043876,1.017017526911199
2024-12-07 18:32:28.497292000,10.5702919921875,-0.6212929927229881,0.1578507208317518,0.6797515383671969
2024-12-07 18:32:28.507266000,10.58026611328125,-0.5528383190475404,0.4910995096236467,0.4798677388502285
2024-12-07 18:32:28.517239000,10.590239013671876,-0.7815075200766325,0.8553262050032615,0.0420167851375415
2024-12-07 18:32:28.527213000,10.600213134765625,-0.6859535348124802,1.0345464616000652,-0.6136755034565925
2024-12-07 18:32:28.537187000,10.61018701171875,-0.0468650654189288,0.8936796087950467,-1.3342368257917463
2024-12-07 18:32:28.547161000,10.6201611328125,0.8933343024887144,0.5059042800456285,-1.914288730457425
2024-12-07 18:32:28.557135000,10.630135009765626,1.4905759730167687,0.0843377408534288,-2.244572093572468
2024-12-07 18:32:28.567109000,10.640109130859376,1.5643160397492348,-0.309676774546504,-2.402545417870581
2024-12-07 18:32:28.577082000,10.65008203125,1.396122934731841,-0.6851157688140869,-2.3247157437369226
2024-12-07 18:32:28.587056000,10.66005615234375,1.1541128983534872,-1.103494325619936,-2.0730473599143324
2024-12-07 18:32:28.597030100,10.670030029296877,1.0245911770358682,-1.5511913313686847,-1.5014610857769846
2024-12-07 18:32:28.607004200,10.680004150390625,1.0049538718909024,-2.026280786433816,-0.6218820446573198
2024-12-07 18:32:28.616978200,10.689978271484376,1.0427008342221378,-2.495187753471732,0.2281186179416254
2024-12-07 18:32:28.626952200,10.6999521484375,1.0696547459907828,-2.8003502654641865,0.9292023192055524
2024-12-07 18:32:28.636925200,10.70992529296875,0.9687832189656792,-2.877357517299056,1.4709950742341578
2024-12-07 18:32:28.646899200,10.719899169921876,0.6325609673209488,-2.825015920165181,1.841412002556026
2024-12-07 18:32:28.656873200,10.729873291015624,0.3370606021650135,-2.75899651081264,2.3923086860165
2024-12-07 18:32:28.666847200,10.73984716796875,0.0120354518391191,-2.8612317274063823,2.721838162024319
2024-12-07 18:32:28.676821200,10.7498212890625,-0.7094213580310345,-3.1451883697628973,2.6429116325646635
2024-12-07 18:32:28.686795300,10.759795166015625,-1.4720160878449675,-3.5863147649496794,2.226446508164704
2024-12-07 18:32:28.696768000,10.76976806640625,-1.970667620283365,-4.10767555732429,1.460476018307358
2024-12-07 18:32:28.706742000,10.779741943359374,-2.3195851028501986,-4.437471575313806,0.8482838852763176
2024-12-07 18:32:28.716716000,10.789716064453126,-2.6560604524731635,-4.523723040834069,0.4198679551133886
2024-12-07 18:32:28.726690000,10.79968994140625,-3.1808377752929924,-4.206635113248229,0.0251367793440818
2024-12-07 18:32:28.736664000,10.8096640625,-3.73767670828402,-3.411469654697179,-0.1983242585826665
2024-12-07 18:32:28.746637000,10.819636962890623,-4.234747109010815,-2.0525684893786904,0.0108849666297435
2024-12-07 18:32:28.756611000,10.829611083984377,-4.620807450535893,-0.210201085793972,0.8043342689126729
2024-12-07 18:32:28.766585000,10.839585205078125,-4.755596444731951,1.96385209504962,1.768896216921508
2024-12-07 18:32:28.776559000,10.84955908203125,-3.647919864991307,4.4502457166910165,2.608287770690024
2024-12-07 18:32:28.786533000,10.859533203125,-1.3766209464043375,6.606483839380741,3.139416508363188
2024-12-07 18:32:28.796507100,10.869507080078124,1.3388941500782965,7.7456240633994335,2.356234917594492
2024-12-07 18:32:28.806480100,10.879480224609376,3.8431981069415806,7.532829453980923,0.2702773688331246
2024-12-07 18:32:28.816454100,10.8894541015625,4.90228104390502,5.681718771970272,-1.9770405163161453
2024-12-07 18:32:28.826428200,10.89942822265625,4.7475274123057725,2.6431191378355026,-3.4185046679005024
2024-12-07 18:32:28.836402200,10.909402099609377,4.184645107497275,-0.5714677623242139,-4.012371309037507
2024-12-07 18:32:28.846376200,10.919376220703125,2.732800870065391,-2.277202005150914,-4.3295173965513705
2024-12-07 18:32:28.856350200,10.92935009765625,1.0710007537722588,-2.79183904222846,-4.457809722204506
2024-12-07 18:32:28.866323200,10.9393232421875,0.1296200671255588,-2.667139480370283,-3.582861117364466
2024-12-07 18:32:28.876297200,10.949297119140626,-0.083238839700818,-2.0561942786604166,-2.3667864144861697
2024-12-07 18:32:28.886271000,10.95927099609375,0.7463584652841091,-1.1647200709551573,-1.2068157300151885
2024-12-07 18:32:28.896245000,10.969244873046875,1.9672183566123247,-0.391544910416007,-0.3023001813638955
2024-12-07 18:32:28.906219000,10.979218994140624,2.353169392544031,0.3220709766954183,0.1398430992478504
2024-12-07 18:32:28.916193000,10.989193115234375,2.3078917424470187,0.7127806053310632,0.4315907242741436
2024-12-07 18:32:28.926166000,10.999166015625,2.2417098360091448,0.90963822542727,0.7918610832434148
2024-12-07 18:32:28.936140000,11.00914013671875,2.265096556815505,1.0867623865276574,0.9468798685848712
2024-12-07 18:32:28.946114000,11.019114013671874,2.0221267354942856,1.1773550961226225,0.9006082390144466
2024-12-07 18:32:28.956088000,11.029088134765624,1.6631471469879149,1.199699029877782,0.8997997721757739
2024-12-07 18:32:28.966062000,11.03906201171875,1.44416288914904,1.2074053664714095,1.050730557551235
2024-12-07 18:32:28.976036000,11.0490361328125,1.2807388982295989,1.1580629511535168,1.0747152442507446
2024-12-07 18:32:28.986009000,11.059009033203123,0.9975846582971512,1.0229320116519929,0.936677769652754
2024-12-07 18:32:28.995983000,11.068983154296877,0.8336752219483256,0.7651911760479211,0.7394663676828146
2024-12-07 18:32:29.005957000,11.07895703125,1.0143791412316263,0.353463309302926,0.4406142809461802
2024-12-07 18:32:29.015931100,11.08893115234375,1.3415243524514138,-0.1774988396316766,0.1619039782779291
2024-12-07 18:32:29.025905200,11.0989052734375,1.5517366902917622,-0.7757470568537712,-0.0254166557313874
2024-12-07 18:32:29.035878100,11.108878173828124,1.7006892343968152,-1.2077531569957731,-0.0913549078728072
2024-12-07 18:32:29.045852200,11.11885205078125,1.724028608930111,-1.3267834410458803,-0.0847003818870522
2024-12-07 18:32:29.055826200,11.128826171875,1.728411500189453,-1.1259183388739824,-0.1382621136667206
2024-12-07 18:32:29.065800200,11.13880029296875,1.6619301724135875,-0.6032452948570252,-0.2720719971649348
2024-12-07 18:32:29.075774200,11.148774169921875,1.4434756375372408,0.1406739605814218,-0.4607843047283589
2024-12-07 18:32:29.085748200,11.158748291015623,1.0004443585772067,0.8005465670675039,-0.5503788701314479
2024-12-07 18:32:29.095721000,11.168720947265625,0.3865491479553282,1.222517010885477,-0.3663376596515998
2024-12-07 18:32:29.105695000,11.178695068359374,0.0031027152556926,1.3152251051992176,-0.0110872568693477
2024-12-07 18:32:29.115669000,11.1886689453125,-0.2460971595615148,1.158403727415204,0.3757826566061005
2024-12-07 18:32:29.125643000,11.19864306640625,-0.192188386176154,0.9132517397493124,0.947811085020378
2024-12-07 18:32:29.135617000,11.208616943359376,0.1579846494097262,0.4033066598802804,1.4897129264466464
2024-12-07 18:32:29.145591000,11.218591064453124,0.3951970031827688,-0.2381429856866597,1.7267518964141606
2024-12-07 18:32:29.155564000,11.22856396484375,0.519133763974905,-0.8418839551061391,1.8152404733367264
2024-12-07 18:32:29.165538000,11.2385380859375,0.3296545636922121,-1.3696663049608468,1.6947338331237434
2024-12-07 18:32:29.175512000,11.248511962890625,0.203605852247402,-1.5840286020874976,1.5517887127399443
2024-12-07 18:32:29.185486000,11.258486083984376,0.2379816576451063,-1.4828993009090423,1.281836922599375
2024-12-07 18:32:29.195460000,11.268460205078124,0.3453431312114,-1.2249363469868897,0.8218754785612225
2024-12-07 18:32:29.205434000,11.27843408203125,0.5346522356241941,-0.9357914883375168,0.3943851388106122
2024-12-07 18:32:29.215407000,11.288406982421876,0.77931147133708,-0.6109814420670271,-0.0397112298752181
2024-12-07 18:32:29.225381000,11.298381103515624,0.7235837388962507,-0.2150204687744379,-0.4462270062614232
2024-12-07 18:32:29.235355100,11.308355224609375,0.3140115888804197,0.2395166121274232,-0.8811902026433497
2024-12-07 18:32:29.245329200,11.3183291015625,-0.4140209461182356,0.7809668373286723,-1.33509271196872
2024-12-07 18:32:29.255303200,11.32830322265625,-1.2331091320484877,1.330548931059241,-1.726296992253512
2024-12-07 18:32:29.265277200,11.338277099609376,-2.062821587845683,1.5577029052197933,-1.9434230550050733
2024-12-07 18:32:29.275250200,11.348250244140624,-2.8481296692490576,1.188155891600251,-1.9400423265255984
2024-12-07 18:32:29.285224200,11.35822412109375,-3.3697166715949773,0.373055314001441,-1.614208782426268
2024-12-07 18:32:29.295198200,11.3681982421875,-3.1565257563352582,-0.3894458923101425,-0.993236107698828
2024-12-07 18:32:29.305172200,11.378172119140626,-2.50078688865304,-1.1303022530466318,-0.3565946295985951
2024-12-07 18:32:29.315146200,11.388146240234375,-1.7863450721114873,-1.7478467068910597,0.0499396870912983
2024-12-07 18:32:29.325119000,11.398118896484377,-1.0690794303208588,-1.718501954463124,0.1810627061257138
2024-12-07 18:32:29.335093000,11.408093017578125,-0.4904711485922336,-0.6955138287097216,0.3372558690087869
2024-12-07 18:32:29.345067000,11.41806689453125,0.0252251152146607,1.0818167468190192,0.7427642401844262
2024-12-07 18:32:29.355041000,11.428041015625,0.5635575006563216,2.8137130203843115,1.461692846751213
2024-12-07 18:32:29.365015000,11.43801513671875,0.94872871132195,3.8539965643316494,2.2153018676854668
