time,seconds_elapsed,z,y,x
2024-12-07 18:09:59.191307300,0.022307373046875,0.1240308688163757,-0.1499275266170501,0.1499734115853905
2024-12-07 18:09:59.201281300,0.03228125,0.1431324596494436,-0.1552478448569774,0.0189534145340323
2024-12-07 18:09:59.211254000,0.04225390625,0.0906505772620439,-0.6406044269144535,-0.3704024614050984
2024-12-07 18:09:59.221228000,0.05222802734375,0.0702607001841068,-2.5253479139357804,-1.542520533657074
2024-12-07 18:09:59.231202000,0.0622021484375,-0.0277373172312974,-2.131892201462388,-1.4512819273740052
2024-12-07 18:09:59.241175300,0.07217529296875,-0.2488783147126436,-1.0591086559265852,-1.149929329058528
2024-12-07 18:09:59.251149000,0.082149169921875,-0.2515241530463099,-0.575479336053133,-1.0913351012706756
2024-12-07 18:09:59.261123000,0.092123046875,-0.2003036688968539,-0.2630693371504545,-0.7655825134530663
2024-12-07 18:09:59.271097000,0.10209716796875,-0.1013791842862963,-0.2005097128629684,-0.5257055435806512
2024-12-07 18:09:59.281070300,0.1120703125,0.0163519998639822,-0.2804413277119398,-0.3896662570625543
2024-12-07 18:09:59.291044400,0.12204443359375,0.0583849689513444,-0.4425543821632862,-0.3836301917687058
2024-12-07 18:09:59.301018000,0.13201806640625,0.2647650351524352,-0.7894920890897512,-0.452493300114572
2024-12-07 18:09:59.310991400,0.141991455078125,0.216055364780128,-0.9995803621590136,-0.8515271049812435
2024-12-07 18:09:59.320965400,0.15196533203125,0.1948024411320686,-1.1694009222477677,-1.0547273721024393
2024-12-07 18:09:59.330939400,0.161939453125,0.1488093362420797,-1.4992922173053025,-0.934212986974418
2024-12-07 18:09:59.340912000,0.171912109375,0.1988280433863401,-2.628668003156781,0.0563455720782279
2024-12-07 18:09:59.350886100,0.18188623046875,-0.0450913337446749,-1.6185428661078214,-0.9085141898334026
2024-12-07 18:09:59.360860200,0.191860107421875,-0.2541284903258085,-1.779465833991766,-0.6853446091338992
2024-12-07 18:09:59.370834200,0.201834228515625,-0.2692677533991635,-2.611244574669003,0.58576107609272
2024-12-07 18:09:59.380807200,0.21180712890625,-0.0386461031280458,-2.17978149536252,0.661786331152916
2024-12-07 18:09:59.390781200,0.22178125,-0.0478518844991922,-2.1091461166471244,0.6654461688347161
2024-12-07 18:09:59.400755200,0.231755126953125,-0.2510579968392848,-1.660371837055683,0.7824234658777713
2024-12-07 18:09:59.410728200,0.241728271484375,-0.1254139937378466,-1.147169216695428,0.9242508342780172
2024-12-07 18:09:59.420702200,0.2517021484375,0.2621124748170376,-0.5066290871888399,0.9685613929085432
2024-12-07 18:09:59.430676200,0.26167626953125,0.3249655290931463,0.1120908401757478,0.9833490660652516
2024-12-07 18:09:59.440650200,0.271650146484375,0.4415916746109724,0.4825806876033544,0.8899803158856928
2024-12-07 18:09:59.450623200,0.281623291015625,0.3464075455725193,1.0080687890410422,0.75695000192523
2024-12-07 18:09:59.460597200,0.29159716796875,0.3230103764373809,1.3992998112022876,0.4370775581873953
2024-12-07 18:09:59.470571300,0.3015712890625,0.3177309747297316,1.8799661896169184,0.1129815054051577
2024-12-07 18:09:59.480544000,0.3115439453125,0.1617529889672994,2.55160755982995,-0.1219530396290123
2024-12-07 18:09:59.490518000,0.32151806640625,-0.1163811577808111,3.2703245694726704,-0.0912941358625888
2024-12-07 18:09:59.500492000,0.331491943359375,-0.278275674110651,3.836110194507241,0.0384966116547584
2024-12-07 18:09:59.510466000,0.341466064453125,-0.4053577471911907,4.217124358558655,0.2399941665112972
2024-12-07 18:09:59.520439000,0.35143896484375,-0.4082054647725075,4.174563566204905,0.468868096332252
2024-12-07 18:09:59.530413000,0.3614130859375,-0.3560054680664092,3.945960562279821,0.6408760834626853
2024-12-07 18:09:59.540387000,0.371386962890625,-0.4484340878516435,3.5228380258172747,0.6788831580348312
2024-12-07 18:09:59.550360300,0.3813603515625,-0.3351590793926268,2.419514380589128,0.7460277720250189
2024-12-07 18:09:59.560334000,0.391333984375,-0.0659714785575866,0.2548141345024108,0.2397700023666024
2024-12-07 18:09:59.570308000,0.40130810546875,0.1002501802563667,-0.7341384506583213,-0.0277528070613741
2024-12-07 18:09:59.580281300,0.41128125,0.1473965468347072,-0.6653279492825269,0.0086962244138121
2024-12-07 18:09:59.590255000,0.421255126953125,0.153020305000618,-0.4855535659343004,0.0217035900250077
2024-12-07 18:09:59.600229000,0.43122900390625,0.0619658961780369,-0.3818833481013775,0.0591517155401408
2024-12-07 18:09:59.610203100,0.441203125,0.0275649563390761,-0.4208586831837892,-0.1089525421500205
2024-12-07 18:09:59.620176000,0.45117578125,-0.0237760123848915,-0.1831464901298284,-0.0600602086871862
2024-12-07 18:09:59.630150000,0.46114990234375,0.0898866071522235,0.05281681343019,0.0619737872235477
2024-12-07 18:09:59.640124000,0.4711240234375,0.3224830646276473,-0.0066962827682495,0.0528081917323172
2024-12-07 18:09:59.650097000,0.481096923828125,0.1920920131295919,0.1380956345260143,0.2798978684850037
2024-12-07 18:09:59.660071000,0.49107080078125,0.1890309450585395,-0.2400339139997959,0.3187256117902696
2024-12-07 18:09:59.670045000,0.501044921875,0.2451718614101409,-1.0089859038859603,0.0804762431196868
2024-12-07 18:09:59.680019000,0.51101904296875,0.1176982317287474,-1.1382482436150312,0.3766208975285291
2024-12-07 18:09:59.689992000,0.520991943359375,0.0050439124513417,-1.292018417134881,0.6289205649919808
2024-12-07 18:09:59.699966000,0.530966064453125,0.0339783305127173,-1.2438438765525817,0.6003800416190177
2024-12-07 18:09:59.709940000,0.54093994140625,-0.0399906496047973,-1.0850906539231535,0.5204018111493438
2024-12-07 18:09:59.719913000,0.550912841796875,-0.1926297732681036,-0.9107768740683794,0.4999575735356658
2024-12-07 18:09:59.729887000,0.560886962890625,-0.1653506481330841,-0.7757645925104618,0.5634199918817728
2024-12-07 18:09:59.739861000,0.570861083984375,-0.033618118898198,-0.474116226118803,0.5401221914678812
2024-12-07 18:09:59.749834000,0.580833984375,-0.0426817153196781,-0.0307020122557878,0.5221945763176307
2024-12-07 18:09:59.759808000,0.59080810546875,-0.2457481269281357,0.3972749785006046,0.4975485761651769
2024-12-07 18:09:59.769782000,0.600781982421875,-0.1352367379635572,0.7936959705203771,0.5125585137704387
2024-12-07 18:09:59.779756000,0.610756103515625,-0.0746159727841615,1.1207657784163951,0.4527025954836979
2024-12-07 18:09:59.789728800,0.620728759765625,-0.0227280377019196,1.0548089129060507,0.4301019835537299
2024-12-07 18:09:59.799702800,0.630702880859375,0.0651461336493492,0.8183522728711367,0.3484546873606741
2024-12-07 18:09:59.809676800,0.6406767578125,0.0352261386167258,0.6750473792642354,0.1025918754111509
2024-12-07 18:09:59.819650000,0.650650146484375,0.4985931533146649,-0.5944786355555057,-0.3422553212638944
2024-12-07 18:09:59.829624000,0.6606240234375,1.4100550139725208,-3.7695787439793342,-0.7579834366261958
2024-12-07 18:09:59.839597800,0.670597900390625,1.1564444831062108,-3.213924052336812,-0.8513358201928436
2024-12-07 18:09:59.849571800,0.68057177734375,1.1841367921520023,-1.951608115026355,-0.9445438268527389
2024-12-07 18:09:59.859545000,0.690545166015625,0.3998246629834175,0.5708826559126376,-0.8029485136426985
2024-12-07 18:09:59.869519000,0.70051904296875,-0.4158282147359102,2.305460715907812,-0.7188176935382187
2024-12-07 18:09:59.879493000,0.7104931640625,-0.7333416742574423,2.8657074115157126,-0.6496643700741231
2024-12-07 18:09:59.889466000,0.720466064453125,-1.315802612826228,3.320166166484356,-0.4432685217820107
2024-12-07 18:09:59.899440000,0.730440185546875,-1.7307266452640293,3.349727776533365,-0.0525493216004222
2024-12-07 18:09:59.909414100,0.7404140625,-1.54346044485569,2.633411982813477,0.4898723059162497
2024-12-07 18:09:59.919387000,0.750386962890625,-0.9560276361584664,1.5849644216328858,0.1400199536520987
2024-12-07 18:09:59.929361000,0.76036083984375,-0.8079109583556652,1.146273729160428,-0.557565420634672
2024-12-07 18:09:59.939335000,0.7703349609375,0.024927520507574,-0.1113765544265508,-0.7932885587632655
2024-12-07 18:09:59.949309000,0.780308837890625,0.6787041482061147,-1.181361993676424,-0.6520976616356522
2024-12-07 18:09:59.959282000,0.790281982421875,-0.0012865326792001,-0.9384837961614132,-0.414994613455981
2024-12-07 18:09:59.969256000,0.800255859375,-0.7229769321095197,-0.2437684243530035,-0.3281092339463531
2024-12-07 18:09:59.979230000,0.81022998046875,-0.745113872050494,0.1240051498532295,-0.4967625038214027
2024-12-07 18:09:59.989203000,0.820202880859375,-0.4099882565360516,0.1188292085200548,-0.4808131299415603
2024-12-07 18:09:59.999177000,0.830177001953125,0.0946090325642377,0.2232300787150859,-0.1147237459626048
2024-12-07 18:10:00.009151000,0.84015087890625,0.1012105497211217,0.0567126518249511,0.3953910279175266
2024-12-07 18:10:00.019124000,0.8501240234375,-0.0431019865583628,-0.2013373958587646,1.0221217181824147
2024-12-07 18:10:00.029098000,0.860097900390625,-0.0407565194107592,-0.2132797625869512,1.431567757600546
2024-12-07 18:10:00.039072000,0.870072021484375,0.01694806606099,-0.0937882907658815,1.4853190754018724
2024-12-07 18:10:00.049046000,0.8800458984375,0.1261462535351514,0.1304009883701801,1.285254768218845
2024-12-07 18:10:00.059018800,0.890018798828125,0.0107978728681802,0.4380184922993183,0.9488211388457566
2024-12-07 18:10:00.068992800,0.89999267578125,-0.1989525465488433,0.6469277847170829,0.5355371652325615
2024-12-07 18:10:00.078966800,0.909966796875,-0.391162633100152,0.842495949524641,0.2828078376475721
2024-12-07 18:10:00.088940000,0.91993994140625,-0.5949218492783606,0.8421399756938218,0.139302635695599
2024-12-07 18:10:00.098913800,0.929913818359375,-0.7603380369283258,0.6265840848684311,0.0056185705341398
2024-12-07 18:10:00.108887800,0.9398876953125,-0.8339905715078115,0.4143494474202394,-0.0353903527351096
2024-12-07 18:10:00.118861800,0.94986181640625,-0.8134177390784024,0.3631979368537664,0.0101574560727924
2024-12-07 18:10:00.128835000,0.9598349609375,-0.7221956455387175,0.4523778570413589,0.0677883552538231
2024-12-07 18:10:00.138809000,0.96980908203125,-0.6558622018009423,0.5178197587668896,0.0582708410523831
2024-12-07 18:10:00.148782800,0.979782958984375,-0.5345752248652279,0.5036725754708051,0.0310835589192807
2024-12-07 18:10:00.158756000,0.989756103515625,-0.4830301849365234,0.4209101211100816,-0.0180016028350684
2024-12-07 18:10:00.168730000,0.999730224609375,-0.3823666015736758,0.2209025125503539,-0.0953272638361901
2024-12-07 18:10:00.178704100,1.0097041015625,-0.2088666223198175,-0.0204974291056394,-0.1830225166902877
2024-12-07 18:10:00.188676900,1.0196767578125,0.0462526326090097,-0.2358925764113664,-0.2897095981263555
2024-12-07 18:10:00.198651000,1.02965087890625,0.287257437467575,-0.386076708137989,-0.3535870818130672
2024-12-07 18:10:00.208625000,1.039625,0.4998687992736697,-0.4407429488271475,-0.3832176654450595
2024-12-07 18:10:00.218599000,1.049598876953125,0.5188344887673855,-0.3697878366380929,-0.3699604897912592
2024-12-07 18:10:00.228572000,1.059572021484375,0.4061382300443947,-0.2143061830252408,-0.3345634150544181
2024-12-07 18:10:00.238546000,1.0695458984375,0.2297388760872185,-0.0019715923339128,-0.3258443577542901
2024-12-07 18:10:00.248520000,1.07952001953125,0.0930994317188858,0.2087485488981008,-0.2787632749645039
2024-12-07 18:10:00.258493000,1.089492919921875,-0.0228412157528102,0.2817284449130297,-0.2514035406076349
2024-12-07 18:10:00.268467000,1.099467041015625,0.0106745387494564,0.3184843503803015,-0.1580837441363372
2024-12-07 18:10:00.278441000,1.10944091796875,0.0042003742992877,0.0797410607129335,-0.2609025145053863
2024-12-07 18:10:00.288415000,1.1194150390625,0.0591039308756589,-0.1610118152111768,-0.3020431378629058
2024-12-07 18:10:00.298388000,1.129387939453125,0.2305741578675806,-0.3574702068567276,-0.2866298070885241
2024-12-07 18:10:00.308362000,1.139362060546875,0.2824726874090731,-0.6519044040858745,-0.3255873507859185
2024-12-07 18:10:00.318336000,1.1493359375,0.3272055631048977,-0.7451005741775035,-0.3505176477724686
2024-12-07 18:10:00.328309000,1.15930908203125,0.3956728040009736,-0.612665449631214,-0.3890733692033216
2024-12-07 18:10:00.338283000,1.169282958984375,0.3206577488966286,-0.6073463004350662,-0.2377801437236368
2024-12-07 18:10:00.348257000,1.179257080078125,0.3053366995155811,-0.6563415097504853,-0.0546008838353678
2024-12-07 18:10:00.358229800,1.189229736328125,0.3208594089485704,-0.6390227106809616,0.1232640491623431
2024-12-07 18:10:00.368203800,1.199203857421875,0.3052181877024472,-0.6694710404366254,0.1707523975787684
2024-12-07 18:10:00.378177800,1.209177734375,0.2293283955901861,-0.6752402714878321,0.1142353779237717
2024-12-07 18:10:00.388151800,1.21915185546875,0.0463344656735658,-0.5837473981827497,0.1600848365593701
2024-12-07 18:10:00.398125000,1.229125,-0.106670860953629,-0.4515601109176874,0.2321869998916983
2024-12-07 18:10:00.408098800,1.239098876953125,-0.2850122888892888,-0.3460194230377674,0.3446121865883469
2024-12-07 18:10:00.418072800,1.24907275390625,-0.5040003461204469,-0.3576584229052066,0.4126958715269341
2024-12-07 18:10:00.428046000,1.259046142578125,-0.5619564221352339,-0.4671142384022474,0.3151278430266305
2024-12-07 18:10:00.438020000,1.26902001953125,-0.4789356090992689,-0.7211094577372074,0.1382423495203256
2024-12-07 18:10:00.447994000,1.278994140625,-0.3714923024684191,-0.962011386743188,-0.0545797314494848
2024-12-07 18:10:00.457967000,1.288967041015625,-0.3260036399692296,-1.0902367846399543,-0.1144496417289599
2024-12-07 18:10:00.467941000,1.298941162109375,-0.5388192921757697,-1.3074328438878058,-0.0980081004180014
2024-12-07 18:10:00.477915100,1.3089150390625,-0.7275238548241555,-1.6060452035844326,-0.0379254241706803
2024-12-07 18:10:00.487889200,1.31888916015625,-0.8127893780469894,-1.719112195315957,0.2274737806994468
2024-12-07 18:10:00.497862000,1.32886181640625,-0.7010058502547443,-1.795194733521342,0.3692709000919014
2024-12-07 18:10:00.507836000,1.3388359375,-0.4856510349594056,-1.7543746473550796,0.4378293994680047
2024-12-07 18:10:00.517810000,1.348809814453125,-0.2748496451847255,-1.5996955422967671,0.5330566369958222
2024-12-07 18:10:00.527783000,1.358782958984375,-0.3292493438921868,-1.431533855330944,0.5026198515474796
2024-12-07 18:10:00.537757000,1.3687568359375,-0.5372849222153425,-1.1644774943709373,0.5657681989757344
2024-12-07 18:10:00.547731000,1.37873095703125,-0.7686427778065205,-0.966195978951454,0.4868383085152134
2024-12-07 18:10:00.557705000,1.388705078125,-0.9555576805591582,-0.8647142110735178,0.2398561097474768
2024-12-07 18:10:00.567678000,1.398677978515625,-1.3347154030889272,-0.8333440902978181,-0.0779343583508394
2024-12-07 18:10:00.577652000,1.40865185546875,-1.680079577088356,-0.7817892596274614,-0.2947085023921914
2024-12-07 18:10:00.587626200,1.418626220703125,-1.8819751913517715,-0.8452519702345133,-0.4557275327954441
2024-12-07 18:10:00.597599200,1.42859912109375,-2.0407406889408826,-0.7676426608532667,-0.3718179176935925
2024-12-07 18:10:00.607573200,1.4385732421875,-2.113337576987594,-0.2247095036178827,-0.1409823872097768
2024-12-07 18:10:00.617547300,1.44854736328125,-2.1870985403776166,0.6543991435110569,0.1724643708621151
2024-12-07 18:10:00.627520000,1.45852001953125,-1.9505419470995664,1.572936714708805,0.3627886984657496
2024-12-07 18:10:00.637494000,1.468493896484375,-1.1220189933478832,2.3982547349393366,0.1411371759126894
2024-12-07 18:10:00.647468000,1.478468017578125,-0.1715887388050556,3.0321593719542026,-0.2332251107677817
2024-12-07 18:10:00.657442000,1.488442138671875,0.3509545413523912,3.2506080616116524,-0.5300578570386395
2024-12-07 18:10:00.667415000,1.4984150390625,0.3222777513138949,2.9482956783533094,-0.2518241223735735
2024-12-07 18:10:00.677389000,1.50838916015625,0.1975629918865859,1.8056471539527177,0.5963642301063984
2024-12-07 18:10:00.687363000,1.518363037109375,0.1844236704587936,0.3490612749516963,1.1988446780707689
2024-12-07 18:10:00.697336300,1.52833642578125,0.2939204024881124,-0.7262994275957345,1.2859032952554523
2024-12-07 18:10:00.707310000,1.53831005859375,0.4891776016503572,-1.267731532618403,1.095872306308895
2024-12-07 18:10:00.717284000,1.5482841796875,0.7586690808027983,-1.5418196919113396,0.608364829827845
2024-12-07 18:10:00.727257300,1.55825732421875,0.64836227449961,-1.336552555388212,0.1874865103618241
2024-12-07 18:10:00.737231400,1.5682314453125,0.1288824005007743,-0.8993348580777645,0.1133898761434946
2024-12-07 18:10:00.747205400,1.578205322265625,-0.1563712228637188,-0.507553800818324,0.1271370272713247
2024-12-07 18:10:00.757179100,1.58817919921875,-0.1932954706352204,-0.0992512323468923,0.0113381537573412
2024-12-07 18:10:00.767152400,1.59815234375,-0.1982755240701139,0.3400795115947723,-0.1799151800584048
2024-12-07 18:10:00.777126400,1.60812646484375,-0.2236784070044755,0.6338105289906263,-0.3748060301262885
2024-12-07 18:10:00.787100400,1.618100341796875,-0.3931581177663057,0.6698398737490177,-0.4220301381159573
2024-12-07 18:10:00.797073200,1.6280732421875,-0.6316033743351698,0.4847071782380342,-0.4505881240803748
2024-12-07 18:10:00.807047200,1.638047119140625,-0.7538315045785159,0.2965928365677595,-0.4719570022583007
2024-12-07 18:10:00.817021200,1.648021240234375,-0.6344196007996797,0.1035176576197147,-0.499192397849448
2024-12-07 18:10:00.826994200,1.657994140625,-0.2988859159409999,-0.0048708209067583,-0.5174447514420375
2024-12-07 18:10:00.836968200,1.66796826171875,0.071910805478692,-0.0548643936097621,-0.4522216435663402
2024-12-07 18:10:00.846942200,1.677942138671875,0.441500416130945,-0.3166039434611797,-0.32051753670834
2024-12-07 18:10:00.856916200,1.687916259765625,0.8390729893386364,-0.6204477740705013,-0.209384928839188
2024-12-07 18:10:00.866889200,1.69788916015625,1.1350322041779757,-0.8044009044080972,-0.0745047263954533
2024-12-07 18:10:00.876863200,1.70786328125,1.2549497924566269,-0.8418857086718082,0.0008417663200758
2024-12-07 18:10:00.886837200,1.717837158203125,1.1127801134247333,-0.6500999850124121,0.106173177097179
2024-12-07 18:10:00.896810200,1.727810302734375,0.9184534731108694,-0.2825958753973245,0.2548298252618871
2024-12-07 18:10:00.906784300,1.7377841796875,0.7684498125176876,0.1984837599933147,0.4486152165722101
2024-12-07 18:10:00.916758300,1.74775830078125,0.8318190726876258,0.5370248099744319,0.5570439540438353
2024-12-07 18:10:00.926731000,1.75773095703125,1.1344897678643464,0.7938876937001943,0.5754615446681156
2024-12-07 18:10:00.936705000,1.767705078125,1.2445786205679177,0.9710311440229416,0.612629391937144
2024-12-07 18:10:00.946679000,1.777678955078125,0.9765062874983996,1.1820786175131797,0.6603403701283037
2024-12-07 18:10:00.956653000,1.787653076171875,0.607609262220189,1.3017916231304407,0.7087976731747389
2024-12-07 18:10:00.966626000,1.7976259765625,0.3898684285711496,1.1750824750155209,0.474815971885994
2024-12-07 18:10:00.976600000,1.80760009765625,0.3679652973860502,0.7593219917535782,0.0872065012227743
2024-12-07 18:10:00.986574000,1.817573974609375,0.4108306987095624,0.4860381345808505,-0.2238079516682773
2024-12-07 18:10:00.996547300,1.82754736328125,0.5371563273996114,0.2058095728367567,-0.4995473487669601
2024-12-07 18:10:01.006521300,1.837521240234375,0.5820009198416024,-0.0544593199402093,-0.6761605281379074
2024-12-07 18:10:01.016495000,1.8474951171875,0.5401046558111906,-0.2368552839636802,-0.7885526162825525
2024-12-07 18:10:01.026469000,1.85746923828125,0.5168184727698564,-0.3604986147671937,-0.7964584209710359
2024-12-07 18:10:01.036442400,1.8674423828125,0.520277088791132,-0.3821878840059042,-0.6200038296952843
2024-12-07 18:10:01.046416400,1.87741650390625,0.5528389766346663,-0.397999785643816,-0.3546555878274142
2024-12-07 18:10:01.056390400,1.887390380859375,0.6650976476579904,-0.3441127126336097,0.074216872197669
2024-12-07 18:10:01.066363100,1.897363037109375,0.6940981166929007,-0.2079524300843477,0.5362616070495918
2024-12-07 18:10:01.076337200,1.907337158203125,0.7314326257657259,-0.1098053595870733,0.8911935641329735
2024-12-07 18:10:01.086311200,1.917311279296875,0.8220229972731321,-0.0242243406742811,1.1045118320994078
2024-12-07 18:10:01.096284200,1.9272841796875,0.8806494468301534,0.0950701472699642,1.248825172096491
2024-12-07 18:10:01.106258200,1.937258056640625,0.7102139697134494,0.1377431678265333,1.2596312282711266
2024-12-07 18:10:01.116232200,1.947232177734375,0.3182732649128884,0.1136409922271966,1.1890505023524165
2024-12-07 18:10:01.126206200,1.957206298828125,0.0365016384452581,0.0243044201731681,1.117829871094972
2024-12-07 18:10:01.136179200,1.96717919921875,-0.083664408169128,0.041194180175662,1.0932609547667205
2024-12-07 18:10:01.146153200,1.9771533203125,-0.0986317487416788,0.1022626891225576,1.1007247147761283
2024-12-07 18:10:01.156127200,1.987127197265625,-0.17637710559275,0.227321731942892,1.041233538148552
2024-12-07 18:10:01.166100200,1.997100341796875,-0.2094727349868044,0.3393102807879448,0.9836056711748242
2024-12-07 18:10:01.176074200,2.00707421875,-0.1311164431631565,0.3281669554829597,0.8545837160728871
2024-12-07 18:10:01.186048300,2.01704833984375,-0.2447562298139557,0.1678016214817762,0.5544795834485441
2024-12-07 18:10:01.196021200,2.027021240234375,-0.479324864145182,-0.0688923344403505,0.1996754539959132
2024-12-07 18:10:01.205995000,2.0369951171875,-0.5856353673538193,-0.2769868033438921,-0.1650660955706611
2024-12-07 18:10:01.215969000,2.046968994140625,-0.6506114416658878,-0.4241413581162691,-0.4668571583686396
2024-12-07 18:10:01.225943000,2.056943115234375,-0.8974906915158033,-0.4102390894919633,-0.6070247403305024
2024-12-07 18:10:01.235916000,2.066916015625,-1.1616361334651708,-0.2317202591627836,-0.5443623497882858
2024-12-07 18:10:01.245890000,2.07689013671875,-1.1203554440498351,-0.0904763897389173,-0.3224464224116876
2024-12-07 18:10:01.255864000,2.086864013671875,-0.8878203613728284,-0.0249205062448978,0.0239656166728585
2024-12-07 18:10:01.265837300,2.09683740234375,-0.5467728815287352,0.0574766219347715,0.4393480969352647
2024-12-07 18:10:01.275811000,2.10681103515625,-0.2080214036673307,0.2455909636050462,0.7693444963350892
2024-12-07 18:10:01.285785000,2.11678515625,0.1048561396818608,0.5435241088658571,0.9215694862395524
2024-12-07 18:10:01.295758300,2.12675830078125,0.5925976441144943,0.7571423096269368,0.9055052172757684
2024-12-07 18:10:01.305732400,2.136732421875,1.0361135647863149,0.7724217118233442,0.8268548744089901
2024-12-07 18:10:01.315706400,2.146706298828125,1.0934358729422091,0.6603343787789344,0.7817503889217973
2024-12-07 18:10:01.325680000,2.15668017578125,0.8514023095577955,0.5374912584424019,0.7778216711707413
2024-12-07 18:10:01.335653400,2.1666533203125,0.4860983403354882,0.5252689057290554,0.7636500840857624
2024-12-07 18:10:01.345627400,2.17662744140625,0.297147547841072,0.5827326681822538,0.8150034738998859
2024-12-07 18:10:01.355601400,2.186601318359375,0.2292535767883062,0.5753834744632244,0.8660633606601505
2024-12-07 18:10:01.365574100,2.19657421875,0.2656272414723411,0.4420797503888606,0.8068349996872246
2024-12-07 18:10:01.375548200,2.206548095703125,0.2755237450540065,0.2476829674482345,0.7081733307313174
2024-12-07 18:10:01.385522200,2.216522216796875,0.203603075768426,0.095965634804964,0.5377360269837081
2024-12-07 18:10:01.395495200,2.2264951171875,0.036332127097249,-0.0138975924491882,0.3027551585897803
2024-12-07 18:10:01.405469200,2.23646923828125,-0.1893185298282653,-0.156871062144637,0.102960462128371
2024-12-07 18:10:01.415443200,2.246443115234375,-0.4462742794692516,-0.3156780607879161,0.0107480423770844
2024-12-07 18:10:01.425417200,2.256417236328125,-0.8138076151788234,-0.5170733243137597,-0.0028510785821825
2024-12-07 18:10:01.435390200,2.26639013671875,-1.246842473846674,-0.6324117681086063,0.0841905874677002
2024-12-07 18:10:01.445364200,2.2763642578125,-1.7338596825927497,-0.5102011004567146,0.1998550483465194
2024-12-07 18:10:01.455338200,2.286338134765625,-2.084500920212269,-0.1160024606615304,0.3472270452618599
2024-12-07 18:10:01.465311200,2.296311279296875,-2.1999024923712014,0.450199343958497,0.4061631452899426
2024-12-07 18:10:01.475285200,2.30628515625,-2.220212874472141,0.9346697908312082,0.2243734035313129
2024-12-07 18:10:01.485259300,2.31625927734375,-2.070690421524644,1.1348083322942255,-0.2006916818337515
2024-12-07 18:10:01.495233300,2.3262333984375,-1.8716618871301407,1.0394839180022477,-0.6898686624296009
2024-12-07 18:10:01.505206000,2.3362060546875,-1.9095061723560096,0.6881336553305387,-1.1503696201719342
2024-12-07 18:10:01.515180000,2.346179931640625,-2.0522008251100776,0.4204553630799055,-1.3765483195595445
2024-12-07 18:10:01.525154000,2.356154052734375,-2.332086857026815,0.3206505885034799,-1.3785713498197496
2024-12-07 18:10:01.535127000,2.366126953125,-2.482542791432142,0.4435235194563865,-1.6512167629584669
2024-12-07 18:10:01.545101000,2.37610107421875,-2.1448487136691807,0.7158698035180568,-2.381683831627667
2024-12-07 18:10:01.555075000,2.386074951171875,-1.127088551697135,0.9160545222103595,-2.736888431639969
2024-12-07 18:10:01.565048300,2.39604833984375,1.3143787175029515,0.9958294851928948,-2.2483798152923584
2024-12-07 18:10:01.575022300,2.406022216796875,3.1723347353637217,1.0030985994130373,-1.4847348457731306
2024-12-07 18:10:01.584996000,2.41599609375,3.7507027785956857,1.0644424181699752,-0.8063815568313002
2024-12-07 18:10:01.594970000,2.42597021484375,3.1988813815057275,1.304111005988717,-0.2204037144490517
2024-12-07 18:10:01.604943000,2.435943115234375,1.5868101956300436,1.6305314100652932,0.3234979042259976
2024-12-07 18:10:01.614917000,2.445917236328125,-0.0980805811323225,1.699880256101489,0.7923231477972119
2024-12-07 18:10:01.624891100,2.45589111328125,-0.8084031257867813,1.3801274932205676,0.1546772236284799
2024-12-07 18:10:01.634863900,2.46586376953125,-0.4803332009375095,0.7155652676135301,-0.8583177149694412
2024-12-07 18:10:01.644838000,2.475837890625,0.0063347559794783,-0.0473731610715389,-1.327522568975389
2024-12-07 18:10:01.654812000,2.48581201171875,0.1765174273788929,-0.7380804662823677,-1.290912940111011
2024-12-07 18:10:01.664785000,2.495784912109375,0.2844277669996023,-1.28336632412374,-0.9444701770946384
2024-12-07 18:10:01.674759000,2.505759033203125,0.4719850593090057,-1.8244623290598392,-0.5457151891693472
2024-12-07 18:10:01.684733000,2.51573291015625,0.6707385761544108,-2.260286526185274,-0.3165869923263788
2024-12-07 18:10:01.694707000,2.52570703125,0.8502288818642496,-2.535546651867032,-0.2495793208551593
2024-12-07 18:10:01.704680000,2.535679931640625,0.8568086986459791,-2.631347451499104,0.0104900855606421
2024-12-07 18:10:01.714654000,2.545654052734375,0.5536667326956987,-2.6619799056500195,0.2919588748904876
2024-12-07 18:10:01.724628000,2.5556279296875,0.1191105096794664,-2.4653876584917307,0.5273273726288229
2024-12-07 18:10:01.734601000,2.56560107421875,-0.4092085774004459,-2.243364617478848,0.581652106403932
2024-12-07 18:10:01.744575000,2.575574951171875,-0.8391166823498905,-2.027161076399684,0.4589261096410453
2024-12-07 18:10:01.754549000,2.585549072265625,-1.018607572581619,-1.816033523410559,0.3535219076223671
2024-12-07 18:10:01.764521700,2.595521728515625,-1.0698667813062668,-1.674499146607518,0.3443795468762516
2024-12-07 18:10:01.774495700,2.605495849609375,-1.1058195536971092,-1.6216472618639468,0.343142771622911
2024-12-07 18:10:01.784469800,2.6154697265625,-0.9590841011196374,-1.697476117569208,0.2687874590689316
2024-12-07 18:10:01.794443800,2.62544384765625,-0.9014479047089816,-1.7839631454110143,0.1589056367121636
2024-12-07 18:10:01.804416800,2.635416748046875,-1.0708429328620432,-1.725980912041664,0.3238208525700494
2024-12-07 18:10:01.814390800,2.645390869140625,-1.3042150508850812,-1.483694250679016,0.6362586527951062
2024-12-07 18:10:01.824364800,2.65536474609375,-1.4561856276370584,-1.1484311994552612,0.9877817147504536
2024-12-07 18:10:01.834338000,2.665338134765625,-1.5353649628140031,-0.7342951025247574,1.400872028955072
2024-12-07 18:10:01.844312000,2.67531201171875,-1.3157663724690676,-0.3475929559648036,1.7417071812227367
2024-12-07 18:10:01.854286000,2.6852861328125,-1.2394171461515129,-0.0502215362399816,2.073588042662293
2024-12-07 18:10:01.864259000,2.695259033203125,-1.3779447423540054,0.2164396879225969,2.32603588642478
2024-12-07 18:10:01.874233000,2.705233154296875,-1.86404103686288,0.4588467607945203,2.41757932087332
2024-12-07 18:10:01.884207000,2.71520703125,-2.557428228807449,0.4815156887203454,2.130907720469683
2024-12-07 18:10:01.894181000,2.72518115234375,-3.068734660157561,0.2512269236654043,1.530614845677465
2024-12-07 18:10:01.904154000,2.735154052734375,-3.303250102996826,0.0339811800569295,1.0700541205719112
2024-12-07 18:10:01.914128100,2.745128173828125,-3.193644649896026,-0.0995627825140953,0.6944225994069129
2024-12-07 18:10:01.924102100,2.75510205078125,-2.715573548671603,0.1104015719145536,0.2885463082343339
2024-12-07 18:10:01.934075000,2.765074951171875,-1.887388886963576,0.6234346809267998,-0.1411925593617372
2024-12-07 18:10:01.944049000,2.775048828125,-1.0159579348556698,1.3376947111606596,-0.3311933540994301
2024-12-07 18:10:01.954023000,2.78502294921875,-0.1164373449474573,2.134289325731993,-0.5038646639768034
2024-12-07 18:10:01.963997000,2.794996826171875,1.359686762738228,2.639856336647272,-0.7316325322519988
2024-12-07 18:10:01.973970000,2.804969970703125,2.943410828921199,2.4318285032391547,-0.9199108323123304
2024-12-07 18:10:01.983944000,2.81494384765625,3.6452953617066144,1.4256956506967544,-0.998143242027983
2024-12-07 18:10:01.993918000,2.82491796875,3.4883389593660827,-0.0186859957695007,-1.1598372673496604
2024-12-07 18:10:02.003891000,2.834890869140625,2.8069711449086663,-1.0881658235847949,-1.6935232882902025
2024-12-07 18:10:02.013865000,2.844864990234375,1.4836888438515363,-1.2708850282132624,-1.8992314465790985
2024-12-07 18:10:02.023839000,2.8548388671875,-0.4470394186228513,-0.9929325947076082,-1.6708572829738255
2024-12-07 18:10:02.033812000,2.86481201171875,-2.3738971232742068,-0.5343377628475428,-1.544675227472931
2024-12-07 18:10:02.043786000,2.874785888671875,-2.6418799514293667,-0.2571598208457231,-2.071705005394667
2024-12-07 18:10:02.053760000,2.884760009765625,-0.800725430765748,-0.2489233228981494,-2.6514795544236898
2024-12-07 18:10:02.063734000,2.894734130859375,1.2500586594142018,-0.2457639820843934,-2.644185598023236
2024-12-07 18:10:02.073706800,2.904706787109375,2.439614480940252,-0.1737701744973659,-2.019435596714169
2024-12-07 18:10:02.083680800,2.9146806640625,2.846084427157044,0.0480202268034219,-1.1815982135850935
2024-12-07 18:10:02.093654800,2.92465478515625,2.864050291958451,0.4358785576611757,-0.5766624083578586
2024-12-07 18:10:02.103628000,2.9346279296875,2.797185663953423,0.8015291483640671,-0.320424305466935
2024-12-07 18:10:02.113602000,2.94460205078125,2.705250892099738,1.049496777972579,-0.178042408456467
2024-12-07 18:10:02.123575800,2.954575927734375,2.355798572003841,1.3099696688890456,0.1218737729808781
2024-12-07 18:10:02.133549000,2.964549072265625,1.83602358751595,1.3615338519096374,0.4669495128272101
2024-12-07 18:10:02.143523000,2.974523193359375,1.2959649628035723,1.2210627204239368,0.6773593825336546
2024-12-07 18:10:02.153497000,2.9844970703125,1.020389925953746,0.9539508298844098,0.6700422644533216
2024-12-07 18:10:02.163471000,2.99447119140625,0.8917197799641639,0.6573889729768038,0.3360333780091256
2024-12-07 18:10:02.173444000,3.004444091796875,0.8978497340865432,0.3392962522625923,-0.1887599095648154
2024-12-07 18:10:02.183418000,3.014418212890625,1.00677882229574,-0.0016571195572614,-0.5492222474422306
2024-12-07 18:10:02.193392000,3.02439208984375,1.042352239980176,-0.282024212989211,-0.6863662072665989
2024-12-07 18:10:02.203364900,3.03436474609375,1.0047251777015629,-0.3961258084654808,-0.6970837083749473
2024-12-07 18:10:02.213339000,3.0443388671875,0.9523445637315512,-0.3972930986791849,-0.6392060313586145
2024-12-07 18:10:02.223313000,3.05431298828125,0.8529789112247527,-0.2921317655056715,-0.4621161743866279
2024-12-07 18:10:02.233286000,3.064285888671875,0.7955079883784055,-0.1758329522460699,-0.1467331144899129
2024-12-07 18:10:02.243260000,3.074260009765625,0.688596085210517,-0.1017950716108083,0.0720788372556679
2024-12-07 18:10:02.253234000,3.08423388671875,0.4158674507677555,0.0007277297526597,0.2446719490639865
2024-12-07 18:10:02.263208000,3.0942080078125,0.3400052773147821,0.1386246268361806,0.4964006117064505
2024-12-07 18:10:02.273181000,3.104180908203125,0.3823592950500548,0.1961211225152015,0.6722174165353179
2024-12-07 18:10:02.283155000,3.114155029296875,0.3107224842071533,0.1602373237073421,0.8387422960795462
2024-12-07 18:10:02.293129000,3.12412890625,0.2477794135600328,0.0962409446150064,1.0055167664706706
2024-12-07 18:10:02.303102000,3.13410205078125,0.3332393633764237,0.0102215342849493,1.1311197069093584
2024-12-07 18:10:02.313076000,3.144075927734375,0.6053425959298386,-0.0810118113011121,1.244283437013626
2024-12-07 18:10:02.323050000,3.154050048828125,0.8439245940882713,-0.1818313158780336,1.2387769485518336
2024-12-07 18:10:02.333022700,3.164022705078125,0.8820511303216219,-0.2859580453068018,1.08216015342921
2024-12-07 18:10:02.342996700,3.173996826171875,0.7456131998747587,-0.3618289865881204,0.7513244901936501
2024-12-07 18:10:02.352970800,3.183970703125,0.5449930123746395,-0.2608165897876024,0.3366652096392586
2024-12-07 18:10:02.362944800,3.19394482421875,0.2232213108867406,0.030218612653017,-0.0305688143301755
2024-12-07 18:10:02.372918000,3.20391796875,-0.1257832654416561,0.2806529246360063,-0.2414608780629932
2024-12-07 18:10:02.382891800,3.213891845703125,-0.425751167933084,0.3560983339816331,-0.2335698325522243
2024-12-07 18:10:02.392865800,3.22386572265625,-0.6019663609623909,0.3018126170426607,-0.0871855314999818
2024-12-07 18:10:02.402839000,3.233839111328125,-0.517334057609178,0.1014893666625022,0.1745841212287545
2024-12-07 18:10:02.412813000,3.24381298828125,-0.3454559439361095,-0.1363555128604173,0.4152505609784275
2024-12-07 18:10:02.422787000,3.253787109375,-0.3033498730799183,-0.4178326133608818,0.5374423047341406
2024-12-07 18:10:02.432760000,3.263760009765625,-0.5745172130227089,-0.782903358349204,0.6071038699813187
2024-12-07 18:10:02.442734000,3.273734130859375,-1.0756026946097612,-0.9067810824304818,0.6228784352835267
2024-12-07 18:10:02.452708000,3.2837080078125,-1.5681348673850295,-0.3440735496670007,0.6203293353226036
2024-12-07 18:10:02.462682000,3.29368212890625,-1.6987918763428926,0.6123281805008649,0.9232618232406676
2024-12-07 18:10:02.472655000,3.303655029296875,-1.8669377812176944,1.3050555933624506,1.3491409649349748
2024-12-07 18:10:02.482629000,3.313629150390625,-1.97233701480031,1.4842974772691726,1.6048597931921482
2024-12-07 18:10:02.492603100,3.32360302734375,-1.8027081778913736,1.21963940962255,1.770756896226853
2024-12-07 18:10:02.502575900,3.333575927734375,-1.4752087464064358,0.8661053731709718,1.8416748912759124
2024-12-07 18:10:02.512550000,3.3435498046875,-1.1364677899390458,0.5310054035544395,1.7785355674043295
2024-12-07 18:10:02.522524000,3.35352392578125,-0.9601619594842196,0.2316898640245199,1.5566818916089833
2024-12-07 18:10:02.532497000,3.363496826171875,-0.910108181026578,-0.000900748232007,1.2271055077195168
2024-12-07 18:10:02.542471000,3.373470947265625,-0.9510480941802264,-0.1936860043227672,0.919252806795016
2024-12-07 18:10:02.552445000,3.38344482421875,-1.0595698436975478,-0.3782663266479968,0.6504276095315814
2024-12-07 18:10:02.562419000,3.3934189453125,-1.3363631702959538,-0.4305073860168457,0.4553879255775362
2024-12-07 18:10:02.572392000,3.403391845703125,-1.642792341223359,-0.0974631798863411,0.4232550037357956
2024-12-07 18:10:02.582366000,3.413365966796875,-1.99257199357748,0.5976134264498949,0.6401006421107799
2024-12-07 18:10:02.592340500,3.423340576171875,-2.199036815452576,1.2141069099366664,1.015007283067331
2024-12-07 18:10:02.602313500,3.4333134765625,-2.1801906606853008,1.891819124495983,1.4488213824793696
2024-12-07 18:10:02.612287500,3.44328759765625,-1.7309803277641531,2.2162118221372364,1.691166788291931
2024-12-07 18:10:02.622261500,3.453261474609375,-0.9631418520778418,2.1774241185814143,1.5515256778895854
2024-12-07 18:10:02.632234500,3.463234375,-0.2352934414744377,1.9127976151168344,1.1658745747525243
2024-12-07 18:10:02.642208500,3.47320849609375,-0.0312929638862609,1.6667583232223986,0.7702370612606406
2024-12-07 18:10:02.652182500,3.4831826171875,-0.7826088323820382,1.666366109034419,0.4432790431760251
2024-12-07 18:10:02.662156500,3.493156494140625,-2.512557990467548,1.488151814609766,-0.1709732372552156
2024-12-07 18:10:02.672129500,3.503129638671875,-4.527145416498184,1.485202901676297,-1.369321144784987
2024-12-07 18:10:02.682103600,3.513103515625,-6.16999971704185,1.6757850947648285,-3.665632339553534
2024-12-07 18:10:02.692077600,3.52307763671875,-5.624184282368422,1.6853963881969451,-5.752263549792766
2024-12-07 18:10:02.702050600,3.533050537109375,-2.965700986662507,1.4829343722224235,-6.202739957126974
2024-12-07 18:10:02.712024600,3.543024658203125,0.101989717400074,1.085935288053751,-4.863047057886422
2024-12-07 18:10:02.721998600,3.55299853515625,2.57596517149508,0.6396417193621396,-2.7414935873478647
2024-12-07 18:10:02.731972600,3.56297265625,4.59727693734467,-0.0791635530859232,-0.9334639952380208
2024-12-07 18:10:02.741945600,3.572945556640625,5.749997942948341,-0.6479571277648211,0.6589706892102957
2024-12-07 18:10:02.751919600,3.582919677734375,5.901597202169895,-0.8989332915395498,2.012909702076763
2024-12-07 18:10:02.761893600,3.5928935546875,4.787210895657539,-0.6873381210386753,3.0216680808171628
2024-12-07 18:10:02.771866600,3.60286669921875,2.5691885169669986,-0.1388520058512687,2.838095474229753
2024-12-07 18:10:02.781840600,3.612840576171875,0.6720020202189684,0.4802554595261812,1.4648152165554462
2024-12-07 18:10:02.791814700,3.622814697265625,-0.02757394336313,0.5703080708950757,0.2576146519411355
2024-12-07 18:10:02.801787600,3.63278759765625,0.1354176474884152,0.482531003242731,-0.0386866497675655
2024-12-07 18:10:02.811761700,3.64276171875,0.5917573938980698,0.3511380812257528,0.1441034966386854
2024-12-07 18:10:02.821735700,3.652735595703125,0.7615095649257302,0.0496796844482421,-0.0041516854525078
2024-12-07 18:10:02.831709700,3.662709716796875,0.9408557859897612,-0.2920160301715135,-0.3409142088532447
2024-12-07 18:10:02.841682700,3.6726826171875,1.3127221824675797,-0.8530641052901744,-0.7472575330156832
2024-12-07 18:10:02.851656700,3.68265673828125,1.3642138847738503,-1.6498206324249505,-1.1734725556008516
2024-12-07 18:10:02.861630700,3.692630615234375,1.4977569705620408,-2.5549375810354946,-1.4279134728766978
2024-12-07 18:10:02.871603500,3.702603515625,1.616771764782071,-3.322165231347084,-1.2450875930033622
2024-12-07 18:10:02.881577500,3.712577392578125,1.547289063233137,-3.9194355434477326,-0.8842275245126336
2024-12-07 18:10:02.891551500,3.722551513671875,1.343087802375853,-4.4394075118124485,-0.7518840968377888
2024-12-07 18:10:02.901524500,3.7325244140625,1.107959196074307,-4.511746771836281,-0.6854229350671172
2024-12-07 18:10:02.911498500,3.74249853515625,0.7970955498307943,-4.221650896072387,-0.6679501144796609
2024-12-07 18:10:02.921472500,3.752472412109375,0.4041343428760767,-3.6728187439262863,-0.6708554074671119
2024-12-07 18:10:02.931446500,3.762446533203125,0.0594978986293077,-2.9626620573580262,-0.593882642423734
2024-12-07 18:10:02.941419500,3.77241943359375,-0.4280389500766992,-2.2355653419047594,-0.4558670873966067
2024-12-07 18:10:02.951393500,3.7823935546875,-1.1708575507968664,-1.7100222954094408,-0.3403528851760551
2024-12-07 18:10:02.961367600,3.792367431640625,-1.9498301455684004,-1.3060779221475125,-0.2530289681186899
2024-12-07 18:10:02.971340500,3.802340576171875,-2.388838087296486,-0.8546224406480789,-0.0101316880189406
2024-12-07 18:10:02.981314600,3.812314453125,-2.360874267832935,-0.2262760222822427,0.5143315147923305
2024-12-07 18:10:02.991288600,3.82228857421875,-2.0017583395957947,0.3789502172589302,0.9949167542621492
2024-12-07 18:10:03.001261600,3.832261474609375,-1.5334519687995314,0.9474544536024332,1.3406181973919271
2024-12-07 18:10:03.011235600,3.842235595703125,-1.3647732722222805,1.3631512239784,1.668006423587352
2024-12-07 18:10:03.021209600,3.852209716796875,-1.3332701727166771,1.4150737189173697,1.917145873454213
2024-12-07 18:10:03.031183400,3.862183349609375,-1.516878435139358,1.2305173619896173,2.205313119243085
2024-12-07 18:10:03.041156600,3.872156494140625,-1.85662418473512,0.8635960206985474,2.262268055391312
2024-12-07 18:10:03.051130600,3.882130615234375,-2.360586390802264,0.3648720075458288,1.9691449407607315
2024-12-07 18:10:03.061104600,3.892104736328125,-2.898943326163292,-0.1402916832655668,1.5995274922534823
2024-12-07 18:10:03.071077600,3.90207763671875,-3.0756390327185392,-0.4747171146214008,1.336380267561227
2024-12-07 18:10:03.081051600,3.9120517578125,-3.0766414877593515,-0.7191594927132129,1.1422965691577642
2024-12-07 18:10:03.092272600,3.923272705078125,-2.9246342322587964,-0.7232131520181894,1.1026174697201698
2024-12-07 18:10:03.102245600,3.93324560546875,-2.0626642053268847,-0.2387573181927204,1.1103133579850195
2024-12-07 18:10:03.112219600,3.9432197265625,-0.4419458948761224,0.7621493241339922,0.7871040249094367
2024-12-07 18:10:03.122193700,3.953193603515625,1.7089967517539857,1.792844955524802,0.1401103627487551
2024-12-07 18:10:03.132167700,3.963167724609375,3.816963595488667,2.3232354420512915,-0.8151529653731733
2024-12-07 18:10:03.142140700,3.973140625,5.025300105330348,2.306529221922159,-2.1837267258569595
2024-12-07 18:10:03.152114700,3.98311474609375,4.972830497902631,2.0255770220786333,-3.458194873254001
2024-12-07 18:10:03.162088700,3.993088623046875,4.015326943972706,1.9858716191560029,-4.471507992689311
2024-12-07 18:10:03.172061700,4.003061767578125,2.434319297141581,2.321139346554875,-5.072931040555239
2024-12-07 18:10:03.182035700,4.01303564453125,0.4623924705773591,2.607024911147356,-4.460841052724421
2024-12-07 18:10:03.192009700,4.023009765625,-1.6486762846954166,2.38854991800487,-2.477702365663648
2024-12-07 18:10:03.201982500,4.032982421875,-2.629524327725172,1.8068132751226424,-0.3590309533674269
2024-12-07 18:10:03.211956500,4.04295654296875,-1.8241268134951591,0.5290753122746944,0.5408997517116367
2024-12-07 18:10:03.221930500,4.052930419921875,-0.2233575044870376,-1.064278752040863,-0.0685192496445262
2024-12-07 18:10:03.231904500,4.062904541015625,0.925859876909852,-2.1337164942801,-1.028616267833486
2024-12-07 18:10:03.241877500,4.07287744140625,1.7593448369830846,-2.464893152973056,-1.7216665559738873
2024-12-07 18:10:03.251851500,4.0828515625,2.5078408988177774,-2.2808920918405056,-2.1177626999534667
2024-12-07 18:10:03.261825500,4.092825439453125,3.2164556166410443,-1.613494935068488,-2.030179547438025
2024-12-07 18:10:03.271798500,4.102798583984375,3.5261698005884883,-0.7875970691233873,-1.5867220789551737
2024-12-07 18:10:03.281772500,4.1127724609375,3.153245419490337,-0.0014876082092523,-0.792828101644665
2024-12-07 18:10:03.291746600,4.12274658203125,2.113086963227391,0.6146037242174148,0.1058952004060149
2024-12-07 18:10:03.301719600,4.132719482421875,0.9389385541915892,0.946252092075348,0.7813575902119279
2024-12-07 18:10:03.311693600,4.142693603515625,0.1095621984809637,0.9994523518651725,1.2046367785409091
2024-12-07 18:10:03.321667600,4.15266748046875,-0.5702225845687091,0.8132464741647243,1.1785892410274594
2024-12-07 18:10:03.331641600,4.1626416015625,-1.0794657267134635,0.5363666383266449,1.0164160538867115
2024-12-07 18:10:03.341614600,4.172614501953125,-1.4111241045087577,0.327422274595499,0.7549547364547848
2024-12-07 18:10:03.351588600,4.182588623046875,-1.4904431404173373,0.1174111584156751,0.5404487200085073
2024-12-07 18:10:03.361562400,4.192562255859375,-1.1126443582158536,-0.1514350085705518,0.456493073807843
2024-12-07 18:10:03.371535600,4.20253564453125,-0.3341518020462244,-0.3709995505154133,0.3563328733898699
2024-12-07 18:10:03.381509600,4.212509521484375,0.5761404303103685,-0.4063929354578256,0.2002677573332563
2024-12-07 18:10:03.391483600,4.222483642578125,0.989846319130063,-0.350518488022685,0.000597856295295
2024-12-07 18:10:03.401456600,4.23245654296875,0.98629702915065,-0.1104968489825725,-0.1348624978236854
2024-12-07 18:10:03.411430700,4.2424306640625,0.8742150298684835,0.1781529196262359,-0.0390956735264509
2024-12-07 18:10:03.421404700,4.25240478515625,0.863881851902604,0.3069032181799411,0.2404815847020596
2024-12-07 18:10:03.431377700,4.262377685546875,0.9317296457260846,0.2775608038395643,0.4462801246881485
2024-12-07 18:10:03.441351700,4.2723515625,1.2074620650947094,0.2792225995719433,0.6512341036088765
2024-12-07 18:10:03.451325700,4.28232568359375,1.365288820528984,0.4164373596101999,0.7945468882612884
2024-12-07 18:10:03.461298400,4.29229833984375,1.3627666085749863,0.2428653380334377,1.0617693995684383
2024-12-07 18:10:03.471272400,4.3022724609375,1.179726574494317,-0.1225648879170417,1.3092450078763067
2024-12-07 18:10:03.481246500,4.31224658203125,0.9020424365360288,-0.4458756355404853,1.4229960363492369
2024-12-07 18:10:03.491220500,4.322220458984375,0.7689952445060014,-0.5592448250889778,1.3395777484282851
2024-12-07 18:10:03.501193500,4.332193359375,0.7895826169174164,-0.4200760083734989,1.0891798229329288
2024-12-07 18:10:03.511167500,4.34216748046875,0.8597159643948078,-0.2236281381219625,0.6487373914223163
2024-12-07 18:10:03.521141500,4.3521416015625,0.7636246573835611,-0.1416051039516925,0.0569745176315307
2024-12-07 18:10:03.531114500,4.362114501953125,0.5621259700158611,-0.091698625010252,-0.534685114980489
2024-12-07 18:10:03.541088500,4.372088623046875,0.2700134571999311,-0.1207896949380636,-0.9430038308691232
2024-12-07 18:10:03.551062500,4.3820625,-0.2666495337247848,-0.1458738673120737,-1.2645878277651963
2024-12-07 18:10:03.561035500,4.392035400390625,-0.7586293333142995,-0.0742202514648437,-1.309577454701066
2024-12-07 18:10:03.571009500,4.402009521484375,-1.3104618363201617,0.1095201129049062,-1.0052706096898765
2024-12-07 18:10:03.580983600,4.411983642578125,-1.9392548294097185,0.3075409315615892,-0.4161090044386684
2024-12-07 18:10:03.590957800,4.421957763671875,-1.886636168900132,0.3797609491199255,0.4045755107723176
2024-12-07 18:10:03.600930800,4.431930908203125,-1.3509411462247372,0.2692500716120004,1.0643904687870294
2024-12-07 18:10:03.610904800,4.44190478515625,-0.8541209208667278,-0.0018693010032176,1.3266019469991326
2024-12-07 18:10:03.620878800,4.45187890625,-0.5178373309561982,-0.2458738721996545,1.3510109965905546
2024-12-07 18:10:03.630852000,4.46185205078125,-0.462004932564497,-0.358530529564619,1.2909838133901357
2024-12-07 18:10:03.640825900,4.471825927734375,-0.7360796478539705,-0.1609001715302467,1.216795783694461
2024-12-07 18:10:03.650799900,4.4817998046875,-1.0422913766384123,0.2715209391534328,1.1886439673781397
2024-12-07 18:10:03.660772900,4.49177294921875,-1.1607827315062285,0.5547983670741319,1.1891666760779918
2024-12-07 18:10:03.670747000,4.501746826171875,-1.058288571715355,0.6096294429361819,1.123509158840403
2024-12-07 18:10:03.680721000,4.511720947265625,-0.955675753980875,0.5848878003895283,0.9231454303193836
2024-12-07 18:10:03.690695000,4.52169482421875,-0.8473428050339221,0.3870797477006912,0.7691201129946857
2024-12-07 18:10:03.700668000,4.53166796875,-0.8007242617219686,0.2295201187700033,0.7116701598711311
2024-12-07 18:10:03.710642000,4.541641845703125,-0.7878338004887103,0.1741606351196765,0.7164503068197519
2024-12-07 18:10:03.720616000,4.551615966796875,-0.8595505447000265,0.2281692886829376,0.7089868390712887
2024-12-07 18:10:03.730589000,4.5615888671875,-1.001066216802597,0.338925665384531,0.744545862904191
2024-12-07 18:10:03.740563000,4.57156298828125,-1.0789333003371953,0.2236702236980199,0.6891689166624099
2024-12-07 18:10:03.750537000,4.581536865234375,-1.117576626986265,0.3703887251406907,0.759623824244365
2024-12-07 18:10:03.760511000,4.591510986328125,-1.0571773956030606,0.5310410593897104,0.9006655952248722
2024-12-07 18:10:03.770484000,4.60148388671875,-0.8206336618065834,0.8031056039005517,1.1344636835750193
2024-12-07 18:10:03.780458000,4.6114580078125,-0.5271417138636112,1.0296581050366165,1.3444912394329904
2024-12-07 18:10:03.790432000,4.621431884765625,-0.1996598180353641,0.8317296408385038,1.2717562580898405
2024-12-07 18:10:03.800404700,4.63140478515625,0.0256132012167945,0.5242360555499792,1.0944752989925444
2024-12-07 18:10:03.810378800,4.641378662109375,0.0904255728671327,0.2375064413487911,0.8433389762200415
2024-12-07 18:10:03.820352800,4.651352783203125,-0.0440267367204651,0.0614215601682662,0.6222162450477481
2024-12-07 18:10:03.830325800,4.66132568359375,-0.4248170654207467,0.2368728196203708,0.5839290383599698
2024-12-07 18:10:03.840299800,4.6712998046875,-0.921064386261627,0.5073433729380369,0.5300962528202683
2024-12-07 18:10:03.850273800,4.681273681640625,-1.5539958673954009,0.8594500069350004,0.5122589097693562
2024-12-07 18:10:03.860247800,4.691247802734375,-2.349166586643457,1.2442559644848108,0.3699855511672794
2024-12-07 18:10:03.870220800,4.701220703125,-3.1232407418489454,1.744782058623433,0.3335845966175198
2024-12-07 18:10:03.880194800,4.71119482421875,-3.572575577932596,2.124823578250408,0.2468481971245258
2024-12-07 18:10:03.890168800,4.7211689453125,-3.702302612563967,2.272790618449449,-0.0939864071538671
2024-12-07 18:10:03.900142000,4.73114208984375,-3.6893987073272463,2.171163889142871,-0.7430253022734076
2024-12-07 18:10:03.910115800,4.74111572265625,-3.7481478334158655,1.7598615543335676,-1.7697918505869803
2024-12-07 18:10:03.920089900,4.75108984375,-3.366200187906623,1.0909399644732474,-3.224280611178279
2024-12-07 18:10:03.930064000,4.76106396484375,-2.1725208567097782,0.5161620546877383,-4.356297266927362
2024-12-07 18:10:03.940036900,4.771036865234375,0.0264357331134378,0.151097154918313,-4.5729707636058325
2024-12-07 18:10:03.950011000,4.781010986328125,2.583932204851508,-0.0479331330418586,-4.062490553946793
2024-12-07 18:10:03.959985000,4.79098486328125,4.746526418569684,-0.1366769998997449,-3.176250739763677
2024-12-07 18:10:03.969958000,4.8009580078125,6.237364695784449,-0.221687525448203,-1.9755461861051613
2024-12-07 18:10:03.979932000,4.810931884765625,6.495785914868116,-0.2322317158162593,-0.867242560507357
2024-12-07 18:10:03.989906000,4.820906005859375,5.390272066119313,-0.1056850647866725,0.1462896267724223
2024-12-07 18:10:03.999880000,4.8308798828125,2.858414916419983,0.3990922570556402,1.1653973126295951
2024-12-07 18:10:04.009853000,4.84085302734375,0.0167927293688058,1.0292051005721092,1.8299859147869049
2024-12-07 18:10:04.019827000,4.850826904296875,-1.5112024353295563,1.3647364473432302,1.7617090818963943
2024-12-07 18:10:04.029801000,4.860801025390625,-1.3367388717405495,1.3704016334980726,1.3300579326719044
2024-12-07 18:10:04.039774000,4.87077392578125,-0.2453711833745241,0.9913871188312768,0.9191140559114516
2024-12-07 18:10:04.049748000,4.880748046875,0.9309896410137416,0.408281525683403,0.82105254480578
2024-12-07 18:10:04.059722000,4.890721923828125,1.773502833934128,-0.209438284727931,0.4290538627402857
2024-12-07 18:10:04.069696000,4.900696044921875,1.956856683204323,-0.8715916956275701,-0.4212511531000956
2024-12-07 18:10:04.079668700,4.910668701171875,1.9034534481883048,-1.53695120909214,-1.1519454911865292
2024-12-07 18:10:04.089642800,4.920642822265625,1.752742077717185,-2.065496360012889,-1.5988628908649083
2024-12-07 18:10:04.099616800,4.93061669921875,1.5072376233518123,-2.4627169779777525,-1.82947387361154
2024-12-07 18:10:04.109589800,4.94058984375,1.3932479638174176,-2.7164608529001475,-1.7617897459171712
2024-12-07 18:10:04.119563800,4.950563720703125,1.2298482305563985,-2.932383823472261,-1.549331090454757
2024-12-07 18:10:04.129537800,4.960537841796875,1.0862152740389108,-3.110976888081431,-1.3556443554796278
2024-12-07 18:10:04.139510800,4.9705107421875,0.8053378929972648,-3.190089587762952,-1.2466007740452885
2024-12-07 18:10:04.149484800,4.98048486328125,0.5485328769385814,-2.994062573271989,-1.0988352477677166
2024-12-07 18:10:04.159458800,4.990458740234375,0.2020676098294556,-2.603661572194099,-0.8685038856800645
2024-12-07 18:10:04.169432800,5.000432861328125,-0.2341664832711219,-2.1954507736593483,-0.6156497261390089
2024-12-07 18:10:04.179405800,5.01040576171875,-0.687321754425764,-2.075479993888736,-0.6304935133971273
2024-12-07 18:10:04.189379800,5.0203798828125,-0.9881675722628832,-2.25412098929286,-0.8420897068113088
2024-12-07 18:10:04.199353900,5.030353759765625,-1.2477799008272588,-2.29490892675519,-0.7062615788258612
2024-12-07 18:10:04.209327000,5.0403271484375,-1.5494482870936392,-2.1925316713422536,-0.3833555030131712
2024-12-07 18:10:04.219300900,5.05030078125,-1.862174950730056,-1.941090812665224,-0.1241965533726383
2024-12-07 18:10:04.229274600,5.060274658203125,-2.0653623583696783,-1.6362971339851615,0.1407519485879223
2024-12-07 18:10:04.239248000,5.070247802734375,-2.2081470274947583,-1.3666881659328938,0.4265982132164761
2024-12-07 18:10:04.249222000,5.080221923828125,-2.2850560796521604,-0.9084989922642708,0.9321211292617022
2024-12-07 18:10:04.259196000,5.09019580078125,-2.554317403310537,-0.0390641824096441,1.498805456701666
2024-12-07 18:10:04.269170000,5.100169921875,-3.138079999062419,1.367412388554215,2.2436013488441704
2024-12-07 18:10:04.279143000,5.110142822265625,-3.910220555856823,2.919119852751493,2.935337412580848
2024-12-07 18:10:04.289117000,5.120116943359375,-4.110664802268147,4.190091974726319,3.3622432669743896
2024-12-07 18:10:04.299091000,5.130091064453125,-3.0552690293848515,4.983261291024089,3.0982340186253188
2024-12-07 18:10:04.309064000,5.14006396484375,-0.8749829455010593,5.102715353444219,2.049746856086701
2024-12-07 18:10:04.319038000,5.150037841796875,2.0105204688526688,4.324449007245898,0.2856693280259147
2024-12-07 18:10:04.329012000,5.160011962890625,4.543113970002532,2.5404320858210325,-1.621657344866544
2024-12-07 18:10:04.338986000,5.169986083984375,5.291977111583948,0.2743868499785661,-2.8020190754592416
2024-12-07 18:10:04.348959000,5.179958984375,4.597748061987757,-1.6635177338659763,-3.5134915208011863
2024-12-07 18:10:04.358933000,5.18993310546875,3.150073803716898,-2.7569664662897586,-4.296652361042797
2024-12-07 18:10:04.368907000,5.199906982421875,1.5002303749382495,-2.8359084855794907,-4.956723412710428
2024-12-07 18:10:04.378879700,5.209879638671875,-0.0297042333900928,-2.0737287663072346,-4.435520441246032
2024-12-07 18:10:04.388853800,5.219853759765625,-0.7709646448828279,-0.8681815949231386,-2.517532856270671
2024-12-07 18:10:04.398827800,5.229827880859375,-0.6144781981416046,0.3159960406959056,-0.318844269733876
2024-12-07 18:10:04.408801800,5.2398017578125,-0.0481150654800236,1.3368652745991945,1.6711130113005637
2024-12-07 18:10:04.418774800,5.24977490234375,0.7950913704015314,1.9138386486023664,2.964093843726814
2024-12-07 18:10:04.428748800,5.259748779296875,1.722637885224074,1.8822750510811803,3.2436770933046937
2024-12-07 18:10:04.438722800,5.269722900390625,1.834451223632693,1.1172124698489905,2.2300693748369813
2024-12-07 18:10:04.448695800,5.27969580078125,1.353289170655608,0.0830529617398977,0.9478570430539548
2024-12-07 18:10:04.458669800,5.289669921875,0.5872608131311834,-0.6069663612067699,-0.1004231256704777
2024-12-07 18:10:04.468643800,5.299643798828125,-0.101142014529556,-1.0185036738157272,-1.1127155237559228
2024-12-07 18:10:04.478617900,5.309617919921875,-0.2579131964962929,-1.2558008563280103,-1.879790979180485
2024-12-07 18:10:04.488590800,5.3195908203125,-0.0062602294385433,-1.329160107049346,-2.259314466282725
2024-12-07 18:10:04.498564900,5.32956494140625,0.2280662666998803,-1.165673426157236,-2.255645568511635
2024-12-07 18:10:04.508539000,5.339538818359375,0.267555542653799,-0.7199030045568943,-1.843924569898844
2024-12-07 18:10:04.518511900,5.349511962890625,0.2718038477480411,-0.159373984876275,-1.104303011654317
2024-12-07 18:10:04.528486000,5.35948583984375,0.4308564186502248,0.30201895326972,-0.3567588802495971
2024-12-07 18:10:04.538460000,5.3694599609375,0.6440679383065551,0.6520733309119939,0.2868828685341402
2024-12-07 18:10:04.548433000,5.379432861328125,0.871316824208945,0.8222089482992887,0.6102083022700623
2024-12-07 18:10:04.558407000,5.389406982421875,0.96838559795022,0.9213339239180088,0.5512995286403224
2024-12-07 18:10:04.568381000,5.399380859375,0.9907517435371876,1.039186980882287,0.4903202688794583
2024-12-07 18:10:04.578355000,5.40935498046875,1.002308325818181,1.1423492491930722,0.549041812841408
2024-12-07 18:10:04.588328000,5.419327880859375,0.953292073714733,1.264224401280284,0.6220460030473768
2024-12-07 18:10:04.598301700,5.4293017578125,0.8645352012448012,1.223917525333166,0.5682949775069952
2024-12-07 18:10:04.608275700,5.439275634765625,0.8821294562548398,0.956718541032076,0.4808426117643714
2024-12-07 18:10:04.618248700,5.449248779296875,1.0478034180581568,0.5579898565918207,0.5538502360364422
2024-12-07 18:10:04.628222700,5.45922265625,1.209555237981677,0.1242009646862745,0.7201068565659224
2024-12-07 18:10:04.638196700,5.46919677734375,1.2550748801410196,-0.3091156335324049,0.8964740618191659
2024-12-07 18:10:04.648170800,5.479170654296875,1.2303279768973587,-0.6182090552330016,1.1101115518026052
2024-12-07 18:10:04.658143500,5.4891435546875,1.0263216540902853,-0.7530939110189676,1.2329315835244954
2024-12-07 18:10:04.668117500,5.499117431640625,0.7340501878529787,-0.6475099685192108,1.3717150541841985
2024-12-07 18:10:04.678091500,5.509091552734375,0.6078922438800335,-0.3337953167587518,1.5435641974911092
2024-12-07 18:10:04.688064500,5.519064453125,0.481241036497429,-0.0618669658482074,1.6016104360073804
2024-12-07 18:10:04.698038500,5.52903857421875,0.1810983254283666,0.01948912884593,1.4744994290933011
2024-12-07 18:10:04.708012500,5.539012451171875,-0.1499602963754907,-0.0059176996111869,1.1655672623690216
2024-12-07 18:10:04.717985500,5.548985595703125,-0.484345980242826,-0.1097702882736921,0.6286760156463831
2024-12-07 18:10:04.727959600,5.55895947265625,-0.7488076120018958,-0.2105295870959758,0.0073689943980425
2024-12-07 18:10:04.737933600,5.56893359375,-0.864984260186553,-0.1942301942020654,-0.4397012577544897
2024-12-07 18:10:04.747907600,5.578907470703125,-1.1421288844406603,-0.2979623713552952,-0.9155578247345983
2024-12-07 18:10:04.757880600,5.588880615234375,-1.4567577284365891,-0.488094482588768,-1.2152509654052557
2024-12-07 18:10:04.767854600,5.5988544921875,-1.5070838940948248,-0.6447872655570507,-1.250584436853975
2024-12-07 18:10:04.777828600,5.60882861328125,-1.3025450718462466,-0.7445318343788385,-1.09338553099446
2024-12-07 18:10:04.787801600,5.618801513671875,-1.00730832606256,-0.6621937429100274,-0.7481008519720286
2024-12-07 18:10:04.797775600,5.628775634765625,-0.8969985240846872,-0.3856318869799375,-0.3849938813373446
2024-12-07 18:10:04.807749600,5.63874951171875,-0.9066934041470288,-0.0936708018660545,0.0250984200950711
2024-12-07 18:10:04.817723400,5.648723388671875,-1.0692249762713908,0.0835246709048748,0.4797096622116863
2024-12-07 18:10:04.827696600,5.658696533203125,-1.1353338174730538,0.1932236475080251,0.8713915699455886
2024-12-07 18:10:04.837670700,5.668670654296875,-1.180990822276473,0.2926870613008737,0.9750195560719818
2024-12-07 18:10:04.847644700,5.678644775390625,-1.1040461142838,0.2904348984599113,0.9211324099965392
2024-12-07 18:10:04.857617700,5.68861767578125,-1.1265630665183066,0.1971113025963306,0.7456706291504204
2024-12-07 18:10:04.867591700,5.698591796875,-1.206427461349964,0.1314180564582348,0.6242132640838622
2024-12-07 18:10:04.877565700,5.708565673828125,-1.204265314880013,0.1822048253655433,0.6898737769961357
2024-12-07 18:10:04.887538700,5.71853857421875,-1.100090654656291,0.3343687327325343,0.9600732582874596
2024-12-07 18:10:04.897512700,5.7285126953125,-0.971433295083046,0.5887473984271288,1.306768827021122
2024-12-07 18:10:04.907486700,5.73848681640625,-0.7705237692475319,0.9785919346660376,1.7366488749198614
2024-12-07 18:10:04.917460700,5.748460693359375,-0.5548059658586979,1.448889479279518,2.12278768850863
2024-12-07 18:10:04.927433700,5.758433837890625,-0.500662872260809,1.7964660686314105,2.42830237493962
2024-12-07 18:10:04.937407700,5.76840771484375,-0.7215823359459638,1.8838281257420777,2.667908418916165
2024-12-07 18:10:04.947381800,5.7783818359375,-0.9967658892601728,1.5992647496640682,2.6507094468340275
2024-12-07 18:10:04.957354500,5.7883544921875,-1.0447025294333696,1.5605705696105956,2.424361674489826
2024-12-07 18:10:04.967328500,5.79832861328125,-0.9485802427619696,1.8206658593863247,1.9481167657792569
2024-12-07 18:10:04.977302500,5.808302490234375,-0.6271896495461463,1.9585346994191408,1.230850685597211
2024-12-07 18:10:04.987276500,5.818276611328125,-0.1907943745344877,2.240719655928016,0.8734044441379606
2024-12-07 18:10:04.997249500,5.82824951171875,0.1422024853229522,2.036813870885968,0.4097521096926182
2024-12-07 18:10:05.007223600,5.8382236328125,0.1910281832903623,1.7778940546303987,0.0871239375058561
2024-12-07 18:10:05.017197600,5.848197509765625,-0.0089291563868522,1.2771218767762182,-0.2171368764065206
2024-12-07 18:10:05.027170600,5.858170654296875,-0.380039802593924,0.6735071640849113,-0.4492995455745607
2024-12-07 18:10:05.037144600,5.86814453125,-0.8986907149553298,0.1504921747624874,-0.583351384602487
2024-12-07 18:10:05.047118600,5.87811865234375,-1.580154391002655,-0.2596598209679127,-0.6242149445842952
2024-12-07 18:10:05.057091800,5.888091796875,-2.40580208157897,-0.5304845945507287,-0.7134948910802602
2024-12-07 18:10:05.067065600,5.898065673828125,-3.474651210275292,-0.5786252328634262,-0.7794169775381684
2024-12-07 18:10:05.077039600,5.90803955078125,-4.559812591347098,-0.5145248088747263,-1.099765222094208
2024-12-07 18:10:05.087013600,5.918013671875,-5.2660208325505256,-0.47960488666296,-2.025660754839331
2024-12-07 18:10:05.096986600,5.927986572265625,-5.098427300861478,-0.3328460532099008,-3.1172061378598213
2024-12-07 18:10:05.106960600,5.937960693359375,-3.762230134782195,-0.0487228221148252,-3.743739953845739
2024-12-07 18:10:05.116934700,5.9479345703125,-1.403937407875061,0.2696042918771505,-3.701344873447716
2024-12-07 18:10:05.126907600,5.95790771484375,1.6112001021295783,0.4383019854158163,-3.061159548728168
2024-12-07 18:10:05.136881700,5.967881591796875,3.895430398482084,0.665204615163803,-2.265089834813774
2024-12-07 18:10:05.146855700,5.977855712890625,5.584077897429466,0.8083177855908871,-1.4230562421038746
2024-12-07 18:10:05.156829700,5.98782958984375,6.566205605006218,0.8297481116324663,-0.1258862874247133
2024-12-07 18:10:05.166802700,5.997802734375,5.294419244039059,0.9719400755614042,1.2375626043260095
2024-12-07 18:10:05.176776700,6.007776611328125,2.674069571894407,1.146909688976407,2.2319059426143766
2024-12-07 18:10:05.186750700,6.017750732421875,0.49168081664294,1.2512614593327045,2.434691783715784
2024-12-07 18:10:05.196723700,6.0277236328125,-0.5892807746514678,1.240049744966626,1.74457309204787
2024-12-07 18:10:05.206697700,6.03769775390625,-0.5233849916785955,1.1233218926399946,0.7520072848260402
2024-12-07 18:10:05.216671700,6.047671630859375,0.0588948181696236,0.838700648894906,0.0115253742919769
2024-12-07 18:10:05.226645800,6.057645751953125,0.4917126730859279,0.4081944319218397,-0.5209552072484046
2024-12-07 18:10:05.236618500,6.067618408203125,0.5441910483419895,-0.0406651878654956,-0.8118468364998698
2024-12-07 18:10:05.246592500,6.077592529296875,0.7775225420936942,-0.6061924542248248,-1.098061486916244
2024-12-07 18:10:05.256566500,6.08756640625,1.096746604925394,-1.1719272258549929,-1.260461395484954
2024-12-07 18:10:05.266539500,6.09753955078125,1.4218993271537124,-1.6229706194221971,-1.4256776766486463
2024-12-07 18:10:05.276513500,6.107513427734375,1.7378906916745005,-2.02866037504673,-1.5865172040328384
2024-12-07 18:10:05.286487600,6.117487548828125,1.8679158324696123,-2.433524201241136,-1.6091269491173326
2024-12-07 18:10:05.296460500,6.12746044921875,1.8623465079046784,-2.7410826684594154,-1.420362472975254
2024-12-07 18:10:05.306434600,6.1374345703125,1.6965595872461794,-2.9817163019180297,-1.1881105180885645
2024-12-07 18:10:05.316408600,6.14740869140625,1.4299439557909963,-3.0587206311434505,-1.0346813400261103
2024-12-07 18:10:05.326382600,6.157382568359375,1.0954212015405296,-3.036637978672981,-1.008145653669536
2024-12-07 18:10:05.336355600,6.16735546875,0.7452800223976374,-3.0642297499537468,-1.1897251867435872
2024-12-07 18:10:05.346329600,6.17732958984375,0.4893491588249802,-3.0400708757311103,-1.3749961216814814
2024-12-07 18:10:05.356303600,6.1873037109375,0.2147305459171533,-3.0789743146210906,-1.5197953454993665
2024-12-07 18:10:05.366276600,6.197276611328125,-0.0373098860882222,-3.1821056032717228,-1.590572324642539
2024-12-07 18:10:05.376250600,6.207250732421875,-0.4034633117467164,-3.440494089129567,-1.6108596181288362
2024-12-07 18:10:05.386224400,6.217224365234375,-0.8199503557175397,-3.496640339243412,-1.389894269475341
2024-12-07 18:10:05.396198400,6.227198486328125,-1.5116466719657182,-3.340492330676317,-0.9620262920513748
2024-12-07 18:10:05.406171600,6.237171630859375,-2.471280223661661,-2.934619035178423,-0.3493815564146265
2024-12-07 18:10:05.416145700,6.247145751953125,-3.3305607192486524,-2.144537163501978,0.3044071270478889
2024-12-07 18:10:05.426119700,6.25711962890625,-4.407583802050352,-0.9660743983983991,1.0661004875753075
2024-12-07 18:10:05.436092700,6.2670927734375,-5.390971154299378,0.66552727124691,2.1257078137390315
2024-12-07 18:10:05.446066700,6.277066650390625,-5.298934675636887,2.4882073930650948,3.350414005231857
2024-12-07 18:10:05.456040700,6.287040771484375,-4.1213761658966535,4.283450641903281,4.214160248056054
2024-12-07 18:10:05.466013700,6.297013671875,-2.195719507598132,5.698592749881744,4.216631606605649
2024-12-07 18:10:05.475987700,6.30698779296875,0.2943232842005789,6.208925952285528,2.964291412125528
2024-12-07 18:10:05.485961700,6.316961669921875,2.5805387630209324,5.468365944147109,1.29977370743677
2024-12-07 18:10:05.495935700,6.326935791015625,4.3913218185573815,3.7413621187984942,-0.4921972417324781
2024-12-07 18:10:05.505908700,6.33690869140625,4.544628466218709,2.163251800844073,-2.305887416887283
2024-12-07 18:10:05.515882800,6.3468828125,3.3624475573748347,1.0466472337603567,-3.9138314398303615
2024-12-07 18:10:05.525856800,6.356856689453125,1.9278667355634271,0.0852361509978771,-5.225404744523764
2024-12-07 18:10:05.535829500,6.36682958984375,0.3788746678046882,-0.6232037947803736,-5.825789973774552
2024-12-07 18:10:05.545803500,6.376803466796875,-0.6208851425744593,-0.791512196740508,-4.805961188834905
2024-12-07 18:10:05.555777500,6.386777587890625,-0.6044453182965517,-0.4792769698828458,-2.4104148360714315
2024-12-07 18:10:05.565751600,6.39675146484375,-0.2224099945038556,-0.243000947111845,-0.1290272066657897
2024-12-07 18:10:05.575724500,6.406724609375,0.2812105585187673,-0.3071434566766023,1.4901346589900553
2024-12-07 18:10:05.585698600,6.416698486328125,0.912613587976247,-0.6662129154235125,2.457852002289892
2024-12-07 18:10:05.595672000,6.426672119140625,1.2902736192941664,-1.0450094034254551,2.5791496467500923
2024-12-07 18:10:05.605645000,6.43664501953125,1.332512924608588,-1.1688912191599607,1.850592795616388
2024-12-07 18:10:05.615619000,6.446619140625,0.9861166310824452,-1.018241223487258,0.6194982182607054
2024-12-07 18:10:05.625593000,6.456593017578125,0.5786369233012199,-0.952063408702612,-0.7701797781154512
2024-12-07 18:10:05.635566300,6.46656640625,0.2516098585683852,-1.0665163018345831,-1.8357783805832264
2024-12-07 18:10:05.645540400,6.476540283203125,0.0847621037453413,-1.0949866095155476,-2.308444407893717
2024-12-07 18:10:05.655514400,6.486514404296875,0.2594599144816398,-0.9048457304537296,-2.3475749335378406
2024-12-07 18:10:05.665488100,6.496488037109375,0.6335230172861367,-0.5237099858492612,-2.031276695024967
2024-12-07 18:10:05.675461400,6.50646142578125,0.8528800539601594,-0.0638426498353481,-1.6823044135309757
2024-12-07 18:10:05.685435400,6.516435302734375,0.86148355858922,0.3201081521898508,-1.3036271679945288
2024-12-07 18:10:05.695409400,6.526409423828125,0.7234229953765868,0.625144407454133,-0.9551594019565732
2024-12-07 18:10:05.705382400,6.53638232421875,0.6395160471558571,0.9287930077522992,-0.5414851503841579
2024-12-07 18:10:05.715356400,6.5463564453125,0.7543396732963621,1.0786562369614838,-0.0684015917813405
2024-12-07 18:10:05.725330400,6.556330322265625,0.6528846472948789,1.0797703356832264,0.3109797469038516
2024-12-07 18:10:05.735304400,6.566304443359375,0.2355272502303123,0.9251870922148228,0.5325449976792559
2024-12-07 18:10:05.745277200,6.576277099609375,-0.1807709201049059,0.7794628625065088,0.6271281286172569
2024-12-07 18:10:05.755251200,6.586251220703125,-0.0448025068659335,0.7211357612222433,0.7825776335261762
2024-12-07 18:10:05.765225200,6.59622509765625,0.3100216424614191,0.6673112320542335,0.831969879335165
2024-12-07 18:10:05.775198200,6.6061982421875,0.98326869430542,0.6160708741605282,0.8700820217169821
2024-12-07 18:10:05.785172200,6.616172119140625,1.48323949264884,0.6677993078321218,0.8607940419550985
2024-12-07 18:10:05.795146200,6.626146240234375,1.5834364814132451,0.6015531039863824,0.8889999996114522
2024-12-07 18:10:05.805120300,6.636120361328125,1.4956985767275095,0.4341226539045572,0.9633522799581288
2024-12-07 18:10:05.815093200,6.64609326171875,1.4340490530222654,0.2381651975184679,1.1139683002959937
2024-12-07 18:10:05.825067300,6.6560673828125,1.370124570122361,0.0600789133876562,1.3201625616014003
2024-12-07 18:10:05.835041300,6.666041259765625,1.2535633065342902,0.018224807998538,1.4405638417437672
2024-12-07 18:10:05.845014300,6.67601416015625,1.0685744034081697,-0.0408721086144447,1.4154901907637714
2024-12-07 18:10:05.854988300,6.68598828125,0.8395014438837766,-0.15897300285995,1.22570996170789
2024-12-07 18:10:05.864962300,6.69596240234375,0.6281669701457023,-0.3033031478613615,0.8949843347180634
2024-12-07 18:10:05.874935000,6.70593505859375,0.396051026196219,-0.5231991137176751,0.5405749767366796
2024-12-07 18:10:05.884909000,6.715908935546875,0.3018523827974684,-0.8348656007766723,0.1143328469488769
2024-12-07 18:10:05.894883000,6.725883056640625,0.1557359389011748,-1.1410720688641072,-0.2729498759780079
2024-12-07 18:10:05.904857000,6.735857177734375,-0.0047930794954299,-1.3188456337839365,-0.5019091459948569
2024-12-07 18:10:05.914830000,6.745830078125,-0.1914940472364425,-1.3557219507604836,-0.5739923123657703
2024-12-07 18:10:05.924804000,6.75580419921875,-0.3058680299133062,-1.2554577419787645,-0.4994775349337607
2024-12-07 18:10:05.934778000,6.765778076171875,-0.4299316319555044,-1.1734890683442354,-0.4230864422358572
2024-12-07 18:10:05.944751400,6.77575146484375,-0.6317214477568864,-0.999087610206008,-0.2926690872527658
2024-12-07 18:10:05.954725400,6.785725341796875,-0.9138122962415218,-0.8241986608117818,-0.0500336124524474
2024-12-07 18:10:05.964699400,6.795699462890625,-1.1774667398035523,-0.4896060561954974,0.207435785799101
2024-12-07 18:10:05.974673200,6.805673095703125,-1.367603527212143,-0.2283218488961458,0.4872257369302213
2024-12-07 18:10:05.984646400,6.815646484375,-1.3211445583760737,0.048715807852149,0.6716468501057475
2024-12-07 18:10:05.994620400,6.825620361328125,-1.3318658588767052,0.1930254945874214,0.7700565170619637
2024-12-07 18:10:06.004594400,6.835594482421875,-1.433354056495428,0.3235030553251504,0.8977735270451754
2024-12-07 18:10:06.014567200,6.845567138671875,-1.7615864784300326,0.4110357928276061,0.9092763333123176
2024-12-07 18:10:06.024541200,6.855541259765625,-2.02211489892602,0.470721907505393,0.9998200891990214
2024-12-07 18:10:06.034515200,6.86551513671875,-2.25007259068489,0.7541086410194635,1.105040386018157
2024-12-07 18:10:06.044488200,6.87548828125,-2.136882264834642,0.9680430681228636,1.2913970703661442
2024-12-07 18:10:06.054462200,6.885462158203125,-1.8549708645701408,1.3899661656677722,1.48385017189309
2024-12-07 18:10:06.064436200,6.895436279296875,-1.5171838478267192,1.5532354044169188,1.6284717010565102
2024-12-07 18:10:06.074410200,6.90541015625,-1.0760977846503257,1.671953553777933,1.9222360362000763
2024-12-07 18:10:06.084383200,6.91538330078125,-0.83317282538414,1.8563836539775127,2.243189845433831
2024-12-07 18:10:06.094357200,6.925357177734375,-0.6998562418282032,1.926696961131692,2.470170216593146
2024-12-07 18:10:06.104331300,6.935331298828125,-0.5762894833922386,2.104969123223424,2.650647195252776
2024-12-07 18:10:06.114304300,6.94530419921875,-0.5943336741268634,2.5349293967515227,2.779900767153501
2024-12-07 18:10:06.124278300,6.9552783203125,-0.6891618293344974,2.402897592309117,2.550299399840831
2024-12-07 18:10:06.134252300,6.965252197265625,-0.8598118259847164,2.073045460218191,2.0731673330321905
2024-12-07 18:10:06.144226300,6.975226318359375,-1.0970867966651916,1.7852444173932074,1.5558477788724003
2024-12-07 18:10:06.154199000,6.985198974609375,-1.085155535852909,1.6275696376502513,0.9764207281067968
2024-12-07 18:10:06.164173000,6.995173095703125,-1.0232716188699007,1.5669664081275465,0.2964253710463643
2024-12-07 18:10:06.174147000,7.00514697265625,-1.2387830860316753,1.478919875884056,-0.2741403278715908
2024-12-07 18:10:06.184120000,7.0151201171875,-2.108732859671116,1.3934353030830622,-0.6116562725886702
2024-12-07 18:10:06.194094000,7.025093994140625,-3.386845501050353,1.4582874222218989,-0.4755674478404224
2024-12-07 18:10:06.204068000,7.035068115234375,-4.570595266646147,1.4828414332419633,0.0203377084992825
2024-12-07 18:10:06.214041300,7.045041259765625,-4.997252406975627,1.3209990124255415,0.6425576798740774
2024-12-07 18:10:06.224015400,7.055015380859375,-4.268277622690797,0.927142902457714,0.9573435410626232
2024-12-07 18:10:06.233989000,7.064989013671875,-3.2837241492718454,0.2701531579315662,0.693909023861587
2024-12-07 18:10:06.243963100,7.074963134765625,-2.612957223805785,-0.4282791885733604,-0.2870059469245374
2024-12-07 18:10:06.253936400,7.084936279296875,-2.1196008751660584,-1.0515227308422326,-2.027583539595455
2024-12-07 18:10:06.263910400,7.094910400390625,-0.8130250864990055,-1.6617589074999093,-3.564253739789128
2024-12-07 18:10:06.273884400,7.104884521484375,1.686970505645871,-2.019961520284414,-4.296027214881778
2024-12-07 18:10:06.283857400,7.114857421875,4.477757408472895,-1.9572931749254463,-3.747205876390636
2024-12-07 18:10:06.293831400,7.12483154296875,6.57793228315711,-1.5533458790540695,-2.588697519557178
2024-12-07 18:10:06.303805400,7.134805419921875,7.400948456186056,-1.0313514649510382,-1.4775076709985733
2024-12-07 18:10:06.313779500,7.144779541015625,6.874287219315767,-0.287305952784419,-0.0912186594735831
2024-12-07 18:10:06.323752200,7.154752197265625,4.442625889337062,0.8156751626163721,1.1537231683835387
2024-12-07 18:10:06.333726200,7.164726318359375,0.4385311179965734,2.351025366252661,2.3579297388136387
2024-12-07 18:10:06.343700200,7.1747001953125,-2.476754271158576,3.6969220885694014,2.7882553385227915
2024-12-07 18:10:06.353673200,7.184673095703125,-2.196827614970505,3.814560041478276,1.8254376038327813
2024-12-07 18:10:06.363647200,7.194647216796875,-0.3317114962220192,2.792441099774837,0.3591661605870351
2024-12-07 18:10:06.373621200,7.204621337890625,1.2524725886881352,1.467832664680481,-0.6790442668806761
2024-12-07 18:10:06.383594200,7.21459423828125,1.6296826842814682,0.4137292696952819,-1.3062471412345766
2024-12-07 18:10:06.393568300,7.224568359375,1.676250666449964,-0.3903817118555307,-1.6967592014715074
2024-12-07 18:10:06.403542300,7.234542236328125,1.9156338614560664,-1.0269295568555592,-1.9595600969441231
2024-12-07 18:10:06.413516300,7.244516357421875,2.032161222774535,-1.6125842499643563,-2.213690048574656
2024-12-07 18:10:06.423489300,7.2544892578125,2.089596197524666,-1.9946435391545296,-2.289356845586002
2024-12-07 18:10:06.433463300,7.26446337890625,2.084215089008212,-2.3185534217149018,-2.175196797920764
2024-12-07 18:10:06.443437300,7.274437255859375,1.7571131324082612,-2.635713830015064,-2.002759479462356
2024-12-07 18:10:06.453410000,7.28441015625,1.348873107779026,-2.85672389459312,-1.724149604961276
2024-12-07 18:10:06.463384000,7.294384033203125,1.098472844196111,-3.0140993991285563,-1.4972811697438355
2024-12-07 18:10:06.473358000,7.304358154296875,0.8359303073987364,-3.0435616404563186,-1.3499293388336897
2024-12-07 18:10:06.483332000,7.31433203125,0.5796249114252626,-3.06357099378407,-1.2426821392968297
2024-12-07 18:10:06.493305000,7.32430517578125,0.4326217478223145,-3.105355541068316,-1.3215506549589335
2024-12-07 18:10:06.503279000,7.334279052734375,0.3665862641178071,-3.1855075206696983,-1.4358338906124233
2024-12-07 18:10:06.513253000,7.344253173828125,0.2761865928769111,-3.434729534253478,-1.6107035507842895
2024-12-07 18:10:06.523226400,7.354226318359375,0.1044276120714843,-3.7883833976924417,-2.165898808221519
2024-12-07 18:10:06.533200400,7.364200439453125,-0.1488765562593937,-3.9324557685405015,-2.462721946413815
2024-12-07 18:10:06.543174100,7.374174072265625,-0.5493083913557231,-3.9434547169387337,-2.5310119310468435
2024-12-07 18:10:06.553147400,7.3841474609375,-0.9825684370815754,-3.546398349624872,-2.1369185051918027
2024-12-07 18:10:06.563121400,7.394121337890625,-1.600481870368868,-2.6908991261422632,-1.3992637169755997
2024-12-07 18:10:06.573095400,7.404095458984375,-2.569105807119608,-1.4913234303832053,-0.4565593805097043
2024-12-07 18:10:06.583069400,7.4140693359375,-4.145456421925127,0.1438397311359643,0.8553684367097913
2024-12-07 18:10:06.593042000,7.4240419921875,-6.2495572378814215,2.1401117482751606,2.538402918080985
2024-12-07 18:10:06.603016000,7.434015869140625,-7.2272419945746655,4.0931390824496745,4.329758511830866
2024-12-07 18:10:06.612990000,7.443989990234375,-5.624567144206166,5.328502130904793,5.269104770040512
2024-12-07 18:10:06.622962700,7.453962646484375,-2.39726046320498,5.768353683850169,5.618659381467103
2024-12-07 18:10:06.632936700,7.463936767578125,0.3127497522510588,5.63974016341865,5.631040139612555
2024-12-07 18:10:06.642910700,7.47391064453125,1.6835272333241995,4.702632916307449,4.126696191875636
2024-12-07 18:10:06.652884700,7.483884765625,2.336750611054152,3.116791711840033,1.1952354745976626
2024-12-07 18:10:06.662857700,7.493857666015625,3.190393539145589,1.2671791594326496,-1.5349179496988654
2024-12-07 18:10:06.672831700,7.503831787109375,3.6355589805901047,-0.021178981629014,-3.237060890035332
2024-12-07 18:10:06.682805800,7.5138056640625,2.843779072824121,-0.7070955454319715,-4.855023910428583
2024-12-07 18:10:06.692778800,7.52377880859375,1.0839870765954256,-0.8148264368325472,-6.631669134041666
2024-12-07 18:10:06.702752800,7.533752685546875,-0.8456761869959533,-0.536683449190855,-7.069124147239327
2024-12-07 18:10:06.712726800,7.543726806640625,-1.7086939694151282,0.1545277138888836,-4.845122401878237
2024-12-07 18:10:06.722699800,7.55369970703125,-0.9896271234214306,0.8069856602042913,-1.7511171068638562
2024-12-07 18:10:06.732673800,7.563673828125,0.125166010326147,1.1527747816175222,0.9550975157015024
2024-12-07 18:10:06.742647800,7.573647705078125,1.5232693052202462,0.8980950871497392,2.362630756111443
2024-12-07 18:10:06.752621800,7.583621826171875,2.7252204979389902,0.084667411199212,2.731202494958043
2024-12-07 18:10:06.762594800,7.5935947265625,2.8413924699485302,-0.9516209256321192,2.3790245492905377
2024-12-07 18:10:06.772568800,7.60356884765625,2.583925190588832,-1.7374293577730655,1.4170571478195488
2024-12-07 18:10:06.782542800,7.61354296875,2.2930168293982742,-1.973129626482725,0.4030327383097261
2024-12-07 18:10:06.792515800,7.623515869140625,1.8057775023341176,-1.9317729492217304,-0.5840284801464527
2024-12-07 18:10:06.802489900,7.63348974609375,1.164823604394868,-1.5585492929160594,-1.4529666655905544
2024-12-07 18:10:06.812463900,7.6434638671875,0.5531348908413202,-0.8645277485907077,-1.9972581055670977
2024-12-07 18:10:06.822436900,7.653436767578125,0.0925781843237578,-0.2076326966106891,-2.2887911745272573
2024-12-07 18:10:06.832411000,7.663410888671875,-0.2912006221354007,0.2623860310614109,-2.437820437130332
2024-12-07 18:10:06.842385000,7.673385009765625,-0.6625589960258453,0.5234224010795354,-2.6025813757419582
2024-12-07 18:10:06.852359000,7.68335888671875,-0.6108095926314592,0.4430465495944022,-2.72267519737035
2024-12-07 18:10:06.862332000,7.693331787109375,-0.302897489669919,0.2602379131168127,-2.626633282458782
2024-12-07 18:10:06.872306000,7.703305908203125,-0.0084299016278237,0.182606391903758,-2.3271461857542395
2024-12-07 18:10:06.882280000,7.713280029296875,0.4500578165959567,0.1947229461550712,-1.6073419653967025
2024-12-07 18:10:06.892253000,7.7232529296875,0.973473934065178,0.2929763996362686,-0.5173727091191336
2024-12-07 18:10:06.902227000,7.73322705078125,1.194247778734565,0.5270914449810982,0.586355096463114
2024-12-07 18:10:06.912201000,7.743200927734375,1.442141758584976,0.80480597807765,1.6088330807372926
2024-12-07 18:10:06.922175000,7.753175048828125,1.6663760459065435,1.114537113159895,2.407787702438235
2024-12-07 18:10:06.932147700,7.763147705078125,1.830085429638624,1.2220721897274256,2.971516687203944
2024-12-07 18:10:06.942121700,7.773121826171875,2.0378151568830014,1.360941146713495,3.32817820802629
2024-12-07 18:10:06.952095700,7.783095703125,2.064479876446724,1.116871109065413,3.4378985196784138
2024-12-07 18:10:06.962068700,7.79306884765625,1.820771657848358,0.5693979703128338,3.265249165904522
2024-12-07 18:10:06.972042800,7.803042724609375,1.1927694498103112,-0.1193108545571565,2.6099785002559424
2024-12-07 18:10:06.982016800,7.813016845703125,0.3578372866034507,-0.7615092726647853,1.692714894516766
2024-12-07 18:10:06.991989800,7.82298974609375,-0.047122985702753,-1.0396592745691535,1.1376778233159333
2024-12-07 18:10:07.001963800,7.8329638671875,-0.1930173112809658,-0.9657330376148224,0.7214066140528768
2024-12-07 18:10:07.011937800,7.842937744140625,-0.2645335279515013,-0.7314151631742716,0.3189625623513012
2024-12-07 18:10:07.021911800,7.852911865234375,-0.3117056500256061,-0.4236450990319251,0.0294479936067014
2024-12-07 18:10:07.031884800,7.862884765625,-0.3697726390689611,-0.2213572705805301,-0.0766298698898404
2024-12-07 18:10:07.041858800,7.87285888671875,-0.451450805324316,-0.1648451097637414,-0.0569314822074025
2024-12-07 18:10:07.051832800,7.882832763671875,-0.4618044415563345,-0.3378869699865579,0.0274375305671244
2024-12-07 18:10:07.061805800,7.892805908203125,-0.534011015111208,-0.4816279169231653,0.0165033179681748
2024-12-07 18:10:07.071779800,7.90277978515625,-0.6261971313774586,-0.6497019256055355,-0.0011691168446093
2024-12-07 18:10:07.081753900,7.91275390625,-0.7266191610693931,-0.8115098596304655,-0.1163905101310461
2024-12-07 18:10:07.092973800,7.923973876953125,-0.9036006988286972,-0.828185684621334,-0.323940277698636
2024-12-07 18:10:07.102947600,7.933947509765625,-1.1385948650956152,-0.6504395922303199,-0.5393874474525452
2024-12-07 18:10:07.112921600,7.943921630859375,-1.4096668914377688,-0.3731903385579586,-0.7003220327090471
2024-12-07 18:10:07.122895600,7.9538955078125,-1.4706687648892405,-0.1779004061698913,-0.5623693868502975
2024-12-07 18:10:07.132868900,7.963868896484375,-1.4464122755110262,-0.0983580828994512,-0.3329783743526786
2024-12-07 18:10:07.142843000,7.9738427734375,-1.4055553644657135,0.0273404268682003,0.1168267826564609
2024-12-07 18:10:07.152817000,7.98381689453125,-1.4866753123164176,0.1683493184924125,0.5169348656911402
2024-12-07 18:10:07.162790000,7.993789794921875,-1.640246748393774,0.335876214686036,0.8147931921500712
2024-12-07 18:10:07.172764000,8.003763916015625,-1.7288392240822317,0.5656751503974199,1.0537664911810307
2024-12-07 18:10:07.182738000,8.013738037109375,-1.625097110056877,0.7963923699975013,1.2109881933942437
2024-12-07 18:10:07.192712000,8.0237119140625,-1.122629234200716,0.9199988759219646,1.4688158304989336
2024-12-07 18:10:07.202685000,8.033684814453125,-0.4715525131106376,1.1198977634102103,1.774325548493862
2024-12-07 18:10:07.212659000,8.043658935546874,0.1368658004701137,1.383864341661334,1.9824463208824392
2024-12-07 18:10:07.222633000,8.053633056640624,0.406796840083599,1.8821382729589933,1.883693393446505
2024-12-07 18:10:07.232606000,8.06360595703125,0.4310463151991367,2.1055092214494944,1.6784224575310944
2024-12-07 18:10:07.242580000,8.073580078125,0.0544833036039955,2.3267168544262646,1.4853648142397402
2024-12-07 18:10:07.252554000,8.083553955078125,-0.7359551446914673,2.348935700497031,1.2614067135110496
2024-12-07 18:10:07.262526700,8.093526611328125,-1.5384090066850185,2.388728781703114,1.0414055337145924
2024-12-07 18:10:07.272500700,8.103500732421875,-2.2836463589847087,2.693710676431656,0.8687007964916527
2024-12-07 18:10:07.282474800,8.113474853515624,-2.63480606752038,2.720044556605816,0.7073987661622464
2024-12-07 18:10:07.292448800,8.12344873046875,-2.4952526354014872,2.666223534569144,0.6629984834216535
2024-12-07 18:10:07.302421800,8.133421875,-1.9305904614388945,2.296934879624843,0.4563132967941463
2024-12-07 18:10:07.312395800,8.143395751953125,-1.2618529959738254,1.675101788675785,0.2181784213487058
2024-12-07 18:10:07.322369800,8.153369873046875,-0.7615478511095046,0.9862427416801453,0.0721970020089298
2024-12-07 18:10:07.332342800,8.1633427734375,-0.4387894766718149,0.3489467086613178,0.1359605952586978
2024-12-07 18:10:07.342316800,8.17331689453125,-0.6072405019730329,-0.1636614529371261,0.3459272147096693
2024-12-07 18:10:07.352290800,8.183290771484375,-1.3585147963494062,-0.5638929431557655,0.4925528502371162
2024-12-07 18:10:07.362264800,8.193264892578124,-1.908603086036444,-0.9719465053021908,0.4693878824226558
2024-12-07 18:10:07.372237800,8.20323779296875,-2.281547925400734,-1.2919558732926846,0.1414334737118333
2024-12-07 18:10:07.382211800,8.2132119140625,-2.904450106886029,-1.411061560666561,-0.7477322378553449
2024-12-07 18:10:07.392185900,8.223185791015625,-3.1408775208264585,-1.535892055428028,-1.8760666979603469
2024-12-07 18:10:07.402158800,8.233158935546875,-2.521048170915246,-1.6539140392184255,-2.9078131535783407
2024-12-07 18:10:07.412132900,8.2431328125,-0.7405543090499938,-1.6705355036735534,-3.5041058528184887
2024-12-07 18:10:07.422105900,8.25310595703125,1.8069114748001096,-1.4329127424687147,-3.441415295627713
2024-12-07 18:10:07.432080000,8.263079833984374,3.806106101387739,-0.903927446565032,-2.7615397655546663
2024-12-07 18:10:07.442054000,8.273053955078124,4.775436871233582,-0.2160860521793365,-1.9036200369268657
2024-12-07 18:10:07.452028000,8.28302783203125,4.556398983511328,0.695596830818057,-1.1091090236965566
2024-12-07 18:10:07.462001000,8.2930009765625,3.657893561995029,1.6719021158516405,-0.2756452525418251
2024-12-07 18:10:07.471975000,8.302974853515625,2.087379690518975,2.4347984589606524,0.3448323686776682
2024-12-07 18:10:07.481949000,8.312948974609375,0.4435702812075615,2.7595500530421733,0.7160124999243765
2024-12-07 18:10:07.491922000,8.322921875,-0.4596336733885109,2.550194185900688,0.774470899438113
2024-12-07 18:10:07.501896000,8.33289599609375,-0.500285855641961,2.107963628864288,0.6209655873995273
2024-12-07 18:10:07.511870000,8.342869873046874,0.1275228025853634,1.3952858993858095,-0.2657218974858522
2024-12-07 18:10:07.521844000,8.352843994140626,0.6202221486210823,0.6144365509569645,-1.3408159119211136
2024-12-07 18:10:07.531816700,8.362816650390625,0.9444210772559046,-0.0740378806352615,-1.8449070050649343
2024-12-07 18:10:07.541790700,8.372790771484375,1.1024524153515696,-0.600032178029418,-2.0420970719859004
2024-12-07 18:10:07.551764700,8.3827646484375,1.2122533910244702,-0.9440332469820976,-2.1632900870278475
2024-12-07 18:10:07.561737700,8.39273779296875,1.371174663697183,-1.0714765545904636,-2.14422955885753
2024-12-07 18:10:07.571711700,8.402711669921874,1.492896086527407,-1.1117203021734952,-2.0421599080890416
2024-12-07 18:10:07.581685800,8.412685791015624,1.5001111324727534,-1.2598130145788191,-1.9036356728874144
2024-12-07 18:10:07.591658800,8.42265869140625,1.421570971982181,-1.5810048703521489,-1.786463876185566
2024-12-07 18:10:07.601633300,8.43263330078125,1.4044254836529493,-1.871322279912233,-1.642288483354449
2024-12-07 18:10:07.611607300,8.442607177734375,1.3089184062704444,-2.200332115960121,-1.494070244873315
2024-12-07 18:10:07.621581300,8.452581298828125,1.15559992204085,-2.4713480282008646,-1.300121936352551
2024-12-07 18:10:07.631554300,8.46255419921875,1.0062488801375031,-2.808320221430063,-1.2005559389680622
2024-12-07 18:10:07.641528300,8.4725283203125,0.7890864308983087,-3.067334730231762,-1.2242371857415884
2024-12-07 18:10:07.651502300,8.48250244140625,0.3915590850718319,-3.4786844113141298,-1.350267046355456
2024-12-07 18:10:07.661475300,8.492475341796874,-0.0069686699688434,-3.937178120887279,-1.5614204644382
2024-12-07 18:10:07.671449300,8.502449462890626,-0.3345329833835363,-4.323179425701499,-1.506178031296283
2024-12-07 18:10:07.681423400,8.51242333984375,-0.823757200654596,-4.503782076567411,-1.2689179659239946
2024-12-07 18:10:07.691397400,8.5223974609375,-1.344556852015108,-4.309124012342095,-0.9183949478566646
2024-12-07 18:10:07.701370000,8.5323701171875,-1.645268960469961,-3.4382138692379,-0.2741091655483469
2024-12-07 18:10:07.711344000,8.54234423828125,-1.812716946208477,-2.2213070994496342,0.442601801501587
2024-12-07 18:10:07.721318100,8.552318115234375,-1.9875335610188545,-0.8954793516933918,1.1206158485516906
2024-12-07 18:10:07.731291400,8.56229150390625,-2.045020558217168,0.4706166935652494,1.6433897225946188
2024-12-07 18:10:07.741265400,8.572265380859376,-1.7839292431414129,1.9073726674586533,1.9504463777706025
2024-12-07 18:10:07.751239400,8.582239501953126,-1.8996688150830563,3.4003052866041656,2.111352686780691
2024-12-07 18:10:07.761213200,8.592213134765625,-2.9041601840287443,4.863641808909177,2.341745935123414
2024-12-07 18:10:07.771186400,8.6021865234375,-4.17433092649281,5.885588316655158,2.5150807869434355
2024-12-07 18:10:07.781160400,8.612160400390625,-4.947496150159836,6.16720161075592,2.419054361861944
2024-12-07 18:10:07.791134500,8.622134521484375,-4.093134406274557,5.681694222050905,2.085623348370939
2024-12-07 18:10:07.801107500,8.632107421875,-2.1400006891161203,4.8282110145658255,1.7301124588884411
2024-12-07 18:10:07.811081500,8.64208154296875,0.3330056276857853,3.2328970483541486,-0.0182833515190519
2024-12-07 18:10:07.821055500,8.652055419921876,3.600209434789419,0.9871528422623872,-2.894159306757152
2024-12-07 18:10:07.831028200,8.6620283203125,5.608904880172014,-1.3863234252512455,-4.486256649009883
2024-12-07 18:10:07.841002200,8.672002197265625,5.285271476465463,-3.3729870715677737,-4.387980399174988
2024-12-07 18:10:07.850976300,8.681976318359375,3.0096599553763865,-5.045519302016497,-4.504189196063578
2024-12-07 18:10:07.860950300,8.6919501953125,0.2706022168733179,-6.145875914132595,-4.693611989983916
2024-12-07 18:10:07.870923300,8.70192333984375,-0.8701876740485429,-5.76350332120955,-3.69019365709722
2024-12-07 18:10:07.880897300,8.711897216796874,0.5110673618972301,-3.65770593046844,-1.6548885833390057
2024-12-07 18:10:07.890871300,8.721871337890626,2.4235031579643485,-1.0761170738726853,0.1265107759986072
2024-12-07 18:10:07.900844300,8.73184423828125,3.17188991420567,1.2192711608320477,1.3851596421688794
2024-12-07 18:10:07.910818300,8.741818359375,2.279014607530832,2.6661159825414416,1.7504539667800068
2024-12-07 18:10:07.920792300,8.751792236328125,0.3629595980532467,3.942830447560549,1.5454491344548762
2024-12-07 18:10:07.930766300,8.761766357421875,-1.539624227693677,5.134615051051974,1.6411366829708218
2024-12-07 18:10:07.940739300,8.7717392578125,-2.479943422588706,4.877631755816936,1.799083557653427
2024-12-07 18:10:07.950713300,8.78171337890625,-1.699421406418085,2.717664383471012,1.9818734894305468
2024-12-07 18:10:07.960687400,8.791687255859374,-0.1720265457004308,0.6621826369941234,2.089903509908169
2024-12-07 18:10:07.970660000,8.80166015625,1.0973592569310218,-0.6650719286948442,1.6733347790032624
2024-12-07 18:10:07.980634000,8.811634033203125,1.8035469668030737,-1.455827169588208,1.1388295506343245
2024-12-07 18:10:07.990608100,8.821608154296875,1.951634272380918,-1.8955214861452576,0.7220531683281064
2024-12-07 18:10:08.000582100,8.83158203125,1.5956085652440786,-2.0541730019658804,0.2199519338272511
2024-12-07 18:10:08.010555400,8.841555419921875,0.8605267693210392,-1.8180384334921835,-0.2923742690246552
2024-12-07 18:10:08.020529200,8.851529052734374,0.1662334223169833,-1.011376598414779,-0.5098906462680548
2024-12-07 18:10:08.030503200,8.861503173828124,-0.21085750387609,0.1000982045650482,-0.3343525853153318
2024-12-07 18:10:08.040476400,8.871476318359376,-0.2058767197888344,1.1323667843610048,0.1689654776293784
2024-12-07 18:10:08.050450400,8.881450439453126,0.0585077185481786,1.7340268558532,0.7705748418476432
2024-12-07 18:10:08.060424400,8.891424560546875,0.3268815918475389,1.7901871344923972,1.285849519241601
2024-12-07 18:10:08.070398200,8.901398193359375,0.4361555479716509,1.3951806854456663,1.5643287531003356
2024-12-07 18:10:08.080371500,8.911371337890625,0.4089654162943363,0.8233879289507865,1.8077517250165345
2024-12-07 18:10:08.090345500,8.921345458984375,0.3561122894417494,0.24218963072896,2.006731890224666
2024-12-07 18:10:08.100319500,8.931319580078124,0.3603980770021677,-0.2564408589214086,1.945185973024368
2024-12-07 18:10:08.110292500,8.94129248046875,0.4272095135152339,-0.5686994666546583,1.6294810242295263
2024-12-07 18:10:08.120266500,8.9512666015625,0.4738747455131262,-0.7059808621883392,1.1557548203416168
2024-12-07 18:10:08.130240500,8.961240478515625,0.4748281737804412,-0.7030845562249421,0.6862501796714962
2024-12-07 18:10:08.140214500,8.971214599609375,0.2911205061038955,-0.63501581312716,0.2388194236434996
2024-12-07 18:10:08.150187300,8.981187255859375,0.0888134614953771,-0.5341863716781139,-0.0206450208827853
2024-12-07 18:10:08.160161300,8.991161376953125,0.0842798731863498,-0.4404021725654601,-0.0639322278149426
2024-12-07 18:10:08.170135300,9.00113525390625,0.1400350781559944,-0.412011359861493,0.0122515788078308
2024-12-07 18:10:08.180108300,9.0111083984375,0.1666185491770505,-0.4823673371136188,0.0859466373547911
2024-12-07 18:10:08.190082300,9.021082275390626,0.0448638268654234,-0.4920587100446223,0.1705677251942455
2024-12-07 18:10:08.200056300,9.031056396484376,-0.14203881919384,-0.3404594508230686,0.2697426774345338
2024-12-07 18:10:08.210030300,9.0410302734375,-0.3820008370012044,-0.1608551633447408,0.2168457845054566
2024-12-07 18:10:08.220003300,9.05100341796875,-0.4975549693733453,0.0561585250735282,0.2251337203793227
2024-12-07 18:10:08.229977300,9.060977294921877,-0.4726911617517471,0.2334299856901168,0.2074206612952053
2024-12-07 18:10:08.239951400,9.070951416015625,-0.3674129242002963,0.3043938657075166,0.3114183575168252
2024-12-07 18:10:08.249924400,9.08092431640625,-0.2946311993722804,0.0475946948677301,0.3145287446223199
2024-12-07 18:10:08.259898400,9.0908984375,-0.1649345598791725,-0.2927916907191276,0.4005824956133961
2024-12-07 18:10:08.269872400,9.100872314453126,-0.1403840377241373,-0.7701789013326168,0.5627190770708024
2024-12-07 18:10:08.279845000,9.11084521484375,-0.1756640254199504,-1.1643103211104868,0.6320628085404634
2024-12-07 18:10:08.289819100,9.120819091796877,-0.2692120776891708,-1.3022639168173074,0.6302711028181016
2024-12-07 18:10:08.299793200,9.130793212890625,-0.4093494471758603,-1.171585865071416,0.5503469406232238
2024-12-07 18:10:08.309767200,9.14076708984375,-0.5517641139447689,-0.9127958126753568,0.2908332501277327
2024-12-07 18:10:08.319740400,9.150740478515624,-0.6144102474719285,-0.5537222622752189,0.058299921016395
2024-12-07 18:10:08.329714200,9.160714111328126,-0.8433604573994874,-0.3255366069793701,-0.0372391589395701
2024-12-07 18:10:08.339688200,9.170688232421876,-1.19403267467916,-0.0643950230211019,0.2121127646341919
2024-12-07 18:10:08.349661400,9.180661376953124,-1.364732940211892,0.1912275052547454,0.7418801508262753
2024-12-07 18:10:08.359635500,9.190635498046875,-1.4279185874432323,0.3509814293593168,1.1438267743997277
2024-12-07 18:10:08.369609500,9.200609375,-1.3723749793976543,0.514601965764165,1.4189527523078025
2024-12-07 18:10:08.379583200,9.210583251953125,-1.201565408271551,0.5391507160872221,1.3657095301590858
2024-12-07 18:10:08.389556500,9.220556396484374,-1.014820601388812,0.8732856400638819,1.3029647585630415
2024-12-07 18:10:08.399530500,9.230530517578124,-0.909276406377554,1.2560071925550698,1.1699291839055717
2024-12-07 18:10:08.409504500,9.24050439453125,-0.6800245831549168,2.022726308822632,1.1417248336844146
2024-12-07 18:10:08.419477200,9.250477294921875,-0.4182452858150005,3.0205817468851803,1.2997194930315017
2024-12-07 18:10:08.429451300,9.260451171875,-0.4401765471160411,3.9173938084870574,1.3977848765946923
2024-12-07 18:10:08.439425300,9.27042529296875,-0.6130746149539947,4.68101495873928,1.4652993468105793
2024-12-07 18:10:08.449399300,9.2803994140625,-0.7876175273895263,5.379125818204879,1.404434105350822
2024-12-07 18:10:08.459372300,9.290372314453125,-0.8116308556616306,5.396926847833394,1.1130826765678823
2024-12-07 18:10:08.469346300,9.30034619140625,-0.6203536660462617,4.23388026304841,0.3945985988982021
2024-12-07 18:10:08.479320300,9.3103203125,-0.3810825531125068,2.7069945208966733,-0.3667109134107827
2024-12-07 18:10:08.489293300,9.320293212890626,-0.3666530092110857,1.2885375892817974,-0.918816826530546
2024-12-07 18:10:08.499267300,9.330267333984375,-0.6255284383356571,0.1691249790400266,-1.1692581527762114
2024-12-07 18:10:08.509241300,9.340241455078123,-1.0631044475644826,-0.5554962862104177,-1.279472239294648
2024-12-07 18:10:08.519215400,9.35021533203125,-1.4585370130687951,-0.9240998815000055,-1.3973641669645904
2024-12-07 18:10:08.529188400,9.360188232421876,-1.8469307659775016,-1.1332663635492324,-1.5900051922790706
2024-12-07 18:10:08.539162400,9.370162353515624,-2.4284230787098404,-1.323941495618224,-1.8232533916614948
2024-12-07 18:10:08.549136400,9.380136474609374,-3.312534064170718,-1.4804332030564546,-2.005111887807399
2024-12-07 18:10:08.559109000,9.390109130859376,-4.015926663431525,-1.6045049884051084,-2.181807302101701
2024-12-07 18:10:08.569083100,9.400083251953124,-3.4804601888149973,-1.8701836312711235,-2.5434727686911818
2024-12-07 18:10:08.579057200,9.41005712890625,-1.4040151492863893,-2.295367191916704,-2.843801869177818
2024-12-07 18:10:08.589031200,9.42003125,1.382151838655025,-2.426535073006153,-2.415217560178041
2024-12-07 18:10:08.599004400,9.43000439453125,3.941811041384935,-2.2080542346447705,-1.4720762935996057
2024-12-07 18:10:08.608978400,9.439978515625,5.514248574399947,-1.8026725220561024,-0.6455666524317115
2024-12-07 18:10:08.618952400,9.449952392578124,5.594112969231605,-0.9963181454926728,0.2819989324174821
2024-12-07 18:10:08.628925400,9.459925537109376,4.576984090900421,-0.1107791730552911,1.144401213286817
2024-12-07 18:10:08.638899500,9.4698994140625,2.805999669528007,0.914613675752282,1.8143118141844867
2024-12-07 18:10:08.648873500,9.47987353515625,0.58253451526165,2.226767118421197,1.7580968827486037
2024-12-07 18:10:08.658846500,9.489846435546877,-0.8986860387802124,3.3525539398699995,1.0395783913526684
2024-12-07 18:10:08.668820500,9.499820556640625,-0.9780236332587896,3.612420681586862,0.1732921086568385
2024-12-07 18:10:08.678794500,9.50979443359375,-0.2098975728027522,2.917805847543478,-0.4590645682636648
2024-12-07 18:10:08.688768500,9.5197685546875,0.6189242177650333,1.7575620452195404,-0.7671512240745126
2024-12-07 18:10:08.698741500,9.529741455078126,1.2023667877823114,0.6040227089703083,-0.7906991998571902
2024-12-07 18:10:08.708715500,9.539715576171876,1.386388453311473,-0.3497767297446728,-0.8550994105100631
2024-12-07 18:10:08.718689500,9.549689453125,1.256122927889228,-1.0802461365014313,-0.9781171567611396
2024-12-07 18:10:08.728662500,9.55966259765625,1.107393232754618,-1.5890701033860444,-1.2220042390577497
2024-12-07 18:10:08.738636500,9.569636474609377,1.048640453404188,-1.9042133266448973,-1.458930688561499
2024-12-07 18:10:08.748610600,9.579610595703125,1.1614108002766963,-2.060660610419512,-1.653451828534156
2024-12-07 18:10:08.758584600,9.58958447265625,1.246473056012392,-2.0470932728379965,-1.7005216227449476
2024-12-07 18:10:08.768557600,9.5995576171875,1.2147294257491823,-2.063510739153624,-1.6024385573945938
2024-12-07 18:10:08.778531600,9.609531494140626,1.1011679284989833,-1.9311919344633817,-1.3283210258767009
2024-12-07 18:10:08.788505600,9.619505615234376,0.8093214096754789,-1.8763257872879504,-1.185767973550409
2024-12-07 18:10:08.798478600,9.629478515625,0.5081863996334374,-1.96763804332912,-1.1824216587971896
2024-12-07 18:10:08.808452600,9.63945263671875,0.3247996710069477,-2.2470663946062324,-1.2116365012351422
2024-12-07 18:10:08.818426600,9.649426513671877,0.1524444778740405,-2.607724583849311,-1.1976185703419149
2024-12-07 18:10:08.828400400,9.659400390625,-0.0608954904675483,-3.03214475890696,-1.3968173467367886
2024-12-07 18:10:08.838373400,9.669373291015624,-0.3681862466603517,-3.6090398069769134,-1.6381155815839767
2024-12-07 18:10:08.848347400,9.679347412109376,-0.6237811562769114,-4.031141183698177,-1.4819716646701098
2024-12-07 18:10:08.858321400,9.6893212890625,-0.7177395429126918,-4.198481617408991,-1.169899811680615
2024-12-07 18:10:08.868294400,9.69929443359375,-0.8186229065060615,-4.117537026125192,-0.874092864793539
2024-12-07 18:10:08.878268400,9.709268310546875,-0.9122158208303152,-3.912675547793507,-0.6192401518464088
2024-12-07 18:10:08.888242400,9.719242431640623,-1.2741513365328312,-3.457793014454841,-0.2127408334046602
2024-12-07 18:10:08.898216400,9.729216552734377,-2.056194132529944,-2.6175270159393547,0.3557175179705023
2024-12-07 18:10:08.908189400,9.739189453125,-3.290212342247367,-1.3306360248208045,1.1571975664958356
2024-12-07 18:10:08.918163500,9.74916357421875,-4.958320911034941,0.501194202658534,2.10799753113389
2024-12-07 18:10:08.928137500,9.759137451171876,-6.53451458171308,2.699865107408166,3.136539199361205
2024-12-07 18:10:08.938110500,9.7691103515625,-7.19985655952096,4.920526310169697,4.207086656408012
2024-12-07 18:10:08.948084500,9.77908447265625,-6.241806477624178,6.608378859347105,4.552602221576869
2024-12-07 18:10:08.958058500,9.78905859375,-3.961984645363688,7.431627672088146,3.9168233151227234
2024-12-07 18:10:08.968032500,9.799032470703125,-1.035499816802144,7.589886973720788,3.2010408976271747
2024-12-07 18:10:08.978005500,9.809005615234376,1.985132783487439,6.980247009390592,2.286993915846944
2024-12-07 18:10:08.987979500,9.8189794921875,4.038599098488688,5.336612956646085,-0.3548368626784533
2024-12-07 18:10:08.997953500,9.82895361328125,5.579329826119542,2.877185667863488,-3.6696518043279647
2024-12-07 18:10:09.007926500,9.838926513671876,5.749176689693331,0.2128197438597679,-5.214138669621944
2024-12-07 18:10:09.017900500,9.848900634765624,4.451690070280432,-2.3792326390832663,-5.146981196150184
2024-12-07 18:10:09.027874600,9.85887451171875,2.7271400678247213,-4.525816213721036,-4.887082305729389
2024-12-07 18:10:09.037847600,9.86884765625,0.5618086842276155,-5.636118465790152,-4.660585918694735
2024-12-07 18:10:09.047821600,9.878821533203125,-1.7122557535499334,-4.972663324642181,-3.2714141182750462
2024-12-07 18:10:09.057795600,9.888795654296874,-2.352860618855804,-2.8664579376220702,-1.0655828203767537
2024-12-07 18:10:09.067769600,9.89876953125,-0.8797625809930264,-1.0783861878484486,0.4319607996955513
2024-12-07 18:10:09.077742600,9.90874267578125,1.5392245608516038,-0.1515542510360479,1.1578792651496828
2024-12-07 18:10:09.087716600,9.918716552734375,3.2539941969186064,-0.087101360347867,0.8277866753663867
2024-12-07 18:10:09.097690600,9.928690673828124,3.387305519777536,-0.502145219773054,-0.2430388314368203
2024-12-07 18:10:09.107663400,9.938663330078125,2.4867513490378856,-0.7845283292025327,-1.3698138967379927
2024-12-07 18:10:09.117637400,9.948637451171876,1.7590011381119488,-0.4096569056898355,-1.8903426222026347
2024-12-07 18:10:09.127611400,9.958611328125,1.2217606395602223,0.4468775060594082,-1.9241547293029724
2024-12-07 18:10:09.137585400,9.96858544921875,0.6089572427630424,1.499830561965704,-1.6682162669457494
2024-12-07 18:10:09.147558400,9.978558349609376,0.0945627822697162,2.435653029963374,-1.1977685002066194
2024-12-07 18:10:09.157532400,9.988532470703126,-0.2545737498752772,3.098627694118022,-0.7143590336289256
2024-12-07 18:10:09.167506400,9.99850634765625,-0.4249005059204995,3.229515589222312,-0.2882882052874192
2024-12-07 18:10:09.177479400,10.0084794921875,-0.0990482571206986,2.554780344647169,0.0665045990535989
2024-12-07 18:10:09.187453400,10.018453369140625,0.5308553275592625,1.4431535659760235,0.3556243963269516
2024-12-07 18:10:09.197427500,10.028427490234376,1.1810815692998469,0.4142559239178895,0.4064215404978021
2024-12-07 18:10:09.207401500,10.0384013671875,1.6370160959094762,-0.3667050681918859,0.2518759986912831
2024-12-07 18:10:09.217374500,10.04837451171875,1.9759633886039256,-0.8289782963037491,0.1157208672411739
2024-12-07 18:10:09.227348500,10.058348388671876,2.1650455523930487,-0.8534218326866626,0.0039776714593172
2024-12-07 18:10:09.237322500,10.068322509765624,2.2830974929302927,-0.6285369725018739,0.059798489011079
2024-12-07 18:10:09.247295500,10.07829541015625,2.2051000610142943,-0.2022346369594335,0.3625353082265705
2024-12-07 18:10:09.257269500,10.08826953125,1.700822943779081,0.2246294241189956,0.904411942146346
2024-12-07 18:10:09.267243300,10.0982431640625,1.1068968275398017,0.6436351729124784,1.5746790283314882
2024-12-07 18:10:09.277217300,10.10821728515625,0.676287588583678,0.8310024956077336,2.172428209990263
2024-12-07 18:10:09.287190500,10.1181904296875,0.5588485192477702,0.8743529770344495,2.6645766441449523
2024-12-07 18:10:09.297164500,10.12816455078125,0.5938228750605136,0.5520844319403171,2.853640249364078
2024-12-07 18:10:09.307138600,10.138138671875,0.5677706613719463,-0.0792360338002443,2.6848209752723573
2024-12-07 18:10:09.317111600,10.148111572265623,0.4880875413913279,-0.7885948479890823,2.256500577905774
2024-12-07 18:10:09.327085600,10.15808544921875,0.3232360018867999,-1.2908195627391337,1.6833254271417857
2024-12-07 18:10:09.337059600,10.1680595703125,0.0179460641223937,-1.562453314617276,0.9776672210365532
2024-12-07 18:10:09.347033600,10.17803369140625,-0.2571399471014738,-1.7038783858269453,0.2006052091266959
2024-12-07 18:10:09.357006600,10.188006591796874,-0.5029319497039542,-1.6157137801617385,-0.4964228235382586
2024-12-07 18:10:09.366980600,10.197980712890624,-0.7572621366143226,-1.3821382485210896,-1.0463803264524787
2024-12-07 18:10:09.376954600,10.20795458984375,-1.027198436924815,-1.0337462511330842,-1.503228387710452
2024-12-07 18:10:09.386927600,10.217927734375,-1.3005074285387992,-0.5537953275114298,-1.7502927848689258
2024-12-07 18:10:09.396901600,10.227901611328123,-1.5680921972870825,0.0013952537506818,-1.7297293047897515
2024-12-07 18:10:09.406875600,10.237875732421877,-1.7860037113279104,0.3505769402116537,-1.6089850564286112
2024-12-07 18:10:09.416848400,10.247848388671876,-1.7193594480752945,0.4385357941716909,-1.3534785557478666
2024-12-07 18:10:09.426822400,10.257822509765624,-1.3597130662232635,0.4187847995191812,-0.8363961713448166
2024-12-07 18:10:09.436796400,10.26779638671875,-0.9135667970478534,0.2193207963168621,-0.2102343304764479
2024-12-07 18:10:09.446770400,10.2777705078125,-0.5188175376325845,0.0406330391615629,0.3720247288446873
2024-12-07 18:10:09.456743400,10.287743408203124,-0.4246797027766704,-0.0928758520960807,0.8816798127911984
2024-12-07 18:10:09.466717400,10.297717529296875,-0.2970341505944728,-0.10872983931005,1.2439207411810755
2024-12-07 18:10:09.476691500,10.30769140625,-0.1258042990965303,0.0680494538754224,1.386042562483251
2024-12-07 18:10:09.486664400,10.31766455078125,-0.0427075073480606,0.2905973955452442,1.343725515757501
2024-12-07 18:10:09.496638500,10.327638427734374,-0.1850081923484802,0.3593915303081273,1.1089132819287475
2024-12-07 18:10:09.506612500,10.337612548828124,-0.4470207139223813,0.3585971650600433,1.0670061311781405
2024-12-07 18:10:09.516586500,10.34758642578125,-0.6630576662629842,0.2675152106434106,1.2850421483814716
2024-12-07 18:10:09.526559500,10.3575595703125,-0.7578741310328244,0.0420832379698753,1.5929263404227791
2024-12-07 18:10:09.536533500,10.367533447265624,-0.8161047862052917,-0.1405149706274271,1.8641699239395555
2024-12-07 18:10:09.546507500,10.377507568359375,-0.8356582124590873,-0.2046744313269853,1.9718647211134432
2024-12-07 18:10:09.556480500,10.38748046875,-0.6627846945405006,-0.0081476506203413,2.300000843066722
2024-12-07 18:10:09.566454500,10.39745458984375,-0.3614882103264331,0.2236597023040056,2.144413244861364
2024-12-07 18:10:09.576428300,10.40742822265625,-0.0731961691141128,0.531774634361267,1.87450763195008
2024-12-07 18:10:09.586402300,10.41740234375,0.0248246537881437,0.8142343161582947,1.660870580358058
2024-12-07 18:10:09.596375300,10.427375244140626,-0.0861842363697942,1.244745793828368,1.5076418202385304
2024-12-07 18:10:09.606349300,10.437349365234375,-0.2916857753038406,1.5749381176590918,1.2796648392572998
2024-12-07 18:10:09.616323300,10.4473232421875,-0.5121463893055915,1.5976467930734155,0.9139910138092936
2024-12-07 18:10:09.626296300,10.45729638671875,-0.6910451588630676,1.6246259854137897,0.4994448747731745
2024-12-07 18:10:09.636270300,10.467270263671876,-0.9953215356707572,1.8989128821492192,0.1290199092753231
2024-12-07 18:10:09.646244400,10.477244384765624,-1.3772726883113384,1.87283911421597,-0.2147733621455728
2024-12-07 18:10:09.656218400,10.48721826171875,-1.916301239323616,2.361333409777284,-0.2414807518072426
2024-12-07 18:10:09.666191000,10.497191162109376,-2.5041525656938552,2.627287946975231,-0.1543482656687498
2024-12-07 18:10:09.676165000,10.5071650390625,-2.866813326931,2.5249708973169325,0.0398861663170158
2024-12-07 18:10:09.686139100,10.51713916015625,-2.8755355625689027,2.090703281983733,0.0490174211472272
2024-12-07 18:10:09.696112000,10.527112060546877,-2.4994541787445543,1.4064765709638596,-0.1122242572970688
2024-12-07 18:10:09.706086100,10.537086181640625,-1.835415684750676,0.7394803962081671,-0.3180564803570508
2024-12-07 18:10:09.716060200,10.54706005859375,-0.8985258797824383,0.2021446205884218,-0.655469768417254
2024-12-07 18:10:09.726033200,10.557033203125,-0.0636485885679721,-0.5667933407723903,-0.823711096490547
2024-12-07 18:10:09.736007200,10.567007080078126,0.0116437125751748,-1.4349720130860804,-0.4212804887924343
2024-12-07 18:10:09.745981200,10.576981201171876,-1.0051274018269032,-1.6683289335399865,0.3481178566217422
2024-12-07 18:10:09.755955200,10.586955078125,-2.476214757454396,-1.1307353837668894,0.8282178333252668
2024-12-07 18:10:09.765928200,10.59692822265625,-3.5060850439369675,-0.2037818664014339,-0.0235340933877974
2024-12-07 18:10:09.775902200,10.606902099609377,-2.94301627664566,0.5131055897265673,-1.7878294654503464
2024-12-07 18:10:09.785876200,10.616876220703125,-1.2809803057700395,1.20800157879889,-2.5088895310878754
2024-12-07 18:10:09.795849000,10.626848876953124,0.6267267082095146,1.6809698039263483,-2.343907643201947
2024-12-07 18:10:09.805823000,10.636822998046876,1.9765577012352644,1.7651544000446795,-2.5758538200750944
2024-12-07 18:10:09.815797000,10.646796875,2.627460965454578,1.825683979809284,-2.6953689650326966
2024-12-07 18:10:09.825771000,10.65677099609375,2.800598687267303,1.8783377116322515,-2.640781342537701
2024-12-07 18:10:09.835744300,10.666744140625,2.630167886325717,1.788712385764718,-2.320238452192396
2024-12-07 18:10:09.845718300,10.67671826171875,2.256952851717919,1.6022329518198966,-1.739564470105618
2024-12-07 18:10:09.855692000,10.686692138671877,1.6607435929775236,1.385727212923765,-0.8488065939761698
2024-12-07 18:10:09.865665300,10.696665283203124,0.898887260440737,1.2590139731556176,0.1400991929007694
2024-12-07 18:10:09.875639300,10.706639404296874,0.3942945013850927,0.9965303269386292,0.4953993257094174
2024-12-07 18:10:09.885613300,10.71661328125,0.5781206443421543,0.6034861178755759,0.1840610111588612
2024-12-07 18:10:09.895587300,10.72658740234375,0.9623651686169208,0.1102799913614988,-0.3308349325831979
2024-12-07 18:10:09.905560300,10.736560302734375,1.0623265950597822,-0.3208703687340021,-0.7310135966360568
2024-12-07 18:10:09.915534300,10.746534423828123,1.18629302033782,-0.7379319977223873,-1.0153329348251223
2024-12-07 18:10:09.925508400,10.75650830078125,1.3925744484700262,-1.1136083078771828,-1.199897694255039
2024-12-07 18:10:09.935481300,10.7664814453125,1.366346220627427,-1.413081668317318,-1.205392565344274
2024-12-07 18:10:09.945455400,10.776455322265624,1.1197077937960624,-1.6990853063315152,-0.9919652840454132
2024-12-07 18:10:09.955429400,10.786429443359374,0.7398745100922882,-2.014068370592594,-0.7007883350465446
2024-12-07 18:10:09.965402000,10.796402099609375,0.5197312914766371,-2.372227728757262,-0.5741969315597787
2024-12-07 18:10:09.975376100,10.806376220703124,0.4047909070886671,-2.714419702461362,-0.4539375806387513
2024-12-07 18:10:09.985350100,10.81635009765625,0.4027424501262605,-2.994555909746885,-0.5214835419714451
2024-12-07 18:10:09.995324200,10.82632421875,0.4750239886134862,-3.0831688437014817,-0.6594425445057451
2024-12-07 18:10:10.005297200,10.836297119140625,0.6186736040048301,-3.09042685200572,-0.7948627492774277
2024-12-07 18:10:10.015271200,10.846271240234374,0.8411480420470238,-3.020964024201035,-0.9436265658773482
2024-12-07 18:10:10.025245200,10.8562451171875,1.0336340229302643,-2.988453501218557,-1.0491594357769936
2024-12-07 18:10:10.035218200,10.86621826171875,1.035063178950548,-2.9934570085942744,-1.135573325317353
2024-12-07 18:10:10.045192200,10.876192138671875,0.833038385349512,-3.061728580787778,-1.386090054886788
2024-12-07 18:10:10.055166200,10.886166259765623,0.3799018188953399,-3.184036279073357,-1.692079373092204
2024-12-07 18:10:10.065140200,10.89614013671875,-0.0150064304739236,-3.189070181587338,-1.7706641033768653
2024-12-07 18:10:10.075113200,10.90611328125,-0.4922989485412836,-3.079649437403679,-1.6317324564181268
2024-12-07 18:10:10.085087200,10.916087158203124,-1.0206161359250543,-2.741992769041657,-1.0275699005857108
2024-12-07 18:10:10.095061200,10.926061279296874,-1.7484814976632594,-2.265913718417287,-0.1158607049701269
2024-12-07 18:10:10.105034200,10.9360341796875,-2.564102007482946,-1.657274455562234,0.993873090428114
2024-12-07 18:10:10.115008000,10.946008056640624,-3.0662989574432373,-0.9898398893892764,2.033807528676838
2024-12-07 18:10:10.124982000,10.95598193359375,-3.252276287084818,-0.1964016930222511,2.8700194294959305
2024-12-07 18:10:10.134956000,10.9659560546875,-3.1473014163941144,0.7007265949219464,3.343302419660985
2024-12-07 18:10:10.144929300,10.97592919921875,-3.357566799595952,1.8701245945602656,3.729618489512801
2024-12-07 18:10:10.154903300,10.9859033203125,-4.207206775656342,3.2667472955077885,3.965499960008263
2024-12-07 18:10:10.164877000,10.995876953125,-5.156456295982003,4.526130686497688,3.7154078855916857
2024-12-07 18:10:10.174850300,11.005850341796876,-5.4463060880303376,5.173341379809379,3.4906939980596303
2024-12-07 18:10:10.184824300,11.01582421875,-3.697317809888721,5.271857868140936,3.733975515678525
2024-12-07 18:10:10.194798300,11.02579833984375,-0.0383580799669027,4.650527466017008,2.810503995209932
2024-12-07 18:10:10.204771300,11.035771240234377,3.071118340423703,3.0921640510618684,-0.078083941155672
2024-12-07 18:10:10.214745300,11.045745361328123,4.893431382495165,1.2981097197473048,-3.256632728728652
2024-12-07 18:10:10.224719400,11.05571923828125,5.489190705510974,-0.2219581590831279,-5.039049229219556
2024-12-07 18:10:10.234693400,11.065693359375,4.606829778587818,-1.5008382777035236,-5.662209184858202
2024-12-07 18:10:10.244666000,11.075666015625,2.850796258109808,-2.266046989408135,-6.523986173436045
2024-12-07 18:10:10.254640000,11.08564013671875,0.736868606274575,-2.2080174097657204,-7.8136185722172256
2024-12-07 18:10:10.264614100,11.0956142578125,-0.9822894740097224,-1.212606442245841,-7.815178076618909
2024-12-07 18:10:10.274587100,11.105587158203123,-1.8173001823455093,0.182604638338089,-5.363350156924128
2024-12-07 18:10:10.284561200,11.11556103515625,-1.5099147336065768,1.317619306859374,-2.375128857026249
2024-12-07 18:10:10.294535200,11.12553515625,-0.5028548293471337,2.0120617069453,0.3026405557667836
2024-12-07 18:10:10.304509200,11.13550927734375,0.9498615147441624,1.8419529775649308,1.7431281539365648
2024-12-07 18:10:10.314482200,11.145482177734374,2.097776435240358,0.993270448359847,1.835774581190944
2024-12-07 18:10:10.324456200,11.155456298828126,2.295846499866247,-0.3917845643907785,0.8032420166965574
2024-12-07 18:10:10.334430200,11.16543017578125,2.416870149690657,-1.6463140856087206,-0.1108078146278858
2024-12-07 18:10:10.344403200,11.1754033203125,2.4577298372149468,-2.2968653215199706,-0.7706174388803542
2024-12-07 18:10:10.354377200,11.185377197265623,2.22002933459878,-2.4905016414821146,-1.2988134841024874
2024-12-07 18:10:10.364351200,11.195351318359377,1.6508365314692257,-2.276587088122964,-1.371904147015512
2024-12-07 18:10:10.374325200,11.2053251953125,0.8483698099941015,-1.675247334626317,-0.9813457634188234
2024-12-07 18:10:10.384298000,11.215298095703124,0.2652851135037839,-0.7871908264100551,-0.2803448085349053
2024-12-07 18:10:10.394272000,11.22527197265625,-0.0167927293688058,0.1815618512868881,0.3185917562775314
2024-12-07 18:10:10.404246000,11.23524609375,0.2477704996012151,0.9420067095905542,0.6725705408219248
2024-12-07 18:10:10.414219300,11.24521923828125,0.8201601990759372,1.180661736452579,0.9537897941038012
2024-12-07 18:10:10.424193000,11.255193115234375,0.9233207138210534,0.9728706344097852,0.9330063145983964
2024-12-07 18:10:10.434167000,11.2651669921875,0.680249624082446,0.6824433347344399,0.895088160418719
2024-12-07 18:10:10.444140300,11.275140380859376,0.3657494479674846,0.4973725985437631,0.8362563975479453
2024-12-07 18:10:10.454114300,11.2851142578125,0.266820798638463,0.4697317274242639,0.7974421713113784
2024-12-07 18:10:10.464088300,11.29508837890625,0.2331166819572448,0.5343874472081661,0.6565794832248241
2024-12-07 18:10:10.474062000,11.30506201171875,0.34990539762564,0.773677264842391,0.454800773339346
2024-12-07 18:10:10.484035300,11.315035400390624,0.5472750588972121,1.1178338166177273,0.3205320036251097
2024-12-07 18:10:10.494009300,11.32500927734375,0.7182699234623462,1.4000754717499018,0.4636024308890104
2024-12-07 18:10:10.503983400,11.3349833984375,0.7632908953845501,1.5014870970010756,0.7611040528647601
2024-12-07 18:10:10.513956400,11.344956298828125,0.6906763986159116,1.3512374988228082,0.9906210298296064
2024-12-07 18:10:10.523930400,11.354930419921876,0.5451199266899377,0.9849901112705468,1.1007880623359232
2024-12-07 18:10:10.533904400,11.364904296875,0.394855715464428,0.5409738398611545,1.124760035684332
2024-12-07 18:10:10.543878400,11.37487841796875,0.3439502155482768,0.0790834735870361,1.1530902773074805
2024-12-07 18:10:10.553851100,11.38485107421875,0.4479401668548584,-0.2897778958559036,1.1575246064931153
2024-12-07 18:10:10.563825200,11.3948251953125,0.4879173724561929,-0.4925298346877098,1.1054629953444004
2024-12-07 18:10:10.573799200,11.404799072265623,0.4258984309166669,-0.4664157347440719,1.070068587488681
2024-12-07 18:10:10.583772200,11.414772216796877,0.3621078035295009,-0.3501122453093528,1.0681500405162572
2024-12-07 18:10:10.593746200,11.42474609375,0.141331474642083,-0.1875596303969621,0.9437344101659954
2024-12-07 18:10:10.603719700,11.4347197265625,0.0341472208062186,-0.0873509511947631,0.9196924403212964
