time,seconds_elapsed,z,y,x
2024-12-07 18:21:07.697781500,0.015781494140625,0.0661290072068572,-0.180493345272541,-0.1969897220432758
2024-12-07 18:21:07.707755500,0.025755615234375,-0.1580716701060533,0.0615261895865201,-0.2020002436816692
2024-12-07 18:21:07.717729500,0.0357294921875,-0.2733317879676818,0.2302677222669124,-0.1282733286917209
2024-12-07 18:21:07.727703600,0.04570361328125,-0.1763458702042698,0.2320195343703031,-0.1778764407724141
2024-12-07 18:21:07.737677600,0.055677490234375,-0.0986716788932681,0.1386602826714515,-0.225354231262207
2024-12-07 18:21:07.747651600,0.065651611328125,0.0730979694366455,0.0777004947960376,-0.239977799898386
2024-12-07 18:21:07.757625600,0.07562548828125,0.0895414469763636,0.1544511415213346,-0.12286650121212
2024-12-07 18:21:07.767598600,0.0855986328125,-0.0056599254578351,0.2598217335313558,-0.0114466921657323
2024-12-07 18:21:07.777572600,0.095572509765625,0.0034589082822203,0.2559732414096594,-0.0286018251061439
2024-12-07 18:21:07.787546600,0.105546630859375,0.0029334231033921,0.0254085820227861,-0.197994515171647
2024-12-07 18:21:07.797520600,0.115520751953125,0.0592664279609918,-0.9548884029954672,-0.7492763985574245
2024-12-07 18:21:07.807494700,0.12549462890625,0.2042956611424684,-2.355357842499018,-1.897278558945656
2024-12-07 18:21:07.817468700,0.13546875,0.2736925841040909,-2.178970178979635,-2.308873739221692
2024-12-07 18:21:07.827442700,0.145442626953125,2.1556911563314496,-2.0420985332906243,-1.939716309441626
2024-12-07 18:21:07.837416700,0.155416748046875,1.025617012952268,-1.8981161788135763,-1.523349969241023
2024-12-07 18:21:07.847390700,0.165390625,-0.6930265419386327,-1.5306968248724937,-1.1347244534030556
2024-12-07 18:21:07.857364700,0.17536474609375,-1.398529849743098,-1.4327975916564464,-0.3916542160093784
2024-12-07 18:21:07.867338800,0.1853388671875,-1.840490503796935,-1.392883514419198,-0.0333697701603174
2024-12-07 18:21:07.877312800,0.195312744140625,-0.9330804758131503,-1.208378595417738,-0.223524677747488
2024-12-07 18:21:07.887286500,0.20528662109375,-0.3062378861390054,-1.01251173992455,-0.0737312989041209
2024-12-07 18:21:07.897260500,0.215260498046875,0.2383757715292274,-0.8128472457140684,0.2000751208379864
2024-12-07 18:21:07.907234300,0.225234375,0.4390986887514591,-0.4798895488232373,0.5740764835178852
2024-12-07 18:21:07.917208300,0.235208251953125,0.3864018484391271,0.0102285485476255,0.8979401888489723
2024-12-07 18:21:07.927182300,0.245182373046875,0.2005975372768938,0.3438333111703395,1.1470078886538744
2024-12-07 18:21:07.937156400,0.25515625,0.1876771192967891,0.4624029919713735,1.2590920068278908
2024-12-07 18:21:07.947130400,0.26513037109375,0.4185464607186615,0.5439402884513139,1.1879533547654748
2024-12-07 18:21:07.957104400,0.2751044921875,0.1899742903232574,0.7165794130921364,1.0614569726184009
2024-12-07 18:21:07.967077400,0.285077392578125,-0.0715372959911823,0.7408990308344364,0.8935852085098623
2024-12-07 18:21:07.977051400,0.295051513671875,-0.2544283500552177,0.918414821600914,0.8022653536841273
2024-12-07 18:21:07.987025400,0.305025390625,-0.322233400715515,1.060197620207071,0.6640019613757729
2024-12-07 18:21:07.996999400,0.31499951171875,-0.4913192167889326,1.3552975878685711,0.6212789641976356
2024-12-07 18:21:08.006973400,0.324973388671875,-0.4247095133930444,1.4918758035689592,0.4880576577097177
2024-12-07 18:21:08.016947500,0.334947509765625,-0.202505124463886,1.548019715595245,0.4126949582114815
2024-12-07 18:21:08.026921500,0.34492138671875,-0.1234171208322048,1.6159394056111571,0.45606852825284
2024-12-07 18:21:08.036895500,0.3548955078125,-0.0239145440727472,1.5829513282448051,0.4060127039685845
2024-12-07 18:21:08.046869500,0.364869384765625,0.1732435933399945,1.5861264511495827,0.2760276029229164
2024-12-07 18:21:08.056843500,0.374843505859375,0.1802023264367133,1.5929729560434818,0.1004889574483036
2024-12-07 18:21:08.066817500,0.384817626953125,0.2115876447815448,1.529232013016939,0.0442380779162049
2024-12-07 18:21:08.076791600,0.39479150390625,0.1026492042221128,1.1828659684985876,0.4845917351648211
2024-12-07 18:21:08.086765600,0.404765625,-0.0380091203987598,0.6391261710554361,0.8439230597183108
2024-12-07 18:21:08.096739600,0.414739501953125,-0.1857171443354338,0.1126058039605617,0.3911325302228331
2024-12-07 18:21:08.106713600,0.424713623046875,-0.2087111394971608,-0.1688198586136102,-0.2203954398110509
2024-12-07 18:21:08.116687600,0.4346875,0.0048445174217224,-0.4652636420994996,-0.6015612872928381
2024-12-07 18:21:08.126661600,0.44466162109375,0.1787679097194224,-0.6335346346586942,-0.8884580747544765
2024-12-07 18:21:08.136635600,0.4546357421875,-0.0281545927952975,-0.597460281714797,-0.7913521838732064
2024-12-07 18:21:08.146609700,0.464609619140625,-0.1651133322458714,-0.7630699461102485,-0.5170563731789589
2024-12-07 18:21:08.156582700,0.474582763671875,-0.0252280378241091,-0.792157508906722,-0.1211225801542401
2024-12-07 18:21:08.166556700,0.484556640625,0.0077506871920078,-0.5635504133284092,0.1687397791147231
2024-12-07 18:21:08.176530700,0.49453076171875,-0.1209258885383605,-0.450855762040615,0.2505003629565239
2024-12-07 18:21:08.186504700,0.504504638671875,-0.0720597854953259,-0.1899117464810609,0.2891195780776441
2024-12-07 18:21:08.196478700,0.514478759765625,-0.314506605855748,0.0113952542394399,0.4076923276185989
2024-12-07 18:21:08.206452700,0.52445263671875,-0.3975654858797788,-0.0677221216171979,0.6050258946634829
2024-12-07 18:21:08.216426500,0.534426513671875,-0.2601507462900131,-0.3240343857228756,0.745860744895041
2024-12-07 18:21:08.226400500,0.544400390625,-0.0676595047097653,-0.5727163010805845,0.6991292427279054
2024-12-07 18:21:08.236374500,0.55437451171875,0.1376250944048166,-0.7440601252138614,0.4949352883942425
2024-12-07 18:21:08.246348500,0.5643486328125,0.1630376950155943,-0.7643845358401536,0.2843003412276506
2024-12-07 18:21:08.256322600,0.574322509765625,0.0606973375469446,-0.495921815213561,0.223773537942022
2024-12-07 18:21:08.266296600,0.584296630859375,0.0232769037563353,-0.2569838797569275,0.0796320473805069
2024-12-07 18:21:08.276270600,0.5942705078125,0.0191746560692787,0.0507499440282583,-0.2161829366825521
2024-12-07 18:21:08.286244600,0.60424462890625,-0.064774889184162,0.3072662062734365,-0.1906836076363921
2024-12-07 18:21:08.296218600,0.614218505859375,-0.0105121147293597,0.5486299075722694,-0.2906599393874406
2024-12-07 18:21:08.306192600,0.624192626953125,0.076709072605893,0.8798363768815993,-0.5480896632157266
2024-12-07 18:21:08.316166700,0.634166748046875,0.0134867466259747,1.0701724862545727,-0.7506953254446387
2024-12-07 18:21:08.326140700,0.644140625,0.4844324529498815,-1.821409955751896,-1.3955777219392358
2024-12-07 18:21:08.336114700,0.65411474609375,0.965980363439396,-5.121314255452155,-2.0686697293519973
2024-12-07 18:21:08.346088700,0.664088623046875,0.9173205966234208,-2.792058822458982,-1.014837260262668
2024-12-07 18:21:08.356061400,0.6740615234375,0.1392051301378756,0.2746960620582103,0.0955228594735264
2024-12-07 18:21:08.366035500,0.684035400390625,-0.2240805215319618,-0.7229045244604348,-0.1632715768367052
2024-12-07 18:21:08.376009500,0.694009521484375,-0.3820528229167684,-0.3128916449397802,0.0979199837431311
2024-12-07 18:21:08.385983500,0.7039833984375,-0.2779775679469108,0.6677958007007837,0.4154387039616704
2024-12-07 18:21:08.395957500,0.71395751953125,-0.0114290469111874,1.1330781475007534,0.3879773541275411
2024-12-07 18:21:08.405931500,0.723931640625,0.0528046115357428,1.1428951926380395,0.3209499367762357
2024-12-07 18:21:08.415905500,0.733905517578125,-0.0339443551778793,1.1259440578371285,0.3268442555118352
2024-12-07 18:21:08.425879600,0.743879638671875,-0.1338648650884628,1.027940779724717,0.0734951520606875
2024-12-07 18:21:08.435853600,0.753853515625,-0.1706131352385506,0.993873090428114,-0.0699093294631689
2024-12-07 18:21:08.445827600,0.76382763671875,-0.0409510921347886,1.1896230415433644,-0.1471502439234405
2024-12-07 18:21:08.455801600,0.773801513671875,0.0778231713276356,1.0460305631667377,-0.1048162095302715
2024-12-07 18:21:08.465775600,0.783775634765625,0.0651010523986071,0.9854986453145742,-0.1009360070960596
2024-12-07 18:21:08.475749400,0.793749267578125,0.0690899393716827,0.864544115203619,-0.2405811726190149
2024-12-07 18:21:08.485723400,0.803723388671875,-0.0550724834024906,0.6640005000710487,-0.1874147785661742
2024-12-07 18:21:08.495697400,0.813697509765625,-0.1667026837965473,0.5527285750627517,-0.0592275937879458
2024-12-07 18:21:08.505671400,0.82367138671875,-0.2206359705686569,0.5038987854421139,0.1410584937864449
2024-12-07 18:21:08.515645400,0.8336455078125,-0.3297580240666866,0.5462292761713265,0.1838407925369218
2024-12-07 18:21:08.525619500,0.843619384765625,-0.4499088365793228,0.5018161339491606,0.2406227467384189
2024-12-07 18:21:08.535593500,0.853593505859375,-0.4780670095711946,0.6078273619502782,0.3453073292456567
2024-12-07 18:21:08.545567500,0.8635673828125,-0.1902010482838377,0.5836036057978868,0.3902107026701792
2024-12-07 18:21:08.555540500,0.87354052734375,0.0067483052164316,0.6660562635570764,0.3602031389519572
2024-12-07 18:21:08.565514500,0.883514404296875,0.108734004028514,0.4833645314574241,0.3110022509966045
2024-12-07 18:21:08.575488500,0.893488525390625,-0.0156119220864027,0.3544850535660982,0.3537735442958772
2024-12-07 18:21:08.585462500,0.903462646484375,0.0250953513551503,0.2507370943218469,0.3565106045769527
2024-12-07 18:21:08.595436500,0.9134365234375,-0.0236941062550991,0.328000366744399,0.0703957247406244
2024-12-07 18:21:08.605410600,0.92341064453125,-0.3880745308917016,0.6044517480373383,0.0950761386193335
2024-12-07 18:21:08.615384600,0.933384521484375,-0.4424702110111713,0.6770856070935726,0.1066217611148953
2024-12-07 18:21:08.625358600,0.943358642578125,-0.425073597465083,0.7277922965019941,-0.4483969341790303
2024-12-07 18:21:08.635332600,0.95333251953125,-0.5395130465935916,0.9691133277028798,-0.9441546083394438
2024-12-07 18:21:08.645306600,0.963306640625,-0.5430483080476523,0.938933293494582,-1.13298681595549
2024-12-07 18:21:08.655280600,0.97328076171875,0.5074959331512451,0.2717962489634752,-0.99274744739905
2024-12-07 18:21:08.665254700,0.983254638671875,0.9646147741746156,-0.4566700012773275,-1.0227369274713098
2024-12-07 18:21:08.675228700,0.993228759765625,0.9079775987386705,-0.8795289183676243,-1.229743016616255
2024-12-07 18:21:08.685202700,1.00320263671875,0.8740005103349685,-1.2870207549780606,-1.0027138378791511
2024-12-07 18:21:08.695176700,1.0131767578125,0.3794833742875605,-1.3313579093545675,-0.1098156983179971
2024-12-07 18:21:08.705150700,1.023150634765625,-0.1046924735527485,-0.7284802787661552,0.9930598012838512
2024-12-07 18:21:08.715124500,1.03312451171875,-0.0646785161375999,-0.001850011780858,1.6904409582354127
2024-12-07 18:21:08.725099500,1.043099609375,0.1484949365306645,0.3436784128695726,1.7006785668723283
2024-12-07 18:21:08.735073500,1.053073486328125,0.258324261515215,0.3315291253924369,1.119231189260259
2024-12-07 18:21:08.745046500,1.063046630859375,0.1846575522799044,0.1782370907783508,0.6059693860586732
2024-12-07 18:21:08.755020500,1.0730205078125,0.241719675129652,0.1153507187545299,0.3036405996548011
2024-12-07 18:21:08.764994600,1.08299462890625,0.3108294517129659,0.1447346341490745,0.1321412561662495
2024-12-07 18:21:08.774968600,1.092968505859375,0.2300105326354503,0.115960375085473,-0.219465301087778
2024-12-07 18:21:08.784942600,1.102942626953125,0.1226777006417512,0.1359989545077085,-0.5070635330833494
2024-12-07 18:21:08.794916600,1.11291650390625,0.0720557669073343,0.1800461860269308,-0.4872375734984874
2024-12-07 18:21:08.804890600,1.122890625,0.0546405947912484,0.1586047540694475,-0.3056519577435218
2024-12-07 18:21:08.814864600,1.13286474609375,-0.0289460354339331,0.1205342588722705,-0.1661963599759154
2024-12-07 18:21:08.824838700,1.142838623046875,-0.2075719063341617,0.0778875418007373,-0.0173449381577782
2024-12-07 18:21:08.834812700,1.152812744140625,-0.423303665183112,0.0145382284402847,0.1303642730889841
2024-12-07 18:21:08.844786700,1.16278662109375,-0.6043037909340113,-0.0215916540831327,0.226710011519026
2024-12-07 18:21:08.854760700,1.1727607421875,-0.7150660128545016,0.0105289927989244,0.3418746879158541
2024-12-07 18:21:08.864734700,1.182734619140625,-0.7481435951352119,0.0903928031086921,0.4562653294665739
2024-12-07 18:21:08.874708700,1.192708740234375,-0.7690922751396894,0.1687467933773994,0.5651762244319543
2024-12-07 18:21:08.884682800,1.202682861328125,-0.7855296151995659,0.2578676768541336,0.6946181950442493
2024-12-07 18:21:08.894656800,1.21265673828125,-0.837960717247799,0.3036298955976962,0.8193952060528099
2024-12-07 18:21:08.904630800,1.222630859375,-0.9851706554692238,0.320691505035758,0.9183910753991454
2024-12-07 18:21:08.914604500,1.2326044921875,-1.0181389321565628,0.3038999447107315,0.9859120484210552
2024-12-07 18:21:08.924578600,1.24257861328125,-0.9868610927741974,0.2802636330574751,0.9303117417521776
2024-12-07 18:21:08.934551800,1.2525517578125,-0.909252879371494,0.3037228345781564,0.8584267283018678
2024-12-07 18:21:08.944525800,1.26252587890625,-0.8885960219204425,0.4263409139871597,0.7757997368890792
2024-12-07 18:21:08.954499800,1.272499755859375,-1.0186749387294054,0.6895388459533452,0.7686151591472328
2024-12-07 18:21:08.964473600,1.2824736328125,-1.3514870896697044,1.1162485932528972,0.7343759857412427
2024-12-07 18:21:08.974447600,1.292447509765625,-1.4759867450416086,1.6407348241716622,0.4352865465847775
2024-12-07 18:21:08.984421600,1.302421630859375,-1.6651251690626143,2.02327049870193,0.4923830100955441
2024-12-07 18:21:08.994395600,1.312395751953125,-1.772480066757649,2.186660733482241,0.728212640805915
2024-12-07 18:21:09.004369700,1.32236962890625,-1.7331350215800103,1.9731132598698136,0.901279708535224
2024-12-07 18:21:09.014343700,1.33234375,-1.4330343230217697,1.5620330433785914,1.0622101290732622
2024-12-07 18:21:09.024317700,1.342317626953125,-0.8112485783457756,0.9613613984018564,1.1001107475962488
2024-12-07 18:21:09.034291700,1.352291748046875,-0.0057819444023072,0.2525952894091606,0.8870297224517911
2024-12-07 18:21:09.044265500,1.362265380859375,0.8053501679569482,-0.2956523408472538,0.5433423590907827
2024-12-07 18:21:09.054239500,1.372239501953125,1.585919676531106,-0.6402981374442577,0.1913445192305371
2024-12-07 18:21:09.064213500,1.382213623046875,1.7294934502072632,-0.7446475697129964,-0.1354370828412473
2024-12-07 18:21:09.074187500,1.3921875,0.9668580961219966,-0.6444049882411956,-0.1546864846471697
2024-12-07 18:21:09.084161500,1.40216162109375,0.1432386965028941,-0.746250328734517,-0.0102117070106789
2024-12-07 18:21:09.094135600,1.412135498046875,-0.1772134468190372,-0.9811930570751428,-0.0673217241227626
2024-12-07 18:21:09.104109600,1.422109619140625,-0.3670071198783814,-1.219288696488738,-0.640971287465468
2024-12-07 18:21:09.114083600,1.43208349609375,-0.815565272501111,-1.4217664945542812,-1.4057210764214396
2024-12-07 18:21:09.124057600,1.4420576171875,-1.0214544864453374,-1.4891145221620796,-1.8823492853611707
2024-12-07 18:21:09.134030600,1.452030517578125,-0.8172368589751422,-1.5423855091005565,-2.066947435604036
2024-12-07 18:21:09.144004600,1.462004638671875,-0.2595245041504502,-1.5777642809957264,-2.0377695641756057
2024-12-07 18:21:09.153978600,1.471978515625,0.3895376622468233,-1.5423726496189831,-1.7662514015011488
2024-12-07 18:21:09.163952600,1.48195263671875,0.8658196880973875,-1.4560644854754208,-1.3714590335965156
2024-12-07 18:21:09.173926700,1.4919267578125,1.0209814621061086,-1.3417735049068926,-0.9491950867246836
2024-12-07 18:21:09.183900700,1.501900634765625,0.9894770474262536,-1.2082564303427934,-0.4734110369915142
2024-12-07 18:21:09.193874700,1.511874755859375,0.7942360687464475,-1.026709776625037,-0.0167114808261394
2024-12-07 18:21:09.203848700,1.5218486328125,0.4198844313241541,-0.7860042469739913,0.4068565709142014
2024-12-07 18:21:09.213822700,1.53182275390625,-0.0579787262380123,-0.5146802916973829,0.7376458011921495
2024-12-07 18:21:09.223796500,1.54179638671875,-0.4592524189859628,-0.4086889374405145,0.8645075825855135
2024-12-07 18:21:09.233770500,1.5517705078125,-0.6739367876738309,-0.4185176730155944,0.9134705701317638
2024-12-07 18:21:09.243744500,1.56174462890625,-0.7908319593913853,-0.3548872046262025,0.9715741648584604
2024-12-07 18:21:09.253718500,1.571718505859375,-1.0957369894914328,-0.4662468079179525,0.9038247899081556
2024-12-07 18:21:09.263692500,1.581692626953125,-1.209865034583211,-0.7181511924535036,0.8183157402530312
2024-12-07 18:21:09.273666600,1.59166650390625,-1.089147674228996,-0.9650421327412128,0.8365915477864444
2024-12-07 18:21:09.283640600,1.601640625,-0.937684170216322,-1.2988865493386983,0.7300259007729589
2024-12-07 18:21:09.293614600,1.611614501953125,-0.8328283958606422,-1.593429467639327,0.6011043738381937
2024-12-07 18:21:09.303588600,1.621588623046875,-0.6491114123664796,-1.555946416941285,0.6459648579690606
2024-12-07 18:21:09.313561600,1.6315615234375,-0.622667788207531,-1.3507967693179843,0.6862447728440165
2024-12-07 18:21:09.323535600,1.64153564453125,-1.055200542572141,-1.1212281352311373,0.6822906283907592
2024-12-07 18:21:09.333509600,1.651509521484375,-1.6526894658595324,-0.9484732752561568,0.6139556355722248
2024-12-07 18:21:09.343483600,1.661483642578125,-1.93687860179767,-0.8006114489972591,0.5881908605229109
2024-12-07 18:21:09.353457700,1.671457763671875,-1.94431956545338,-0.8220254084259271,0.557769528372027
2024-12-07 18:21:09.363431700,1.681431640625,-1.975962073429674,-0.8410445816725493,0.5294200340591371
2024-12-07 18:21:09.373405700,1.69140576171875,-1.9293693952113389,-0.6983914299726486,0.4215991262875497
2024-12-07 18:21:09.383379700,1.701379638671875,-1.8910026935465631,-0.580919481280446,0.2203290600439533
2024-12-07 18:21:09.393353700,1.711353759765625,-1.8584722968198355,-0.4445470172852278,0.0534603354981169
2024-12-07 18:21:09.403327700,1.72132763671875,-1.896550829192996,-0.1214127952724695,-0.0690905604261905
2024-12-07 18:21:09.413301800,1.7313017578125,-2.1035294458091256,0.4272697192698717,-0.0161475998656824
2024-12-07 18:21:09.423275800,1.74127587890625,-2.36274342270568,0.8803957643300294,0.0415001043196767
2024-12-07 18:21:09.433249800,1.751249755859375,-1.4545290926016867,1.1879191602349282,-0.1208761676451191
2024-12-07 18:21:09.443223800,1.761223876953125,0.5727823520541191,1.3908926328629254,-0.5650390444509684
2024-12-07 18:21:09.453197800,1.77119775390625,2.474484572660923,1.4504291099369524,-1.0054913397684693
2024-12-07 18:21:09.463171800,1.781171875,3.3362598076730965,1.391950617483258,-0.954111719534546
2024-12-07 18:21:09.473145600,1.7911455078125,2.485909052994847,1.1304507216066122,-0.5987222644746303
2024-12-07 18:21:09.483119600,1.80111962890625,0.3675134619653225,0.6615396629154682,-0.0932612346844747
2024-12-07 18:21:09.493093600,1.81109375,-1.1181037926655262,0.2286240467131137,0.5731825303528457
2024-12-07 18:21:09.503067600,1.821067626953125,-1.0603877359516918,-0.2561801621586084,0.8995726123563945
2024-12-07 18:21:09.513040600,1.83104052734375,0.045215106254816,-0.7398533211737871,0.6756796858184039
2024-12-07 18:21:09.523014700,1.8410146484375,0.9202268394589423,-1.2521867574840784,-0.0653027855157852
2024-12-07 18:21:09.532988700,1.85098876953125,1.147829872561246,-1.2424579751521347,-0.8432960869263857
2024-12-07 18:21:09.542962400,1.86096240234375,0.6620312458246946,-0.676305270370841,-1.1697240167222915
2024-12-07 18:21:09.552936400,1.8709365234375,0.1995120070625096,0.1884633012384176,-0.8899280742418021
2024-12-07 18:21:09.562910500,1.880910400390625,0.386980232848972,0.7359101365059614,-0.6581950286626815
2024-12-07 18:21:09.572884500,1.890884521484375,0.8401829964071512,0.7715934443056583,-0.6881453457683324
2024-12-07 18:21:09.582858500,1.9008583984375,1.1221417429447174,0.5634194804251194,-0.7345575528532267
2024-12-07 18:21:09.592832500,1.91083251953125,1.2472196365959942,0.3591980535626411,-0.7350460670225322
2024-12-07 18:21:09.602806500,1.920806640625,1.1324058011971414,0.2932739212781191,-0.6479742980953306
2024-12-07 18:21:09.612780500,1.930780517578125,0.8702611776761711,0.3974164327979088,-0.4087548057509585
2024-12-07 18:21:09.622754600,1.940754638671875,0.9697768331129104,0.5523410370498896,0.032038795551192
2024-12-07 18:21:09.632728600,1.950728515625,1.4298182835847135,0.5445569590449333,0.3721365186560899
2024-12-07 18:21:09.642702600,1.96070263671875,1.5221557910203931,0.4746230065971613,0.6287093333940953
2024-12-07 18:21:09.652676600,1.970676513671875,1.1646231864519416,0.4478022196888923,0.8524392513900995
2024-12-07 18:21:09.662650600,1.980650634765625,0.8831284772295505,0.4496171601563691,0.8879635692358017
2024-12-07 18:21:09.672624600,1.990624755859375,0.9862463218767196,0.2577408356040716,0.4678001017745584
2024-12-07 18:21:09.682598700,2.0005986328125,1.1369514087375252,0.0177560214430093,-0.0076799052444286
2024-12-07 18:21:09.692572700,2.01057275390625,1.0539064111083745,0.0148895260959863,-0.1521330373046919
2024-12-07 18:21:09.702545700,2.020545654296875,0.7582265977323055,0.052082069414854,-0.1580658979523926
2024-12-07 18:21:09.712519700,2.030519775390625,0.7468434723220765,0.1738479159086942,0.0041136823965236
2024-12-07 18:21:09.722493700,2.04049365234375,0.8749240549206733,0.4226917438298463,0.2242024674111977
2024-12-07 18:21:09.732467000,2.050467041015625,0.8694992533929645,0.5757002853274346,0.3188501514853909
2024-12-07 18:21:09.742441000,2.06044091796875,0.7933464994955808,0.635446605759859,0.3728513158619403
2024-12-07 18:21:09.752415000,2.0704150390625,0.604191708861664,0.6065571958839893,0.4930103847462683
2024-12-07 18:21:09.762389000,2.080388916015625,0.4118968666363507,0.3736503572851419,0.503910256684199
2024-12-07 18:21:09.772363000,2.090363037109375,0.5223655855029821,0.1767547432661056,0.5675890211947262
2024-12-07 18:21:09.782337000,2.1003369140625,0.7134866347085684,0.1399456463068723,0.6744672412887215
2024-12-07 18:21:09.792311000,2.11031103515625,0.9350701883256436,0.1212654957562685,0.744486241671443
2024-12-07 18:21:09.802285000,2.12028515625,1.089860937064886,-0.0001525602132081,0.7460900966715067
2024-12-07 18:21:09.812259000,2.130259033203125,1.111968797041848,-0.1575941157221794,0.6505760050263255
2024-12-07 18:21:09.822233000,2.140233154296875,1.032869979755208,-0.3416664885252714,0.5429871524449438
2024-12-07 18:21:09.832206800,2.150206787109375,0.9463233306806534,-0.3983861546128988,0.3814761555399745
2024-12-07 18:21:09.842180900,2.160180908203125,0.6295248144954443,-0.2384790857732296,0.2261174707196653
2024-12-07 18:21:09.852155000,2.17015478515625,0.2864737032113597,0.0680921239733696,0.1528214305608067
2024-12-07 18:21:09.862129000,2.18012890625,0.2276379948178306,0.3273983091980219,0.1230636494857259
2024-12-07 18:21:09.872103000,2.19010302734375,0.3945955301582813,0.4909364280164242,0.1338851863572839
2024-12-07 18:21:09.882077000,2.200076904296875,0.606098930722475,0.5079600435316562,0.1773465351467952
2024-12-07 18:21:09.892050000,2.2100498046875,0.5893489079842343,0.3798398595750332,0.1564438679748214
2024-12-07 18:21:09.902024000,2.22002392578125,0.2832149571437388,0.2048088713616132,0.0874809525162912
2024-12-07 18:21:09.911998000,2.229998046875,-0.0912234087139368,0.0764122085511684,0.0849568134666886
2024-12-07 18:21:09.921972000,2.239971923828125,-0.3470043424218892,-0.0237602302938699,0.1310056488655973
2024-12-07 18:21:09.931945700,2.24994580078125,-0.5675456204444169,-0.0309586173653602,0.2140819823479279
2024-12-07 18:21:09.941919700,2.259919677734375,-0.7210363925009965,-0.02872106757164,0.2395885265861637
2024-12-07 18:21:09.951893800,2.269893798828125,-0.7859609923541545,-0.0652314738452434,0.1623800896233879
2024-12-07 18:21:09.961867800,2.27986767578125,-0.8329933771640062,-0.1358212598532438,0.0371146375107578
2024-12-07 18:21:09.971841800,2.289841796875,-0.9942021762520076,-0.2093570361852645,-0.0611576759345363
2024-12-07 18:21:09.981815800,2.29981591796875,-1.2459960861504078,-0.2239046169757843,-0.0824297700739465
2024-12-07 18:21:09.991789800,2.309789794921875,-1.4832693032652138,-0.2249970883876085,0.0378267130365595
2024-12-07 18:21:10.001763800,2.319763916015625,-1.4849644167453049,-0.1873608929544687,0.3015236440334469
2024-12-07 18:21:10.011737900,2.32973779296875,-1.3080723108351229,-0.1328255851686,0.6465591706003994
2024-12-07 18:21:10.021712000,2.3397119140625,-1.112578380307555,-0.1243687224686145,0.9963421839553862
2024-12-07 18:21:10.031686000,2.349685791015625,-0.9100193336993456,-0.0801432117730379,1.2903401086591184
2024-12-07 18:21:10.041660000,2.359659912109375,-0.6162737032562494,0.0040174189478158,1.4965017098039388
2024-12-07 18:21:10.051634000,2.369634033203125,-0.3544003344247117,0.1559042629390954,1.5648603757590054
2024-12-07 18:21:10.061608000,2.37960791015625,-0.1031961705803871,0.3818172971278429,1.5714046828359365
2024-12-07 18:21:10.071581000,2.389580810546875,-0.0072550491621717,0.6922171252518892,1.523631416530907
2024-12-07 18:21:10.081555000,2.399554931640625,-0.0861445345470681,0.9496212762475014,1.404800746706128
2024-12-07 18:21:10.091529000,2.409529052734375,-0.2334223686392419,1.0161959813952446,1.2441703320279718
2024-12-07 18:21:10.101503000,2.4195029296875,-0.4460147517502307,1.1416583443194628,1.0341126732926815
2024-12-07 18:21:10.111477000,2.42947705078125,-0.5449994055828079,1.195129237744212,0.8013280728340149
2024-12-07 18:21:10.121451000,2.439450927734375,-0.5135872357636689,1.0782225217193364,0.5128096024546772
2024-12-07 18:21:10.131425000,2.449425048828125,-0.3949830316385254,0.7201514263600111,0.3072033701702952
2024-12-07 18:21:10.141398800,2.459398681640625,-0.2107446546187624,0.2087438727229833,0.1783155993746593
2024-12-07 18:21:10.151372800,2.469372802734375,-0.0770113434880971,-0.2786129432410001,0.1117322725290432
2024-12-07 18:21:10.161346800,2.479346923828125,-0.1670551504960283,-0.6539104832112789,0.062834787967056
2024-12-07 18:21:10.171320800,2.48932080078125,-0.4958616825241595,-0.826843037840724,0.0737957424424588
2024-12-07 18:21:10.181294800,2.499294921875,-0.8314093228429555,-0.7286281628042459,0.0891133760237135
2024-12-07 18:21:10.191268900,2.509268798828125,-1.0387176098048687,-0.3647878363937139,0.0287214876967482
2024-12-07 18:21:10.201243000,2.519242919921875,-1.2877508228182792,0.1925304045468568,-0.1301281262455508
2024-12-07 18:21:10.211217000,2.529216796875,-1.7543080118596552,0.7675035446435212,-0.4666149471106007
2024-12-07 18:21:10.221191000,2.53919091796875,-2.395408113336563,1.314112760043144,-0.835565931065753
2024-12-07 18:21:10.231165000,2.5491650390625,-3.0550147623628376,1.7516256409078836,-1.1720516559522598
2024-12-07 18:21:10.241139000,2.559138916015625,-3.560678803911805,1.9124808042526245,-1.4373400573916733
2024-12-07 18:21:10.251113000,2.569113037109375,-3.4424405470222235,1.8500544509559869,-1.850462301104516
2024-12-07 18:21:10.261087000,2.5790869140625,-2.5442028365314004,1.4047043005943298,-2.595012694053352
2024-12-07 18:21:10.271060000,2.58906005859375,-1.011230467942357,0.7739245176017284,-3.1554379610985515
2024-12-07 18:21:10.281034000,2.599033935546875,1.2615396922409534,0.2897890017718076,-3.132357822023332
2024-12-07 18:21:10.291008000,2.609008056640625,3.564945813706517,0.0528296729117631,-2.611618960939348
2024-12-07 18:21:10.300982000,2.61898193359375,4.246086833670735,0.2105301716178655,-1.76105529416278
2024-12-07 18:21:10.310956000,2.6289560546875,3.978667484617233,0.5588754072546959,-0.7631029715970158
2024-12-07 18:21:10.320930000,2.638929931640625,3.036492432722449,0.9007733664482832,0.1970642851168289
2024-12-07 18:21:10.330904000,2.648904052734375,1.2467886978328226,1.1735247241795062,0.9705574620965868
2024-12-07 18:21:10.340878000,2.658878173828125,-0.7584959161929786,1.4552613523989917,1.1295778842948376
2024-12-07 18:21:10.350852000,2.66885205078125,-1.6372900905452668,1.6472715324640272,0.5865603367116302
2024-12-07 18:21:10.360826000,2.678826171875,-1.117563767504692,1.3934662827432154,-0.1942094436749815
2024-12-07 18:21:10.370800000,2.688800048828125,-0.3307658859349787,0.6596779606968164,-0.8068477130383253
2024-12-07 18:21:10.380774100,2.698774169921875,0.3245522721171379,-0.1204325520634651,-0.8938476588383316
2024-12-07 18:21:10.390748000,2.708747802734375,0.7065935872592032,-0.7419973474651574,-0.7576952673345804
2024-12-07 18:21:10.400722000,2.718721923828125,0.928005802897364,-1.2460510312080382,-0.7520321270063519
2024-12-07 18:21:10.410696000,2.728696044921875,1.090153782531619,-1.6163263591021295,-0.826368259935826
2024-12-07 18:21:10.420670000,2.738669921875,1.1657027983821928,-1.839964434096217,-0.8174817005816847
2024-12-07 18:21:10.430644000,2.74864404296875,1.105688766924292,-1.9509253934592008,-0.7092131221078336
2024-12-07 18:21:10.440617700,2.75861767578125,1.1500047323822975,-1.9453215821027752,-0.521747599735111
2024-12-07 18:21:10.450591700,2.768591796875,1.1382786387532948,-1.9527052626132964,-0.3646729413097724
2024-12-07 18:21:10.460564700,2.778564697265625,0.7738274869680404,-1.8608049775511024,-0.2062100799290463
2024-12-07 18:21:10.470538800,2.788538818359375,0.275758868984133,-1.7048872706085445,-0.1549935413023457
2024-12-07 18:21:10.480512800,2.7985126953125,-0.1859266223676502,-1.6401953104674816,-0.2077718493530526
2024-12-07 18:21:10.490486800,2.80848681640625,-0.6392267088204622,-1.6097569175839423,-0.2324623827669769
2024-12-07 18:21:10.500460800,2.818460693359375,-1.0872351186059417,-1.8293875105023385,-0.2274064510842785
2024-12-07 18:21:10.510434800,2.828434814453125,-1.2461825486332176,-2.056014245918393,-0.0248225988283753
2024-12-07 18:21:10.520408800,2.838408935546875,-1.2182710438787936,-2.177567910966277,0.1330168334243819
2024-12-07 18:21:10.530382800,2.8483828125,-1.0947688751116391,-2.154728302648663,0.2835039301529526
2024-12-07 18:21:10.540356900,2.85835693359375,-0.9402677569687364,-2.007843796989321,0.4744853151595219
2024-12-07 18:21:10.550331000,2.868330810546875,-0.7897364192396402,-1.7725263901174066,0.8285119209010153
2024-12-07 18:21:10.560305000,2.878304931640625,-0.6430927365988492,-1.5026234075546263,1.297313308672607
2024-12-07 18:21:10.570279000,2.88827880859375,-0.6142442432552576,-1.269330784508586,1.7295158081695436
2024-12-07 18:21:10.580253000,2.8982529296875,-0.6449046083264053,-1.0212982729703188,2.098039470090717
2024-12-07 18:21:10.590227000,2.90822705078125,-0.8646265327900647,-0.7455711142987013,2.279865086880326
2024-12-07 18:21:10.600201000,2.918200927734375,-1.3491599618963896,-0.5300543864399194,2.305208786973357
2024-12-07 18:21:10.610175000,2.928175048828125,-1.802264964168519,-0.6186363407343626,1.933727590420842
2024-12-07 18:21:10.620149000,2.93814892578125,-1.9252298111885784,-0.9946294617533684,1.09003074067384
2024-12-07 18:21:10.630123000,2.948123046875,-1.7232482722073792,-1.1475006406068802,0.3754907244548201
2024-12-07 18:21:10.640096000,2.958095947265625,-1.090103513649106,-0.8939952506154775,-0.1730504453880712
2024-12-07 18:21:10.650070000,2.968070068359375,-0.3762989720977842,-0.3639449558287859,-0.4904891226403415
2024-12-07 18:21:10.660044000,2.9780439453125,-0.0301420402854681,0.3661708151847124,-0.6841070301629603
2024-12-07 18:21:10.670018000,2.98801806640625,0.2221235787779092,1.3147183247208594,-0.8566974202912301
2024-12-07 18:21:10.679992000,2.997991943359375,0.8145793302036821,2.35171685564816,-0.8843393873892724
2024-12-07 18:21:10.689966000,3.007966064453125,1.508671601677686,3.3195471578031777,-0.9537140985190868
2024-12-07 18:21:10.699939800,3.01793994140625,1.973669870839268,4.020192504182457,-1.1944603985719382
2024-12-07 18:21:10.709913900,3.027913818359375,1.820612229502946,4.217394992193579,-1.3449683554254472
2024-12-07 18:21:10.719888000,3.037887939453125,1.198706511709094,3.7953345320045946,-1.302551793847978
2024-12-07 18:21:10.729861600,3.047861572265625,0.686071315973252,2.486523385500908,-0.9602354631118476
2024-12-07 18:21:10.739835600,3.057835693359375,0.4313270318366587,0.9404232397913932,-0.5032231877354905
2024-12-07 18:21:10.749809700,3.0678095703125,0.1549405324734747,-0.3525222290605306,-0.4506208573061973
2024-12-07 18:21:10.759783700,3.07778369140625,-0.1878342826198786,-1.4596119488239288,-0.9671693540282548
2024-12-07 18:21:10.769757400,3.08775732421875,-0.4847672378621995,-2.364012273597717,-2.0817767559453846
2024-12-07 18:21:10.779731500,3.0977314453125,-0.6028625791497528,-2.8190578885436057,-3.211959474265575
2024-12-07 18:21:10.789705500,3.10770556640625,-0.3242430600374937,-2.7304385248482226,-4.053460567533969
2024-12-07 18:21:10.799679500,3.117679443359375,-0.0308411284655332,-2.214182946658134,-4.195185498473048
2024-12-07 18:21:10.809653500,3.127653564453125,0.3738407652907073,-1.291745445412397,-3.2523195417046544
2024-12-07 18:21:10.819626500,3.13762646484375,0.7709060465633869,-0.1336211194604635,-1.720735850995034
2024-12-07 18:21:10.829600500,3.1476005859375,1.1692086145460605,0.8589671918541193,-0.3088089787360281
2024-12-07 18:21:10.839574500,3.157574462890625,1.6008564027696848,1.4476783499240875,0.9673293668955564
2024-12-07 18:21:10.849548500,3.167548583984375,2.011402366253733,1.6545312943339348,1.881682199754566
2024-12-07 18:21:10.859522600,3.1775224609375,2.2918150523930785,1.629985466620326,2.5253537591546773
2024-12-07 18:21:10.869496600,3.18749658203125,2.123588045106083,1.4287708203583955,2.947268965654075
2024-12-07 18:21:10.879470600,3.197470703125,1.613445396838337,1.0171282938092947,3.0574747227355834
2024-12-07 18:21:10.889444600,3.207444580078125,1.031983479244262,0.3738181150674819,2.935549301765859
2024-12-07 18:21:10.899418600,3.217418701171875,0.8533558547783643,-0.464108626845479,2.29090816668123
2024-12-07 18:21:10.909392600,3.227392578125,0.994928736960888,-1.1175210974067449,1.305127489554882
2024-12-07 18:21:10.919366700,3.23736669921875,1.0294745651632546,-1.3293214350908993,0.3298133709831163
2024-12-07 18:21:10.929340700,3.247340576171875,0.851000816084817,-1.2219903566628694,-0.4941449782667681
2024-12-07 18:21:10.939314700,3.257314697265625,0.5296546465326101,-0.8454489541113376,-0.990761972670257
2024-12-07 18:21:10.949288700,3.267288818359375,-0.0260111510258167,-0.2681716287255287,-1.1751738796260207
2024-12-07 18:21:10.959262700,3.2772626953125,-0.7868184859663248,0.3425760045856237,-1.2042126348447053
2024-12-07 18:21:10.969236700,3.28723681640625,-1.2412743183255197,0.9077923052996396,-1.0832183572452514
2024-12-07 18:21:10.979210500,3.29721044921875,-1.1989805794101207,1.3016314641326665,-0.8880508091278374
2024-12-07 18:21:10.989184500,3.3071845703125,-0.6070013594549148,1.3353764973461628,-0.6927844768110663
2024-12-07 18:21:10.999158500,3.317158447265625,0.2690233501840383,1.0209311932235956,-0.6073686949299648
2024-12-07 18:21:11.009131800,3.3271318359375,0.9776075998038052,0.614640549096465,-0.5960835500014946
2024-12-07 18:21:11.019105800,3.337105712890625,1.319251291975379,0.292615749630332,-0.5569798758316785
2024-12-07 18:21:11.029079600,3.34707958984375,1.2344406729131936,0.2096405293017625,-0.5507594669468701
2024-12-07 18:21:11.039053600,3.357053466796875,0.8050567379683256,0.4041963021963835,-0.5650338568191975
2024-12-07 18:21:11.049027600,3.367027587890625,0.4115770600974559,0.6326186888575553,-0.4422887169644236
2024-12-07 18:21:11.059001600,3.377001708984375,0.3534884437441826,0.7846803048938512,-0.1550531625350937
2024-12-07 18:21:11.068975600,3.3869755859375,0.4392851512342691,0.8125240051090716,0.2352671379894018
2024-12-07 18:21:11.078949600,3.39694970703125,0.614345950064063,0.6650877107858657,0.5936717030867934
2024-12-07 18:21:11.088923600,3.406923583984375,0.8308546846348792,0.3250578835517168,0.8771231724001467
2024-12-07 18:21:11.098897700,3.416897705078125,0.852943693780899,-0.0750777450770139,0.9817956260781736
2024-12-07 18:21:11.108871700,3.42687158203125,0.6600052929550408,-0.362118909445405,0.9879424582701176
2024-12-07 18:21:11.118845700,3.436845703125,0.5944137901583686,-0.5257622422039508,1.0320249802984296
2024-12-07 18:21:11.128819700,3.44681982421875,0.4620896882385015,-0.558224249869585,0.933934973750636
2024-12-07 18:21:11.138793700,3.456793701171875,0.0802997905742377,-0.4937111534267663,0.7169923047419637
2024-12-07 18:21:11.148767700,3.466767822265625,-0.3048737581789493,-0.4192062398016452,0.477104009757936
2024-12-07 18:21:11.158741800,3.47674169921875,-0.6262275265157222,-0.3164478761166334,0.3599176365414634
2024-12-07 18:21:11.168715800,3.4867158203125,-0.6348831266582012,-0.211023508092761,0.3512064702868461
2024-12-07 18:21:11.178689800,3.496689697265625,-0.3691243677606806,-0.0476087233930826,0.5348645632006228
2024-12-07 18:21:11.188663800,3.506663818359375,-0.1888718820393085,-0.0181494046747684,0.739350413152948
2024-12-07 18:21:11.198636500,3.516636474609375,-0.1832347529351711,-0.1201402911186218,0.8098379078302532
2024-12-07 18:21:11.208610600,3.526610595703125,-0.2477887476439587,-0.2292003852963447,0.8224299706388264
2024-12-07 18:21:11.218584600,3.53658447265625,-0.278605965510942,-0.3207622321844101,0.7908181500617414
2024-12-07 18:21:11.228558600,3.54655859375,-0.415047987611033,-0.3126806325376033,0.6977627036150544
2024-12-07 18:21:11.238532600,3.55653271484375,-0.6737018098741769,-0.2021428670227527,0.5862053492614999
2024-12-07 18:21:11.248506600,3.566506591796875,-0.8055342923521995,-0.0364466933876276,0.413864440382272
2024-12-07 18:21:11.258480600,3.576480712890625,-0.7872060239791869,0.1175076045274734,0.3143566029258072
2024-12-07 18:21:11.268454700,3.58645458984375,-0.7964356246173381,0.0972328782618045,0.2175490739366039
2024-12-07 18:21:11.278428700,3.5964287109375,-0.7422527835309505,-0.005234978044033,0.1924046227427199
2024-12-07 18:21:11.288402400,3.60640234375,-0.6408487570643424,-0.1073199725121259,0.2398309935725294
2024-12-07 18:21:11.298376400,3.61637646484375,-0.6180488962352275,-0.1965986768990755,0.1934654021083377
2024-12-07 18:21:11.308350500,3.6263505859375,-0.4960702837735414,-0.2395265489995479,0.107956644714158
2024-12-07 18:21:11.318324500,3.636324462890625,-0.4541320072323083,-0.2376198385953903,-0.0372541190466843
2024-12-07 18:21:11.328298500,3.646298583984375,-0.5508517118075862,-0.1245119303315877,-0.0989398283101618
2024-12-07 18:21:11.338272500,3.6562724609375,-0.5406518048325554,0.0795481684893369,-0.0192777876501902
2024-12-07 18:21:11.348246500,3.66624658203125,-0.4753747382799163,0.2001186677187681,0.274027076755464
2024-12-07 18:21:11.358220500,3.676220458984375,-0.4106465012490749,0.1717424680620431,0.6529298746760934
2024-12-07 18:21:11.368194600,3.686194580078125,-0.2411865546336397,0.1130985559135675,1.02298374183923
2024-12-07 18:21:11.378167600,3.69616748046875,-0.2190677348712459,0.1584001714080572,1.232299715361744
2024-12-07 18:21:11.388141600,3.7061416015625,-0.17291973168049,0.2634177121967077,1.3493304961577055
2024-12-07 18:21:11.398115600,3.716115478515625,-0.0912490911444649,0.3700771749734878,1.3547285558089612
2024-12-07 18:21:11.408089600,3.726089599609375,-0.1217523659577593,0.4364069654494524,1.1762842520207166
2024-12-07 18:21:11.418063600,3.736063720703125,-0.1774596401324495,0.4350315854430198,1.0308879390925167
2024-12-07 18:21:11.428037600,3.74603759765625,-0.2582113391926512,0.4498158975988626,0.9266942819073796
2024-12-07 18:21:11.438011600,3.75601171875,-0.3639986953100189,0.551288313126564,0.8809969450935721
2024-12-07 18:21:11.447985700,3.765985595703125,-0.4605494365265593,0.6917267113864422,0.7931564568161964
2024-12-07 18:21:11.457959700,3.775959716796875,-0.4298579091321676,0.7978770555973053,0.7734383415199816
2024-12-07 18:21:11.467933700,3.78593359375,-0.2510638420581818,0.7781015110254287,0.7644128851518035
2024-12-07 18:21:11.477907700,3.79590771484375,-0.0249695695510134,0.7216922260612249,0.8203111518539488
2024-12-07 18:21:11.487881700,3.8058818359375,0.184412016553618,0.4830594110310077,0.7746173221714794
2024-12-07 18:21:11.497855700,3.815855712890625,0.4083258762817829,0.2119359467625617,0.6892457082256674
2024-12-07 18:21:11.507829800,3.825829833984375,0.4948533091992139,0.0165063136428594,0.5610807718118652
2024-12-07 18:21:11.517803800,3.8358037109375,0.4163268119078129,0.0166717333376407,0.3664259589895606
2024-12-07 18:21:11.527777800,3.84577783203125,0.1686830804914236,0.2250263144820928,0.07576466789525
2024-12-07 18:21:11.537751600,3.85575146484375,-0.2799035675734281,0.5999281331330537,-0.2807586500328034
2024-12-07 18:21:11.547725600,3.8657255859375,-0.7701251253187656,1.0159259322822094,-0.6078964451311156
2024-12-07 18:21:11.557698800,3.87569873046875,-1.4065969824731348,1.3174673311680554,-0.8928928423315287
2024-12-07 18:21:11.567672800,3.8856728515625,-2.084025850046426,1.467399533960223,-1.1208819521419704
2024-12-07 18:21:11.577646800,3.895646728515625,-2.673140766611695,1.5925824954211711,-1.085049810456112
2024-12-07 18:21:11.587620600,3.90562060546875,-3.014679244843125,1.4882693035095929,-0.9451425233982504
2024-12-07 18:21:11.597594600,3.9155947265625,-3.1409935484215614,1.1635013428151606,-0.8637950504019856
2024-12-07 18:21:11.608191700,3.926191650390625,-3.0481273409366607,0.7307213356912136,-0.8959140167836099
2024-12-07 18:21:11.618165800,3.936165771484375,-2.612251121363044,0.5879127011686563,-0.8861428566146642
2024-12-07 18:21:11.628139800,3.946139892578125,-2.264088841077686,0.6837532482892275,-0.9317115986127406
2024-12-07 18:21:11.638113800,3.95611376953125,-1.781233428186178,0.6439531528204679,-1.2594159780852496
2024-12-07 18:21:11.648087800,3.966087890625,-1.0322587890543042,0.3795779937684536,-2.0715216116517783
2024-12-07 18:21:11.658061800,3.976061767578125,0.1940712042480707,0.2547118431717157,-2.567474114264548
2024-12-07 18:21:11.668035800,3.986035888671875,2.137041254788637,0.2562695940077305,-2.436546179410815
2024-12-07 18:21:11.678009600,3.996009521484375,4.083740262724459,0.2518646370470523,-1.948786043342948
2024-12-07 18:21:11.687983600,4.005983642578125,5.388085369729995,0.2792009722620248,-1.0319698891103266
2024-12-07 18:21:11.697957600,4.01595751953125,5.744790437433124,0.3117512427330017,-0.0104218791626393
2024-12-07 18:21:11.707931400,4.025931396484375,4.372826961445808,0.2979144405603409,0.9350035528302192
2024-12-07 18:21:11.717905400,4.035905517578125,1.8437433681130408,0.3848959739208221,1.6776359833285213
2024-12-07 18:21:11.727879700,4.045879638671875,-0.3426806340038776,0.621143939641118,1.689077268666774
2024-12-07 18:21:11.737852700,4.055852783203125,-1.139128825841844,0.6275181508481502,0.8512249071642756
2024-12-07 18:21:11.747826700,4.06582666015625,-0.364554612159729,0.0360609089404344,-0.198193106483668
2024-12-07 18:21:11.757800700,4.07580078125,0.8514712831407785,-0.8264309499084949,-1.0515531990457323
2024-12-07 18:21:11.767774500,4.0857744140625,1.6671388469725843,-1.713261715722084,-1.5647275431595742
2024-12-07 18:21:11.777748500,4.09574853515625,1.7631334156110885,-2.352613512226939,-1.668010953631997
2024-12-07 18:21:11.787722500,4.105722412109375,1.4327262799859046,-2.767884750667214,-1.6047677309945223
2024-12-07 18:21:11.797696500,4.115696533203125,0.953691302165389,-3.0436925733596083,-1.5747916949257257
2024-12-07 18:21:11.807670500,4.12567041015625,0.6470590098813176,-3.251667215275764,-1.6426532250136137
2024-12-07 18:21:11.817644500,4.13564453125,0.5401613544344902,-3.362178677305579,-1.6341712278723717
2024-12-07 18:21:11.827618600,4.14561865234375,0.5893897879838943,-3.217537566658854,-1.507996917286515
2024-12-07 18:21:11.837592600,4.155592529296875,0.6694514589533209,-2.8350264420479534,-1.1563815739378331
2024-12-07 18:21:11.847566600,4.165566650390625,0.5359440290004015,-2.444253100526333,-0.668456821892783
2024-12-07 18:21:11.857540600,4.17554052734375,0.146783383372426,-2.1447820781737565,-0.194989378538914
2024-12-07 18:21:11.867514600,4.1855146484375,-0.5575362676054239,-1.9954075092643493,-0.0833536617195233
2024-12-07 18:21:11.877488600,4.195488525390625,-1.260114481743425,-1.921500561532378,-0.3531402148284018
2024-12-07 18:21:11.887462700,4.205462646484375,-1.7911759993992744,-1.6574574109137057,-0.4450192744394764
2024-12-07 18:21:11.897436700,4.215436767578125,-2.3601650966502725,-1.1008902806013825,-0.228250190165732
2024-12-07 18:21:11.907410700,4.22541064453125,-2.85099733363986,-0.3751280286222696,0.1834900976694189
2024-12-07 18:21:11.918006800,4.2360068359375,-2.956715131652355,0.3813426653534174,0.68089975855425
2024-12-07 18:21:11.927980500,4.24598046875,-2.6187621106922623,1.1008382581532,1.256488254070282
2024-12-07 18:21:11.937954600,4.25595458984375,-1.956304310018569,1.6278116297125815,1.5958791988790035
2024-12-07 18:21:11.947928600,4.265928466796875,-1.2541175794161856,2.0666917072772977,1.7583171013705432
2024-12-07 18:21:11.957902600,4.275902587890625,-0.7412257785707712,2.391517535638809,1.827014643891156
2024-12-07 18:21:11.967876600,4.285876708984375,-0.5287117396593094,2.486546766376496,1.6515613386124373
2024-12-07 18:21:11.977850600,4.2958505859375,-0.4634079312302172,2.405989713105559,1.2964962932012976
2024-12-07 18:21:11.987824600,4.30582470703125,0.1231396190650761,1.8867559958875173,0.5051380814461037
2024-12-07 18:21:11.997798700,4.315798583984375,0.9328012204803526,1.0027028780937195,-0.4049553404027596
2024-12-07 18:21:12.007772700,4.325772705078125,1.2958262849852442,0.1605225703895091,-1.5197602741859852
2024-12-07 18:21:12.017746700,4.33574658203125,1.137790709105879,-0.4793208090245723,-2.974192628414929
2024-12-07 18:21:12.027720700,4.345720703125,0.6847482506759465,-0.8283961125016212,-4.168372894871235
2024-12-07 18:21:12.037694700,4.35569482421875,0.3312878639824688,-0.8532768712580203,-4.416924754108488
2024-12-07 18:21:12.047668700,4.365668701171875,0.2382752337642014,-0.7787871552020311,-3.7117093233346936
2024-12-07 18:21:12.057642800,4.375642822265625,0.2512609720654785,-0.6538192977964877,-2.313197593770176
2024-12-07 18:21:12.067616800,4.38561669921875,0.4362948103118688,-0.536008326408267,-0.9041819327827544
2024-12-07 18:21:12.077590800,4.3955908203125,0.7690379146039485,-0.3422369818896055,0.4625198232840746
2024-12-07 18:21:12.087564800,4.405564697265625,0.9588894553303718,0.0462210684269666,1.5773365571029483
2024-12-07 18:21:12.097538800,4.415538818359375,0.958283379196003,0.411951738628745,2.3932709551773965
2024-12-07 18:21:12.107511800,4.42551171875,1.0065870260506868,0.6006184534847736,2.745881885434687
2024-12-07 18:21:12.117485800,4.43548583984375,1.1831102986484765,0.6122112761229276,2.562618198665976
2024-12-07 18:21:12.127459800,4.4454599609375,1.2825146757304668,0.5170236399531364,2.116669205628335
2024-12-07 18:21:12.137433900,4.455433837890625,1.098652730807662,0.3276946617960929,1.646089044681191
2024-12-07 18:21:12.147408000,4.465407958984375,0.7112385635208338,0.121741881096363,1.167858588176593
2024-12-07 18:21:12.157382000,4.4753818359375,0.2973112870354205,-0.0613578472822904,0.6809246007345616
2024-12-07 18:21:12.167355600,4.485355712890625,0.1469272488225251,-0.2401835516035556,0.2738854397950694
2024-12-07 18:21:12.177329700,4.49532958984375,0.1928793641149997,-0.3141758395314216,-0.0413437081815674
2024-12-07 18:21:12.187303700,4.5053037109375,0.294546498497203,-0.2301543250203132,-0.228305281353835
2024-12-07 18:21:12.197277700,4.515277587890625,0.5368115325499325,-0.0179693719327449,-0.224363393593952
2024-12-07 18:21:12.207251700,4.525251708984375,0.7208850743968039,0.2408388006418943,-0.2519196917025372
2024-12-07 18:21:12.217225500,4.5352255859375,0.5080460413146763,0.4295394177675247,-0.5074622500773519
2024-12-07 18:21:12.227199500,4.545199462890625,-0.0482896913945674,0.5423258389919996,-0.8562865014027804
2024-12-07 18:21:12.237173500,4.555173583984375,-0.6931324865311383,0.6517424915224314,-1.150387301959097
2024-12-07 18:21:12.247147500,4.5651474609375,-1.3234434829682111,0.677918550786376,-1.2947127707853912
2024-12-07 18:21:12.257121500,4.57512158203125,-1.5074667559325694,0.5336240616202355,-1.2502980211280286
2024-12-07 18:21:12.267095600,4.585095458984375,-1.1595797854572534,0.2760147434413433,-1.0432377906430512
2024-12-07 18:21:12.277069600,4.595069580078125,-0.6203272894959897,0.0687877050220966,-0.6414689347892999
2024-12-07 18:21:12.287043600,4.605043701171875,0.0452606989622116,-0.0400286435276269,-0.0953997628168202
2024-12-07 18:21:12.297016600,4.6150166015625,0.7984446263521909,-0.0021469489008188,0.4220631270701065
2024-12-07 18:21:12.306990600,4.624990478515625,1.5759313664801418,0.0771884536206722,1.0073397441141307
2024-12-07 18:21:12.316964600,4.634964599609375,1.9105770164579152,0.2282955454111099,1.4540494923911989
2024-12-07 18:21:12.326938600,4.644938720703125,1.7916688974827526,0.5123977337181568,1.900713209569454
2024-12-07 18:21:12.336912600,4.65491259765625,1.5772762052178382,0.5134989729583264,2.201483624082804
2024-12-07 18:21:12.346886700,4.66488671875,1.2348106752693653,0.3002291472434997,2.2467093978621064
2024-12-07 18:21:12.356860700,4.674860595703125,0.937012554565072,0.01370762283504,2.1508831715278327
2024-12-07 18:21:12.366834700,4.684834716796875,0.7416670925974845,-0.3296908040493727,1.8689083506383
2024-12-07 18:21:12.376808700,4.69480859375,0.4865484221905469,-0.5514098936796188,1.3689965890057385
2024-12-07 18:21:12.386782700,4.70478271484375,0.3834159644961357,-0.6312386326760053,0.8576558900598437
2024-12-07 18:21:12.396756700,4.7147568359375,0.38624618295338,-0.5833581066042185,0.4967319625526666
2024-12-07 18:21:12.406730800,4.724730712890625,0.3542483222007751,-0.5519657739967108,0.2861752134551294
2024-12-07 18:21:12.416704800,4.734704833984375,0.2424468203604221,-0.5569108291834592,0.2538723236076534
2024-12-07 18:21:12.426678800,4.7446787109375,0.0079120700324885,-0.5405927315890788,0.3469111477131024
2024-12-07 18:21:12.436652500,4.754652587890625,-0.2147726132269017,-0.5135194312244653,0.3830689046241343
2024-12-07 18:21:12.446626600,4.76462646484375,-0.3466121282339096,-0.4230494712263346,0.3536686226166785
2024-12-07 18:21:12.456600600,4.7746005859375,-0.5010065711319446,-0.1722428187996149,0.1744890268238261
2024-12-07 18:21:12.466574600,4.78457470703125,-0.7452741771787404,0.2420411621689796,-0.0779438020326197
2024-12-07 18:21:12.476548600,4.794548583984375,-1.0080044916331767,0.6800900496065616,-0.2525596701065078
2024-12-07 18:21:12.486521600,4.804521484375,-1.3504326121807098,0.8864286147534847,-0.4808289485651999
2024-12-07 18:21:12.496495600,4.81449560546875,-1.6748954524487256,0.8175053006529808,-0.6079989556575194
2024-12-07 18:21:12.506469600,4.8244697265625,-1.8570061697900293,0.6111573831558227,-0.5332728735623881
2024-12-07 18:21:12.516443600,4.834443603515625,-1.8747545924484728,0.3478127361953258,-0.5590988772796467
2024-12-07 18:21:12.526417700,4.844417724609375,-1.874075962534547,0.112791681921482,-0.600662584887445
2024-12-07 18:21:12.536391700,4.8543916015625,-1.8423603893220424,-0.0490635983765125,-0.4943579268977046
2024-12-07 18:21:12.546365700,4.86436572265625,-1.6144401069641112,-0.113740945470333,-0.115267935841903
2024-12-07 18:21:12.556339700,4.874339599609375,-1.2225661107242107,-0.0394920524328947,0.4549670332843437
2024-12-07 18:21:12.566313700,4.884313720703125,-0.7657850502878427,0.0927162776201963,0.9991738271847368
2024-12-07 18:21:12.576287700,4.894287841796875,-0.3064467065840959,0.1813917554169893,1.4204735321342945
2024-12-07 18:21:12.586261800,4.90426171875,0.0962345331405289,0.2482254037618637,1.7403540130481123
2024-12-07 18:21:12.596235800,4.91423583984375,0.2561538769398815,0.4059335012525319,1.85597916482985
2024-12-07 18:21:12.606209800,4.924209716796875,0.3304968597352504,0.4123544742107391,1.7088162806205451
2024-12-07 18:21:12.616183800,4.934183837890625,0.2878565724045038,0.6398720209866762,1.610456882546842
2024-12-07 18:21:12.626157800,4.94415771484375,0.0403331976984627,0.9030442339897156,1.5007444619402288
2024-12-07 18:21:12.636131800,4.9541318359375,-0.3926473186999559,1.4953238981962202,1.507482245762646
2024-12-07 18:21:12.646105900,4.96410595703125,-0.912760156840086,1.9916525406450032,1.4816523695878685
2024-12-07 18:21:12.656080000,4.974079833984375,-1.3593027318567037,2.288199199983477,1.4405546355240046
2024-12-07 18:21:12.666054000,4.984053955078125,-1.5536697041809555,2.175720237272978,1.3841877283968032
2024-12-07 18:21:12.676027600,4.994027587890625,-1.5906939051955935,1.84452838101089,1.308130178502202
2024-12-07 18:21:12.686000600,5.004000732421875,-1.3995797971874475,1.4293313768506049,1.1044194776408374
2024-12-07 18:21:12.695974700,5.013974609375,-1.2035498600870371,1.2093752052396536,0.8558132578678429
2024-12-07 18:21:12.705948700,5.02394873046875,-1.110545340109989,1.1471978582680225,0.5805288379950448
2024-12-07 18:21:12.715922700,5.033922607421875,-1.1936106498748065,1.430557703775167,0.4688860703803598
2024-12-07 18:21:12.725897200,5.043897216796875,-1.6316344028711318,1.5712591368854043,0.3364656319465488
2024-12-07 18:21:12.735871200,5.053871337890625,-2.5266794548004863,1.668949111264944,0.2912379219384863
2024-12-07 18:21:12.745845200,5.06384521484375,-3.3811277079254385,1.429666892415285,-0.0772127843443304
2024-12-07 18:21:12.755819300,5.0738193359375,-3.5691461880058046,0.695996059268713,-1.6268318248949944
2024-12-07 18:21:12.765793300,5.083793212890625,-3.410767643907666,-0.1845101796984672,-4.003149014922976
2024-12-07 18:21:12.775767300,5.093767333984375,-2.7096137634843585,-0.6459878735184669,-5.16858454067111
2024-12-07 18:21:12.785741300,5.1037412109375,-1.209839754011482,-0.9466244325190782,-5.298030420273542
2024-12-07 18:21:12.795715300,5.11371533203125,1.103646885833144,-1.4939906037658452,-5.271973018953204
2024-12-07 18:21:12.805689300,5.123689453125,3.616480186110736,-1.7601082225710152,-4.3977690950006245
2024-12-07 18:21:12.815663400,5.133663330078125,5.660567262870073,-1.5993652874290942,-2.839004405768216
2024-12-07 18:21:12.825637400,5.143637451171875,6.593340280169248,-1.1449807667404412,-1.353749773904681
2024-12-07 18:21:12.835611400,5.153611328125,6.243135680401325,-0.3736789988577366,0.0395955584731418
2024-12-07 18:21:12.845585400,5.16358544921875,4.340949475669861,0.4283347181528806,1.2069589378781616
2024-12-07 18:21:12.855559400,5.173559326171875,1.2319532400116324,1.1792933707088231,1.9165357787318529
2024-12-07 18:21:12.865533400,5.183533447265625,-1.0599927452847362,1.889358871862292,2.165982833243161
2024-12-07 18:21:12.875507500,5.193507568359375,-1.231019466292858,2.04367265073955,1.6617007475718857
2024-12-07 18:21:12.885480400,5.20348046875,-0.1096672662906348,1.425508019170165,0.9312287104666233
2024-12-07 18:21:12.895454500,5.213454345703125,0.7866647567093372,0.417300698441267,0.3311872896848246
2024-12-07 18:21:12.905428500,5.223428466796875,1.281055270702392,-0.4854132806807756,-0.1145919545427896
2024-12-07 18:21:12.915402500,5.233402587890625,1.4200690429866314,-1.2675497463107108,-0.4779892681598663
2024-12-07 18:21:12.925376300,5.243376220703125,1.248586102643609,-1.7862439498245717,-0.8390230857823043
2024-12-07 18:21:12.935350300,5.253350341796875,1.089005197018385,-2.1919816362440585,-1.1866676988691092
2024-12-07 18:21:12.945324300,5.26332421875,0.9643184946417808,-2.4105600897610184,-1.3629659305393695
2024-12-07 18:21:12.955298300,5.27329833984375,0.8937240324586629,-2.516012514835596,-1.4764013171918688
2024-12-07 18:21:12.965272000,5.28327197265625,0.969116834834218,-2.44785726249814,-1.392439277783036
2024-12-07 18:21:12.975246000,5.29324609375,0.9635846274092792,-2.295345564606785,-1.223358137884736
2024-12-07 18:21:12.985220000,5.30322021484375,0.9560741056486964,-1.954207483869791,-0.957668169907108
2024-12-07 18:21:12.995194000,5.313194091796875,0.7490823372900486,-1.46680858232975,-0.6738107501413673
2024-12-07 18:21:13.005168000,5.323168212890625,0.4194653291292488,-1.043569726011157,-0.5514511024728417
2024-12-07 18:21:13.015142100,5.33314208984375,-0.0018079262048006,-0.7484463774740695,-0.5310383559759706
2024-12-07 18:21:13.025116200,5.3431162109375,-0.4482767053328454,-0.717294283363223,-0.6394153632603585
2024-12-07 18:21:13.035090200,5.353090087890625,-0.6073309567354619,-1.032849594554305,-0.8749920055903494
2024-12-07 18:21:13.045064200,5.363064208984375,-0.4480008110009134,-1.6042676725178957,-1.17075547866188
2024-12-07 18:21:13.055038200,5.3730380859375,-0.4199158493757248,-2.0866127977997064,-1.3488646322116256
2024-12-07 18:21:13.065012200,5.38301220703125,-0.6105247843407094,-2.2538749055773017,-1.349013100771606
2024-12-07 18:21:13.074985200,5.392985107421875,-1.0443629222154616,-1.964347185090184,-1.128653316795826
2024-12-07 18:21:13.084959200,5.402959228515625,-1.4860995582550762,-1.4235913718938826,-0.7316592010632157
2024-12-07 18:21:13.094933200,5.412933349609375,-1.9221897128403185,-0.7198837153345347,-0.0305523289862554
2024-12-07 18:21:13.104907300,5.4229072265625,-2.309495816642791,0.0687263302236795,0.8542578451193868
2024-12-07 18:21:13.114881300,5.43288134765625,-2.821966469466686,0.8644669583141803,1.7776812886625528
2024-12-07 18:21:13.124855300,5.442855224609375,-3.5883828033953904,1.7166794152110814,2.830374816849828
2024-12-07 18:21:13.134829300,5.452829345703125,-4.225478345406056,2.5860347300887105,3.828489782631397
2024-12-07 18:21:13.144803300,5.46280322265625,-4.5618601715266704,3.015112375563383,4.407029675298929
2024-12-07 18:21:13.154777300,5.47277734375,-4.257332450306415,2.75560219219923,4.5301989588499065
2024-12-07 18:21:13.164751400,5.48275146484375,-2.6766946597009897,1.932657915362716,3.898339271666109
2024-12-07 18:21:13.174725400,5.492725341796875,-0.6579949760459363,0.7769143470674753,2.297518378601223
2024-12-07 18:21:13.184699400,5.502699462890625,1.1857776181615889,-0.4297112672030925,0.2506040242603979
2024-12-07 18:21:13.194673400,5.51267333984375,2.8583038572609425,-1.1416612669289112,-1.7088002062685788
2024-12-07 18:21:13.204647400,5.5226474609375,3.637802375602722,-1.3108768468618393,-3.1252137954875825
2024-12-07 18:21:13.214621200,5.53262109375,3.4174633421540257,-1.2893079891324042,-4.006994876696169
2024-12-07 18:21:13.224595200,5.54259521484375,2.4399773229032755,-1.1617378402739762,-4.616512091429532
2024-12-07 18:21:13.234569200,5.5525693359375,0.9903870018780232,-0.8144745546549558,-4.646532551161944
2024-12-07 18:21:13.244543200,5.562543212890625,-0.5136449573002755,0.1295399876266718,-3.3763220612093803
2024-12-07 18:21:13.254517200,5.572517333984375,-1.0518155763089656,1.1652362037837505,-1.2804251561053095
2024-12-07 18:21:13.264491300,5.5824912109375,-0.7504805136501789,1.5749766961038112,0.6545731118384749
2024-12-07 18:21:13.274464300,5.59246435546875,0.1962345197618007,1.422037128189206,2.101052680432052
2024-12-07 18:21:13.284438300,5.602438232421875,1.298928781045228,0.8871732956409454,2.6574668121397496
2024-12-07 18:21:13.294412300,5.612412353515625,1.6479986776947977,0.3069891428977251,1.81425526169166
2024-12-07 18:21:13.304386300,5.62238623046875,1.38316291539371,-0.1025374144107103,0.4091131542019546
2024-12-07 18:21:13.314360300,5.6323603515625,0.940648426849395,-0.3180073805183172,-0.7311402186904102
2024-12-07 18:21:13.324334300,5.642334228515625,0.4954775785773992,-0.2277016711711883,-1.5878163039326667
2024-12-07 18:21:13.334308400,5.652308349609375,0.1827215427160263,-0.0973380922019481,-2.3094785732470453
2024-12-07 18:21:13.344282400,5.662282470703125,-0.0495784890960901,-0.1125742397785186,-2.6447438164278863
2024-12-07 18:21:13.354256400,5.67225634765625,-0.3257452812939882,-0.2456371408343315,-2.3364687253728507
2024-12-07 18:21:13.364230400,5.68223046875,-0.6220932031899691,-0.4531617008954286,-1.468686358900368
2024-12-07 18:21:13.374204400,5.692204345703125,-0.5192131128214299,-0.6227244868308306,-0.4675934002213179
2024-12-07 18:21:13.384178400,5.702178466796875,0.087143299793452,-0.703060590827465,0.381120400904864
2024-12-07 18:21:13.394152400,5.71215234375,0.7217891836296767,-0.7077572242110968,0.9427814202900976
2024-12-07 18:21:13.404126500,5.72212646484375,1.215273615628481,-0.6820809311628341,1.223482567982003
2024-12-07 18:21:13.414100500,5.7321005859375,1.383923962894082,-0.5868091238409281,1.359389825618267
2024-12-07 18:21:13.424074500,5.742074462890625,1.164841724573448,-0.3821674257397651,1.3639184089586138
2024-12-07 18:21:13.434048300,5.75204833984375,0.9214666103869676,0.0286322202444076,1.382569333414733
2024-12-07 18:21:13.444022300,5.762022216796875,0.9339256214004008,0.5184031116127967,1.3003162898808718
2024-12-07 18:21:13.453996300,5.771996337890625,0.864066560819745,1.0120447069346905,1.0110886483188717
2024-12-07 18:21:13.463969300,5.78196923828125,0.6770446174960583,1.359498546689749,0.5174401117995381
2024-12-07 18:21:13.473943300,5.791943359375,0.4765313975017518,1.4625877497643232,-0.0157391377958003
2024-12-07 18:21:13.483917300,5.801917236328125,0.3955466203380376,1.377010237982869,-0.4855272989818826
2024-12-07 18:21:13.493891300,5.811891357421875,0.4567408014912158,1.0998977624326944,-0.8100671134762466
2024-12-07 18:21:13.503865300,5.821865234375,0.5945055235624312,0.7195189736753702,-1.0063228221565483
2024-12-07 18:21:13.513839400,5.83183935546875,0.7850788757573812,0.3735807991802692,-1.2652277331039308
2024-12-07 18:21:13.523813000,5.841813232421875,1.1722995662987232,0.1475187119096517,-1.3932707601711154
2024-12-07 18:21:13.533787100,5.851787109375,1.3275433195024728,0.0199561618357896,-1.3546870547547936
2024-12-07 18:21:13.543761200,5.86176123046875,1.4348802431493997,-0.0285585704863071,-1.1184626891057938
2024-12-07 18:21:13.553735200,5.871735107421875,1.4998837534576654,-0.0734299778699874,-0.724103013530001
2024-12-07 18:21:13.563709200,5.881709228515625,1.522322379758954,-0.1011480058789253,-0.3171403153602034
2024-12-07 18:21:13.573683200,5.89168310546875,1.4866250434339046,-0.1457838509410619,-8.13216079026e-05
2024-12-07 18:21:13.583657200,5.9016572265625,1.3086883969068526,-0.2519458855897188,0.24856793358922
2024-12-07 18:21:13.593631200,5.91163134765625,1.1300993508856745,-0.3669984981805086,0.5442780690383165
2024-12-07 18:21:13.603605200,5.921605224609375,0.9828857594024388,-0.4106447476834058,0.8076102218434215
2024-12-07 18:21:13.613579300,5.931579345703125,0.8010930950343609,-0.3710048112124204,0.990346085345745
2024-12-07 18:21:13.623553300,5.94155322265625,0.5940810876052827,-0.3190034058183431,1.0157045446164903
2024-12-07 18:21:13.633527300,5.95152734375,0.4147510139584541,-0.3170084326088428,0.9617426528044044
2024-12-07 18:21:13.643501300,5.961501220703125,0.3537094295511022,-0.2529296359300613,0.8591863144975155
2024-12-07 18:21:13.653474300,5.971474365234375,0.113037729104422,-0.223133048081398,0.7528400823883712
2024-12-07 18:21:13.663448300,5.9814482421875,-0.3678700203180313,-0.1296563074827194,0.6564847176134586
2024-12-07 18:21:13.673422300,5.99142236328125,-0.6364975761175156,-0.1129927574515342,0.7389804838620125
2024-12-07 18:21:13.683396400,6.001396240234375,-0.7581085243105888,-0.0661713850438594,0.8053425691723823
2024-12-07 18:21:13.693370400,6.011370361328125,-0.9992840095609424,0.0218769007652997,0.6601549305588007
2024-12-07 18:21:13.703344400,6.021344482421875,-1.076124672657251,0.2364186461120843,0.5288279864501207
2024-12-07 18:21:13.713318400,6.031318359375,-1.0262041651904583,0.3602981237590312,0.3833344602251425
2024-12-07 18:21:13.723292400,6.04129248046875,-1.0210691403895615,0.5092798939585685,0.2322234229119494
2024-12-07 18:21:13.733265700,6.051265625,-1.0014508322060107,0.4638192885100841,0.0694134722376242
2024-12-07 18:21:13.743239700,6.06123974609375,-1.1730091758728027,0.3733773855626583,-0.0195475810348987
2024-12-07 18:21:13.753213700,6.071213623046875,-1.3818021484345198,0.169154205134511,-0.0966351680969819
2024-12-07 18:21:13.763187700,6.081187744140625,-1.5048773239612578,-0.0197755445718765,-0.0719138011533767
2024-12-07 18:21:13.773161700,6.09116162109375,-1.5479554181873798,-0.0464285736978054,0.1269571315266192
2024-12-07 18:21:13.783135700,6.1011357421875,-1.4860808535546064,-0.0537000260055065,0.4084696686666458
2024-12-07 18:21:13.793109800,6.11110986328125,-1.3958464558780193,0.1675467699378728,0.8090322174705564
2024-12-07 18:21:13.803083800,6.121083740234375,-1.2826397634148596,0.4058990144610405,1.1739653075538574
2024-12-07 18:21:13.813057500,6.1310576171875,-1.2067238139480352,0.983203227853775,1.5587936230659485
2024-12-07 18:21:13.823031600,6.141031494140625,-1.177761338835955,1.1099369258880614,1.6451758753590284
2024-12-07 18:21:13.833005600,6.151005615234375,-1.0778069266557693,1.1873527585238215,1.6988436065301298
2024-12-07 18:21:13.842978800,6.160978759765625,-1.0152075548797843,1.1482944213330746,1.703593139144778
2024-12-07 18:21:13.852952800,6.170952880859375,-0.917646175315976,1.034261214917898,1.589503526367247
2024-12-07 18:21:13.862926800,6.1809267578125,-0.7457289352089166,0.9980044911444188,1.64100501941517
2024-12-07 18:21:13.872900600,6.190900634765625,-0.5127280251184478,0.8546937523186207,1.6441956321500242
2024-12-07 18:21:13.882874600,6.20087451171875,-0.2593056007027626,0.8186848658263682,1.5917678180374204
2024-12-07 18:21:13.892848600,6.2108486328125,-0.1147825634777545,1.30028238761127,1.6743242284320294
2024-12-07 18:21:13.902822700,6.22082275390625,-0.2247907886931672,1.8375801693081857,1.6627661848463118
2024-12-07 18:21:13.912796700,6.230796630859375,-0.3988409857083111,2.186884605365992,1.4944533989720046
2024-12-07 18:21:13.922770700,6.240770751953125,-0.6699070937663316,2.662137142038345,1.5405504026278851
2024-12-07 18:21:13.932744700,6.25074462890625,-0.8621598504155874,2.645207050025463,1.468069103784859
2024-12-07 18:21:13.942718700,6.26071875,-0.8754360960960388,2.2390543530642986,1.1777866924729197
2024-12-07 18:21:13.952692500,6.2706923828125,-0.8843435521077364,1.899743487754464,1.0046465595073997
2024-12-07 18:21:13.962666500,6.28066650390625,-0.7007289330095052,1.0076152000546454,0.5069116669898852
2024-12-07 18:21:13.972640500,6.290640625,-0.7024165207702666,-0.1179459959447383,-0.2320905903125181
2024-12-07 18:21:13.982614500,6.300614501953125,-0.9737164375841616,-1.1887041731327772,-1.02956721188277
2024-12-07 18:21:13.992588500,6.310588623046875,-1.5926877093613148,-2.0735037253797053,-1.7882989826582372
2024-12-07 18:21:14.002562600,6.3205625,-2.491487729910016,-2.530734867671132,-2.622438753378391
2024-12-07 18:21:14.012536600,6.33053662109375,-3.289346080806851,-2.4051146838366986,-3.4739567982703443
2024-12-07 18:21:14.022510600,6.340510498046875,-3.465121749907732,-1.8839596431672567,-4.151832678958773
2024-12-07 18:21:14.032483600,6.350483642578125,-2.7771850784540173,-1.1043898131549357,-4.66300057862103
2024-12-07 18:21:14.042457600,6.36045751953125,-0.8155103274434804,-0.4687649282187223,-4.926862527453899
2024-12-07 18:21:14.052431600,6.370431640625,2.15785388732329,0.1420347275406122,-4.335441818164289
2024-12-07 18:21:14.062405600,6.380405517578125,4.682894196614623,0.598379734647274,-3.121904817070067
2024-12-07 18:21:14.072379600,6.390379638671875,6.366523575139046,0.932886999067664,-1.8660285574182869
2024-12-07 18:21:14.082353700,6.400353759765625,6.813872205841541,1.1951081949561833,-0.6561657147921621
2024-12-07 18:21:14.092327700,6.41032763671875,5.560733262199163,1.223003917619586,0.3342803237967193
2024-12-07 18:21:14.102301700,6.4203017578125,2.752588981857896,1.4967203209906816,1.2741891843251882
2024-12-07 18:21:14.112275700,6.430275634765625,-0.4346525229975581,1.8177379892408847,2.0053321064293383
2024-12-07 18:21:14.122249700,6.440249755859375,-2.100868117645383,1.8618115242451427,1.955933430879563
2024-12-07 18:21:14.132223500,6.450223388671875,-1.3662445138186217,1.3196230478972195,1.1068925897561013
2024-12-07 18:21:14.142197500,6.460197509765625,0.0060148763753473,0.2573328393250703,0.359466604838334
2024-12-07 18:21:14.152171500,6.470171630859375,1.0409956377394496,-0.7590764925599097,0.0518771214272826
2024-12-07 18:21:14.162145500,6.4801455078125,1.510919818995893,-1.6611387297749518,-0.2395352072300389
2024-12-07 18:21:14.172119600,6.49011962890625,1.6410872908711431,-2.273849187591672,-0.5189000282842665
2024-12-07 18:21:14.182093600,6.500093505859375,1.4954004705637691,-2.7442981233745813,-0.754321260856837
2024-12-07 18:21:14.192067600,6.510067626953125,1.2495178305357697,-2.9808213989049195,-0.831251794193685
2024-12-07 18:21:14.202040600,6.52004052734375,1.1212138144448398,-2.936225885853171,-0.7770017330899834
2024-12-07 18:21:14.212014600,6.5300146484375,1.095424416410923,-2.814188236680627,-0.8029154881559312
2024-12-07 18:21:14.221988600,6.539988525390625,1.0155994768068193,-2.6039614319235085,-0.7073832763321697
2024-12-07 18:21:14.231962600,6.549962646484375,0.8316456158168614,-2.367039512464404,-0.538176829553768
2024-12-07 18:21:14.241936600,6.5599365234375,0.3729576988458633,-2.014706668496132,-0.4920477502591908
2024-12-07 18:21:14.251910700,6.56991064453125,-0.2718535321086645,-1.7149352018922566,-0.5209925435841083
2024-12-07 18:21:14.261884700,6.579884765625,-0.7545037778168916,-1.7192881364047523,-0.8343995176348835
2024-12-07 18:21:14.271858700,6.589858642578125,-1.1307006047144532,-1.9829419954448937,-1.1565838185116648
2024-12-07 18:21:14.281832700,6.599832763671875,-1.3936824097119271,-2.256373736655712,-1.2798976250998677
2024-12-07 18:21:14.291806700,6.609806640625,-1.5108527451090514,-2.2541811950474977,-1.0856376933466645
2024-12-07 18:21:14.301780700,6.61978076171875,-1.4541834940344094,-2.0102888520538804,-0.7444090117167681
2024-12-07 18:21:14.311754800,6.629754638671875,-1.3328190679483114,-1.6432143660277128,-0.3531574582241475
2024-12-07 18:21:14.321728800,6.639728759765625,-1.146529165226221,-1.1408458588927983,0.2272315694414079
2024-12-07 18:21:14.331702800,6.649702880859375,-1.0001302511267365,-0.5538549487441777,1.0115021975558252
2024-12-07 18:21:14.341676800,6.6596767578125,-0.9283085852362216,0.0322433964788913,1.6674099189989269
2024-12-07 18:21:14.351650800,6.66965087890625,-1.125278871926665,0.680072513949871,2.109167159435153
2024-12-07 18:21:14.361624800,6.679624755859375,-1.6921679281584918,1.5312725789338348,2.623937175242603
2024-12-07 18:21:14.371598800,6.689598876953125,-2.774222136995196,2.6276544422000647,3.222253489264846
2024-12-07 18:21:14.381572600,6.699572509765625,-4.0578269460499286,3.682611239144206,3.540482988101244
2024-12-07 18:21:14.391545600,6.709545654296875,-4.660049327600002,4.248106941321492,2.88400937640369
2024-12-07 18:21:14.401519600,6.71951953125,-3.879059693917632,4.024071391442418,1.4226158048599955
2024-12-07 18:21:14.411493600,6.72949365234375,-2.2772077042393386,3.390060955965519,0.1783918794812634
2024-12-07 18:21:14.421467600,6.739467529296875,-0.5877027116797864,2.599934076103568,-0.7476836494732648
2024-12-07 18:21:14.431441700,6.749441650390625,0.6870405993968248,1.5827262873172758,-1.7827558154478669
2024-12-07 18:21:14.441415400,6.75941552734375,1.4323966096401213,0.1716542052567005,-2.5830080757439133
2024-12-07 18:21:14.451389400,6.769389404296875,1.722602521649748,-1.3621177892774343,-2.948454960568249
2024-12-07 18:21:14.461363500,6.779363525390625,1.81389081229344,-2.529595049986243,-3.264790900743008
2024-12-07 18:21:14.471337500,6.78933740234375,1.8330362422682345,-2.978533580228686,-3.569583702640235
2024-12-07 18:21:14.481311500,6.7993115234375,1.2849176452189683,-2.4540526100069284,-2.816436892390251
2024-12-07 18:21:14.491285500,6.809285400390625,0.1491980432987213,-1.3923627054154872,-0.9491563621494918
2024-12-07 18:21:14.501259500,6.819259521484375,-0.7194348025232553,-0.4449690420895815,0.9080767482642084
2024-12-07 18:21:14.511233500,6.829233642578125,-0.7406196293711662,0.0662777680277824,1.9687331450894472
2024-12-07 18:21:14.521207600,6.83920751953125,-0.3460719569426029,0.2253530622184276,1.8738294404275715
2024-12-07 18:21:14.531181600,6.849181640625,0.0310100552916526,0.1730722553610801,1.320257400278002
2024-12-07 18:21:14.541155600,6.859155517578125,0.1963106537379324,0.0554459928900003,0.9311094680011271
2024-12-07 18:21:14.551129600,6.869129638671875,0.2394599135041236,0.0564215599238872,0.7980834648896008
2024-12-07 18:21:14.561103600,6.879103515625,0.4206015666175633,0.0808937378793954,0.6858978591024876
2024-12-07 18:21:14.571076600,6.88907666015625,0.7253782941628247,0.0445358918190002,0.3905302900133654
2024-12-07 18:21:14.581050600,6.899050537109375,0.9974690690934658,-0.0832429313540458,0.0353124377938453
2024-12-07 18:21:14.591024600,6.909024658203125,0.9642207333557308,-0.2458142509669065,-0.2327025481984019
2024-12-07 18:21:14.600998700,6.91899853515625,0.9411379639320075,-0.4664063823938369,-0.3600851385954767
2024-12-07 18:21:14.610972700,6.92897265625,1.0275361444465816,-0.7174655482769012,-0.5177104531735182
2024-12-07 18:21:14.620946700,6.93894677734375,1.2043418872475624,-0.7892652945965528,-0.7063000842053443
2024-12-07 18:21:14.630920700,6.948920654296875,1.3281361708290875,-0.6235942554026842,-0.9367058267034588
2024-12-07 18:21:14.640894700,6.958894775390625,1.3758844488233326,-0.2400532032221555,-1.1405980946768075
2024-12-07 18:21:14.650868700,6.96886865234375,1.117386657372117,0.2442944940537214,-1.3354793731987475
2024-12-07 18:21:14.660842800,6.9788427734375,0.7467186038333922,0.7121358776867389,-1.6189228053361175
2024-12-07 18:21:14.670816800,6.988816650390625,0.6409972256243228,1.1079928060829638,-1.718316076502204
2024-12-07 18:21:14.680790800,6.998790771484375,0.5280459692269563,1.3887310709148644,-1.720910184648633
2024-12-07 18:21:14.690764500,7.0087646484375,0.2895417490124702,1.4948504354655745,-1.4589115454696118
2024-12-07 18:21:14.700738600,7.018738525390625,0.1181897415727376,1.2681255003720522,-1.0919693075209855
2024-12-07 18:21:14.710712600,7.028712646484375,0.2602243229828774,0.9209043003290892,-0.6128347417835146
2024-12-07 18:21:14.720686600,7.0386865234375,0.7632815430343151,0.6678840635061264,-0.0721755116963293
2024-12-07 18:21:14.730661000,7.0486611328125,1.637972227590531,0.5294336241930723,0.4430281736874952
2024-12-07 18:21:14.740635100,7.05863525390625,2.3367202159158884,0.4362561588019132,0.8358745586235076
2024-12-07 18:21:14.750608100,7.068608154296875,2.6689994290232657,0.4181587765753269,1.0920865041598675
2024-12-07 18:21:14.760582100,7.07858203125,2.7196663709431883,0.4682996487945318,1.3070587498784063
2024-12-07 18:21:14.770556200,7.08855615234375,2.43153916490376,0.5910580134570598,1.4265668805733325
2024-12-07 18:21:14.780530200,7.0985302734375,2.0244711066633463,0.6549608690470456,1.4744482834279535
2024-12-07 18:21:14.790504200,7.108504150390625,1.6163368804961442,0.6352426076203584,1.4383410511277614
2024-12-07 18:21:14.800478200,7.118478271484375,1.2989718895345923,0.4685708669513463,1.1893326072294264
2024-12-07 18:21:14.810452200,7.1284521484375,1.0925591631729157,0.2285048042476177,0.8380686346016823
2024-12-07 18:21:14.820426200,7.13842626953125,0.8742278162848204,-0.0841366653233766,0.4341726305261254
2024-12-07 18:21:14.830400300,7.148400146484375,0.6507564761597663,-0.4247784869760274,-0.0256814076147973
2024-12-07 18:21:14.840374300,7.158374267578125,0.4468518601614981,-0.7492237915873527,-0.436455371168442
2024-12-07 18:21:14.850348300,7.168348388671875,0.1078927308987826,-0.936926629847288,-0.8120437473114579
2024-12-07 18:21:14.860322300,7.178322265625,0.0366220499545335,-1.0164870732963085,-0.9704244103014468
2024-12-07 18:21:14.870296300,7.18829638671875,0.0696095062663778,-1.006816158631444,-0.9250438843518496
2024-12-07 18:21:14.880270300,7.198270263671875,0.0506488217413425,-0.90836981292665,-0.8993101620279252
2024-12-07 18:21:14.890244400,7.208244384765625,-0.0822048204779624,-0.7142810730218887,-0.9288689955979584
2024-12-07 18:21:14.900218000,7.218218017578125,-0.3193377158066258,-0.4753478137403726,-0.5967928307820111
2024-12-07 18:21:14.910192000,7.228192138671875,-0.5828892835160717,-0.2877893523871898,-0.1112934792529791
2024-12-07 18:21:14.920166000,7.238165771484375,-0.6881196268051862,-0.180219204506278,0.4440371680669486
2024-12-07 18:21:14.930139100,7.24813916015625,-0.758190357375145,-0.0998380923241376,0.927736557501927
2024-12-07 18:21:14.940113200,7.258113037109375,-0.7866518972277641,-0.1107183827787637,1.250568508632481
2024-12-07 18:21:14.950087200,7.268087158203125,-0.7504822672158479,-0.0612204846382141,1.3720600682295858
2024-12-07 18:21:14.960061200,7.278061279296875,-0.93955288669765,0.0803138921648263,1.2910524947121738
2024-12-07 18:21:14.970035200,7.28803515625,-1.3500988501816986,0.2298603105098009,1.1698172479636966
2024-12-07 18:21:14.980009000,7.298009033203125,-1.7440467300862073,0.3429617890328169,1.1170208927996457
2024-12-07 18:21:14.989983000,7.30798291015625,-1.8420576069831849,0.3340630277842283,1.1840593430016189
2024-12-07 18:21:14.999957000,7.31795703125,-1.7003572259634732,0.288820449000597,1.2931823463477194
2024-12-07 18:21:15.009931000,7.327930908203125,-1.4078794234991072,0.3537736904263496,1.3306312025152145
2024-12-07 18:21:15.019905000,7.337905029296875,-1.1356067891955377,0.6615799949258565,1.2846651317626236
2024-12-07 18:21:15.029879000,7.347879150390625,-0.9708201316207646,1.1847545587241648,1.2466247394427656
2024-12-07 18:21:15.039853000,7.35785302734375,-1.017632736200094,1.6609078436285256,1.209865399909392
2024-12-07 18:21:15.049827000,7.3678271484375,-1.2519085250645876,2.043134890601039,1.147072551387921
2024-12-07 18:21:15.059801000,7.377801025390625,-1.508631123536825,2.1829139481693507,1.1505717186152935
2024-12-07 18:21:15.069775000,7.387775146484375,-1.42921038081944,2.1926263638883827,1.2428072269812225
2024-12-07 18:21:15.079749000,7.3977490234375,-0.9954384400486944,2.051774708652496,1.3268074064433577
2024-12-07 18:21:15.089723100,7.40772314453125,-0.4691939672857522,1.8543150310099124,1.3434192262873053
2024-12-07 18:21:15.099696000,7.417696044921875,-0.3312420520793646,1.7620377293288707,1.3722094135724008
2024-12-07 18:21:15.109670100,7.427670166015625,-0.5008422108830883,1.820891484835744,1.636632065027952
2024-12-07 18:21:15.119644200,7.43764404296875,-0.8560439248185604,1.9408868145257232,2.1122446671843527
2024-12-07 18:21:15.129618200,7.4476181640625,-1.389343649855256,1.866102499437332,2.347288079420477
2024-12-07 18:21:15.139592200,7.45759228515625,-1.957544519338012,1.57316993894279,1.9952228003472088
2024-12-07 18:21:15.149566200,7.467566162109375,-2.192422950270772,1.1554454621315002,1.3873952922664583
2024-12-07 18:21:15.159540200,7.477540283203125,-2.1187609172105786,0.5849281323999166,0.7355386728450656
2024-12-07 18:21:15.169514200,7.48751416015625,-1.95433958581686,-0.0516565374791622,0.0992368750279769
2024-12-07 18:21:15.179488300,7.49748828125,-1.5900193669348954,-0.8394073358595371,-0.3443822868226096
2024-12-07 18:21:15.189462300,7.507462158203125,-1.0654717612177134,-1.6851006201207637,-0.7262814535476267
2024-12-07 18:21:15.199436300,7.517436279296875,-0.5952952126353979,-2.278798918953538,-1.0786814444679766
2024-12-07 18:21:15.209410300,7.527410400390625,-0.3634713469676673,-2.652144740334153,-1.4418433601602911
2024-12-07 18:21:15.219384300,7.53738427734375,-0.3002640724264085,-2.808267614459991,-1.939310943511128
2024-12-07 18:21:15.229358000,7.547358154296875,-0.4807032032936811,-2.5365555366486308,-2.155881564337015
2024-12-07 18:21:15.239332000,7.55733203125,-0.6510951335296035,-1.7946230711132287,-2.279305991692841
2024-12-07 18:21:15.249306000,7.56730615234375,-0.2697619666568934,-0.8637988497942686,-2.3247911470606923
2024-12-07 18:21:15.259280100,7.577280029296875,1.2268012640759347,0.0022568390160799,-2.156561801686138
2024-12-07 18:21:15.269254100,7.587254150390625,3.5019875454902647,0.8139701122641563,-1.7354846534460782
2024-12-07 18:21:15.279227100,7.59722705078125,5.609352623939514,1.4916086770653725,-1.3112621929176151
2024-12-07 18:21:15.289201000,7.607200927734375,6.866271086120605,1.9481419002205127,-0.6545617867268622
2024-12-07 18:21:15.299175000,7.6171748046875,6.209620948812365,2.05997379719913,0.5550601232828573
2024-12-07 18:21:15.309149000,7.62714892578125,3.1958541426390408,1.968875476169586,1.7463494540706277
2024-12-07 18:21:15.319123000,7.637123046875,-0.740207833699882,2.343839838662744,2.426124007987231
2024-12-07 18:21:15.329097000,7.647096923828125,-3.176755474415421,2.777959569957852,2.0381170624390244
2024-12-07 18:21:15.339071000,7.657071044921875,-2.7422113802284,2.500006551930308,0.5090766995366662
2024-12-07 18:21:15.349045000,7.667044921875,-1.11248514906615,1.3721598753422497,-1.1758259868592025
2024-12-07 18:21:15.359019000,7.67701904296875,0.5244384462542832,0.2417301965236663,-1.819543869619071
2024-12-07 18:21:15.368993000,7.686992919921875,1.6028370551928877,-0.7473644274562596,-2.137128494680673
2024-12-07 18:21:15.378967000,7.696967041015625,1.7919630581237376,-1.5935118852257728,-2.416201018257439
2024-12-07 18:21:15.388941000,7.706941162109375,1.4920201804757118,-2.288860878762603,-2.4702625710517165
2024-12-07 18:21:15.398915000,7.7169150390625,0.9968683267213404,-2.897747394376993,-2.52778273986727
2024-12-07 18:21:15.408889000,7.72688916015625,0.6399661290109158,-3.426547396841645,-2.593822315225005
2024-12-07 18:21:15.418863000,7.736863037109375,0.5233826535910368,-3.773420221838355,-2.5040102346137165
2024-12-07 18:21:15.428837000,7.746837158203125,0.5339490557909011,-3.875898599538207,-2.396508475793898
2024-12-07 18:21:15.438811100,7.75681103515625,0.5584096894390881,-3.56432563598156,-2.217423243753612
2024-12-07 18:21:15.448784100,7.7667841796875,0.2976327010095119,-3.0342168890059,-1.9747852847352625
2024-12-07 18:21:15.458758100,7.776758056640625,0.0693155282884836,-2.3636177213221785,-1.574016326639056
2024-12-07 18:21:15.468732200,7.786732177734375,-0.2796924090407788,-1.639349507293105,-1.21760644249022
2024-12-07 18:21:15.478706200,7.7967060546875,-0.7333429163664579,-1.1327665973335503,-0.936696474353224
2024-12-07 18:21:15.488680200,7.80668017578125,-1.164011922685802,-1.059907112827897,-0.9339115928750484
2024-12-07 18:21:15.498654200,7.816654296875,-1.3685460687592623,-1.4299585688382386,-1.1522754537932574
2024-12-07 18:21:15.508628200,7.826628173828125,-1.5579348142795264,-1.861003714993596,-1.239605069939047
2024-12-07 18:21:15.518602200,7.836602294921875,-1.7331768148951232,-2.1157979757517573,-1.1392657500945031
2024-12-07 18:21:15.528576300,7.846576171875,-2.027977361218632,-2.040404004332423,-0.7531745750397444
2024-12-07 18:21:15.538550000,7.856550048828125,-2.367546000681817,-1.7310393644750115,-0.1475818128742743
2024-12-07 18:21:15.548524000,7.86652392578125,-2.800845940026641,-1.1157669472157954,0.6271772284559906
2024-12-07 18:21:15.558498000,7.876498046875,-3.202336490395665,-0.2764052040636539,1.5388047280043362
2024-12-07 18:21:15.568472000,7.88647216796875,-3.380933062136173,0.8326116843700408,2.3521691294603047
2024-12-07 18:21:15.578446000,7.896446044921875,-3.527942070958018,2.122251681935788,3.106519616411626
2024-12-07 18:21:15.588420000,7.906420166015625,-3.968755162411928,3.454592172586917,3.538233455608785
2024-12-07 18:21:15.602758100,7.920758056640625,-4.875314711046219,4.511503026208281,3.1206106856063007
2024-12-07 18:21:15.612732200,7.930732177734375,-5.902960891738534,4.78081271905303,1.8580128626145425
2024-12-07 18:21:15.622706200,7.9407060546875,-5.483647099909186,4.126275628376007,0.8774724972944706
2024-12-07 18:21:15.632679200,7.95067919921875,-3.452660912263393,2.898593197551369,0.6296291516527533
2024-12-07 18:21:15.642653200,7.960653076171875,-0.7878099812217056,1.7092098099827766,0.7926194273300469
2024-12-07 18:21:15.652627200,7.970627197265625,2.2785950669445096,0.6215460907012224,0.4719684369677677
2024-12-07 18:21:15.662601200,7.980601318359375,4.527586730524897,-0.4412409614771604,-0.7359456462107599
2024-12-07 18:21:15.672575200,7.9905751953125,5.156579630100727,-1.4152999288886785,-1.9504833487801247
2024-12-07 18:21:15.682549200,8.00054931640625,4.974110600841045,-2.309589194014668,-2.5626369033664465
2024-12-07 18:21:15.692523300,8.010523193359376,4.296977062952518,-2.6693939812988043,-2.873489443694055
2024-12-07 18:21:15.702497300,8.020497314453126,2.737665553492308,-2.203804760506749,-2.7138024473458526
2024-12-07 18:21:15.712471000,8.030470947265625,0.0794565446831285,-1.1006097100943326,-1.2644446199022232
2024-12-07 18:21:15.722445000,8.040445068359375,-1.5694569097690283,-0.1625064376831054,1.0002573846377432
2024-12-07 18:21:15.732419300,8.05041943359375,-0.8385258768498897,0.1488140124171972,2.272069756828994
2024-12-07 18:21:15.742393300,8.060393310546875,0.582765985929966,0.0915478183627128,1.9423498728156088
2024-12-07 18:21:15.752367400,8.070367431640625,1.5657868429541586,0.1745873360991477,1.047129610449821
2024-12-07 18:21:15.762341400,8.08034130859375,1.8846470409095288,0.3386526936620473,-0.1494970719110686
2024-12-07 18:21:15.772315100,8.090315185546874,2.4568688364714384,0.5221487278819084,-1.0309875270094722
2024-12-07 18:21:15.782289200,8.1002890625,3.3181413826584816,0.6311030235975981,-1.6097447887547314
2024-12-07 18:21:15.792263200,8.11026318359375,3.5892028876066204,0.6161679047942161,-2.0468429513387383
2024-12-07 18:21:15.802236400,8.120236328125,3.0212326120093462,0.6244418121427298,-1.8642301296941937
2024-12-07 18:21:15.812210400,8.13021044921875,2.009377144036442,0.6417173565924167,-1.0006227108187973
2024-12-07 18:21:15.822184400,8.140184326171875,1.2791098357230424,0.7442571090906858,-0.1427351308949291
2024-12-07 18:21:15.832158200,8.150158203125,0.9568303308434783,0.82297116484344,0.4000596407830715
2024-12-07 18:21:15.842132200,8.16013232421875,0.8352583994865417,0.7759796965658664,0.7230350920375436
2024-12-07 18:21:15.852106200,8.170106201171874,0.9107352268837392,0.4678396300673484,0.7032517294853925
2024-12-07 18:21:15.862080300,8.180080322265624,1.0845488021314142,0.1651391242742538,0.5023725987881422
2024-12-07 18:21:15.872054300,8.19005419921875,1.0225156859360636,0.0484673860490322,0.1732835052252747
2024-12-07 18:21:15.882028300,8.2000283203125,0.7962129217773676,0.1696282523870468,-0.4394968212235718
2024-12-07 18:21:15.892002300,8.210002197265625,0.5776653017900883,0.4201736235290765,-1.060469934342429
2024-12-07 18:21:15.901976300,8.219976318359375,0.8264245201677084,0.5722112741678953,-1.3262275607287883
2024-12-07 18:21:15.911950300,8.229950439453125,1.124011701535061,0.5582341867417097,-1.3228821958236396
2024-12-07 18:21:15.922547500,8.24054736328125,1.1638503023833036,0.3813099321275949,-1.0616459193192422
2024-12-07 18:21:15.932521200,8.250521240234375,1.0154336187206208,0.1420329739749431,-0.3847911983720958
2024-12-07 18:21:15.942495200,8.2604951171875,1.0004179820269343,-0.0882253959417343,0.5344182076726108
2024-12-07 18:21:15.952469200,8.27046923828125,1.1355149461936205,-0.2500105336129665,1.382418819028139
2024-12-07 18:21:15.962443300,8.280443359375,1.2626672349661587,-0.4245727352708577,1.9444208338707685
2024-12-07 18:21:15.972417300,8.290417236328125,1.3054191659778356,-0.536310524225235,2.2594291787035763
2024-12-07 18:21:15.982391300,8.300391357421875,1.22216388659887,-0.547338114196062,2.353443825571239
2024-12-07 18:21:15.992365300,8.310365234375,0.9196276314567774,-0.3902268135547638,2.244424355664849
2024-12-07 18:21:16.002339300,8.32033935546875,0.5141010305047035,-0.1422679517745971,2.0262810786947605
2024-12-07 18:21:16.012312000,8.33031201171875,0.330803770259954,0.2987099748522043,1.8332161288797857
2024-12-07 18:21:16.022286000,8.3402861328125,0.1047059906214475,0.4354764066010713,1.569303911164403
2024-12-07 18:21:16.032260000,8.350260009765625,-0.3742482866456731,0.1988689599186182,1.091590683466941
2024-12-07 18:21:16.042234000,8.360234130859375,-0.7950164054691791,-0.1787742663949728,0.5570169199064373
2024-12-07 18:21:16.052208000,8.3702080078125,-0.9598129999160766,-0.4486462692975997,0.1781682633258402
2024-12-07 18:21:16.062182100,8.38018212890625,-1.001269630420208,-0.5171317765027285,-0.0366470382653176
2024-12-07 18:21:16.072156200,8.39015625,-1.1368301935106515,-0.5136380891680717,-0.2676896173622459
2024-12-07 18:21:16.082130200,8.400130126953124,-1.230145606067777,-0.3959568816393614,-0.448530241702497
2024-12-07 18:21:16.092104200,8.410104248046874,-1.3054250111967325,-0.1188590191364288,-0.364764309387654
2024-12-07 18:21:16.102078200,8.420078125,-1.396885735797882,0.1455243232220411,-0.0947388694889843
2024-12-07 18:21:16.112052200,8.43005224609375,-1.5051690003842115,0.2078185745716095,0.1193481908928602
2024-12-07 18:21:16.122026200,8.440026123046875,-1.6227859105050564,0.2609621357381343,0.3717208505272865
2024-12-07 18:21:16.132000300,8.450000244140625,-1.6719278348147868,0.1473760885685682,0.6096185562159866
2024-12-07 18:21:16.141974300,8.459974365234375,-1.5290800373256206,0.1085901385784149,0.7482735051251947
2024-12-07 18:21:16.151948300,8.4699482421875,-1.4817197357356549,0.1387958917498588,0.5869741782095282
2024-12-07 18:21:16.161922300,8.47992236328125,-1.4248007476836442,0.1647849040091037,0.1900129418332129
2024-12-07 18:21:16.171896300,8.489896240234375,-1.4385305823504924,0.307457344931364,-0.1054283135466277
2024-12-07 18:21:16.181869300,8.499869384765624,-1.5503303306251763,0.7186971358984708,0.0369238824453204
2024-12-07 18:21:16.191843300,8.50984326171875,-1.4716922627180813,0.8251859182834624,0.324419585648179
2024-12-07 18:21:16.201817300,8.5198173828125,-1.276337448400259,0.9478735557973385,0.7700918075710534
2024-12-07 18:21:16.211791400,8.529791259765625,-0.8502192372530698,0.8290326568394899,1.192272387008369
2024-12-07 18:21:16.221765400,8.539765380859375,-0.3675450261473655,0.654833443275094,1.522294322708249
2024-12-07 18:21:16.231739400,8.549739501953125,0.1818669717133045,0.2883124994784593,1.5769620247021316
2024-12-07 18:21:16.241713400,8.55971337890625,0.6084305885404347,0.1115507419496774,1.5378408514082431
2024-12-07 18:21:16.251687200,8.569687255859375,0.9829992297142744,0.0505599744141101,1.2117432495452465
2024-12-07 18:21:16.261661200,8.5796611328125,1.3248124332338571,0.3977513638406991,0.8121952846113591
2024-12-07 18:21:16.271635200,8.58963525390625,1.4303537056356668,0.9587731354743242,0.5515924837049097
2024-12-07 18:21:16.281609200,8.599609130859376,1.475506852570176,1.6483452991753815,0.3709862526424229
2024-12-07 18:21:16.291583200,8.609583251953126,1.1191134080994871,2.075163767546415,0.0234570826288312
2024-12-07 18:21:16.301557200,8.61955712890625,0.3152373312830925,2.447471478050947,-0.0891326469797641
2024-12-07 18:21:16.311531300,8.62953125,-0.5539455496370792,2.773883698821068,0.2158583443706855
2024-12-07 18:21:16.321505300,8.63950537109375,-1.3576752767853435,2.623845113044977,0.4876796181775629
2024-12-07 18:21:16.331479300,8.649479248046875,-2.1385610117018223,2.0514380240440366,0.3958468819262459
2024-12-07 18:21:16.341453300,8.659453369140625,-2.563378077122569,1.27409756051898,0.1131536105690523
2024-12-07 18:21:16.351427300,8.66942724609375,-2.6834780362308024,0.5199439113140106,-0.3847467381758615
2024-12-07 18:21:16.361400300,8.679400390625,-2.5643653345942496,-0.2343897706329822,-0.8624909820660949
2024-12-07 18:21:16.371374300,8.689374267578126,-2.44593652356863,-0.9072638975113628,-1.179200797054544
2024-12-07 18:21:16.381348000,8.69934814453125,-2.576779995009303,-1.3662877684384584,-1.389961927884072
2024-12-07 18:21:16.391322000,8.709322021484375,-2.840473601537943,-1.586101901230216,-1.576740344775468
2024-12-07 18:21:16.401296100,8.719296142578125,-2.6846435728788376,-1.6328776809304952,-1.63434190826416
2024-12-07 18:21:16.411270100,8.729270263671875,-2.214997039519995,-1.535481721061468,-1.887319913380593
2024-12-07 18:21:16.421244200,8.739244140625,-1.7447674455761908,-1.2498638674944638,-2.1626780926093456
2024-12-07 18:21:16.431218200,8.74921826171875,-1.2791501677334307,-0.8885153578996657,-2.435055210200697
2024-12-07 18:21:16.441192200,8.759192138671875,-0.1018096846580505,-0.3029945203036069,-2.217464890938252
2024-12-07 18:21:16.451166200,8.769166259765624,1.8624258567512035,0.5046247616291046,-1.4089575741246343
2024-12-07 18:21:16.461140200,8.77914013671875,3.666841423082352,1.2058283264130354,-0.5902610178604721
2024-12-07 18:21:16.471114200,8.7891142578125,4.642383907049895,1.6019775157541036,-0.06456590434229
2024-12-07 18:21:16.481088300,8.799088134765626,4.594641328144073,1.7685750221431251,-0.0037526396649423
2024-12-07 18:21:16.491062300,8.809062255859375,3.3163878169894216,1.7278186488628386,-0.0203951560412533
2024-12-07 18:21:16.501036300,8.819036376953125,1.1772425756588578,1.4548036717593669,-0.0805824982394464
2024-12-07 18:21:16.511010000,8.829010009765625,-0.6687474023371934,1.0129384409040212,-0.3740744279161095
2024-12-07 18:21:16.520984000,8.838984130859375,-1.3345751178354024,0.4670698147386312,-0.7962091223850846
2024-12-07 18:21:16.530958000,8.8489580078125,-1.0589943818971514,-0.1461012463271618,-1.1777422688093035
2024-12-07 18:21:16.540931300,8.858931396484374,-0.5070550575159489,-0.7835135992020368,-1.3778088410146534
2024-12-07 18:21:16.550905300,8.8689052734375,0.1140245847173035,-1.2334341262191533,-1.3980943809352817
2024-12-07 18:21:16.560879000,8.878879150390626,0.6730864544548094,-1.4841834955006836,-1.278960344249755
2024-12-07 18:21:16.570853000,8.88885302734375,1.1347354131884873,-1.5706991649150848,-1.1606808785669505
2024-12-07 18:21:16.580827100,8.8988271484375,1.464857594392449,-1.595961616465449,-0.9324930313140152
2024-12-07 18:21:16.590801200,8.90880126953125,1.5652208796344698,-1.645990845003724,-0.7366057175546884
2024-12-07 18:21:16.600775200,8.918775146484375,1.582334657651186,-1.668663864582777,-0.4812602161219343
2024-12-07 18:21:16.610749200,8.928749267578125,1.629466995704174,-1.693690169289708,-0.1070264329256489
2024-12-07 18:21:16.620723200,8.93872314453125,1.372878398875147,-1.7225485995054244,0.1413621620412916
2024-12-07 18:21:16.630697200,8.948697265625,1.0045236637800932,-1.7565853091418742,0.2859229009281844
2024-12-07 18:21:16.640671200,8.958671142578124,0.6158896723747254,-1.7623381735801695,0.3974267715288326
2024-12-07 18:21:16.650645200,8.968645263671876,0.1783811754241585,-1.842765462991595,0.3331190614650026
2024-12-07 18:21:16.660619300,8.978619384765626,-0.2694584536656737,-1.985979755705595,-0.0545883348810486
2024-12-07 18:21:16.670593300,8.98859326171875,-0.5088128609687089,-2.138435924017429,-0.5947794451329856
2024-12-07 18:21:16.680567300,8.9985673828125,-0.5937864155076443,-2.224308034831285,-0.9595156244046984
2024-12-07 18:21:16.690541300,9.008541259765623,-0.7461369314879178,-2.274147293755412,-1.1399215836547314
2024-12-07 18:21:16.700515300,9.018515380859377,-0.8423075873456894,-2.3364959056407213,-1.1519037709366529
2024-12-07 18:21:16.710489300,9.0284892578125,-1.1060087926588953,-2.328055409553647,-0.9755507403392344
2024-12-07 18:21:16.720462300,9.03846240234375,-1.627563646300882,-2.143238940384984,-0.6955120020788162
2024-12-07 18:21:16.730436000,9.04843603515625,-2.135463630208373,-1.7362416092932222,-0.3299171601511538
2024-12-07 18:21:16.740410000,9.05841015625,-2.509795540016889,-1.0385258866250515,0.2321277805177495
2024-12-07 18:21:16.750384000,9.068384033203126,-2.832792983907461,-0.0352414092510938,0.9849720641572028
2024-12-07 18:21:16.760358100,9.078358154296875,-3.172347010323405,1.1143009663164616,1.8037397128961976
2024-12-07 18:21:16.770332200,9.088332275390623,-3.343490927970409,2.196273780480027,2.562609430837631
2024-12-07 18:21:16.780306200,9.09830615234375,-3.381626889619231,2.8782740476220843,3.031410014891624
2024-12-07 18:21:16.790280200,9.1082802734375,-3.51357803004086,2.8474393488973377,2.96307502207309
2024-12-07 18:21:16.800254200,9.118254150390625,-3.633331367668509,2.2288287271261216,2.448008945928514
2024-12-07 18:21:16.810228200,9.128228271484376,-3.6930934701919553,1.6717641686856746,1.8030219200156627
2024-12-07 18:21:16.820202200,9.1382021484375,-3.421132970577478,1.6894301737576722,1.33923770281896
2024-12-07 18:21:16.830176000,9.148176025390624,-2.378761514440179,1.7413795567035677,1.523365605201572
2024-12-07 18:21:16.840150000,9.15814990234375,-0.2077443402916192,1.599089977619052,2.1098731157474218
2024-12-07 18:21:16.850124000,9.1681240234375,2.265968663474917,1.260121057614684,1.5205599001310766
2024-12-07 18:21:16.860097800,9.178097900390624,4.101761949366331,0.4136941983819007,-0.1495012457626871
2024-12-07 18:21:16.870071800,9.18807177734375,5.1219303415238855,-0.64023793168962,-1.6087125230975448
2024-12-07 18:21:16.880045800,9.1980458984375,5.425224721556901,-1.5640245094567535,-2.44687000502646
2024-12-07 18:21:16.890019800,9.208019775390625,4.610456736913323,-1.8534014232963325,-2.8865169753104447
2024-12-07 18:21:16.899993900,9.217993896484376,3.699259591606259,-1.30811556545496,-3.041148149573803
2024-12-07 18:21:16.909966800,9.227966796875,2.705516849559545,-0.0439180521816015,-2.9146298478558657
2024-12-07 18:21:16.919940900,9.23794091796875,1.5349118122190235,1.2014496729373931,-2.2564463635005056
2024-12-07 18:21:16.929915000,9.247914794921876,0.3969530530698597,1.788835135361552,-1.2001012540031224
2024-12-07 18:21:16.939889000,9.257888916015624,-0.357377121745795,1.742075722274184,-0.1997893626991659
2024-12-07 18:21:16.949863000,9.26786279296875,-0.7826542058937251,1.1331494591712952,-0.1948190634733065
2024-12-07 18:21:16.959837000,9.2778369140625,-0.728514181035757,0.3819306943744421,-1.0711929884087297
2024-12-07 18:21:16.969811000,9.28781103515625,-0.1284654902629554,-0.2415098317712545,-2.031180687304586
2024-12-07 18:21:16.979785000,9.297784912109377,0.6473113772071898,-0.6737345430999994,-2.62520061930716
2024-12-07 18:21:16.989759000,9.307759033203125,1.1771142731040716,-0.9003051644146441,-2.5172782969877123
2024-12-07 18:21:16.999733000,9.31773291015625,1.3773982143871486,-0.8940309064507483,-1.6849933603540062
2024-12-07 18:21:17.009707000,9.32770703125,1.5611135904461144,-0.6783785695135593,-0.5230377491435035
2024-12-07 18:21:17.019681000,9.337680908203126,2.02094483223334,-0.3829693897724151,0.5468560663001611
2024-12-07 18:21:17.029655000,9.347655029296876,2.322911178532988,0.046710897770524,1.5346063995316623
2024-12-07 18:21:17.039629000,9.357629150390624,2.002961870166659,0.4978635969310999,2.2252092214547097
2024-12-07 18:21:17.049603000,9.36760302734375,1.2152402978807686,0.8720943844527006,2.4781480636045337
2024-12-07 18:21:17.059577000,9.3775771484375,0.4506095321945846,1.0998901636481284,2.361528786218911
2024-12-07 18:21:17.069551000,9.387551025390623,0.0927215383172035,0.9268710997790096,1.715790649677813
2024-12-07 18:21:17.079524000,9.397524169921876,0.2380939589131623,0.480181225246191,0.9528478370785712
2024-12-07 18:21:17.089498000,9.407498046875,0.4861076926857233,-0.024614216774702,0.1812160700565203
2024-12-07 18:21:17.099472100,9.41747216796875,0.8480652740895748,-0.3239969763219356,-0.4701524370543658
2024-12-07 18:21:17.109446100,9.427446044921876,1.1191782169640063,-0.2769149071514606,-0.676414795159921
2024-12-07 18:21:17.119420200,9.437420166015626,1.0035955160845071,-0.0673702394396066,-0.6792001150295138
2024-12-07 18:21:17.129394200,9.447394287109375,0.7008633730441332,0.1520914266526699,-0.6333059404693544
2024-12-07 18:21:17.139368000,9.457367919921875,0.4228022184669971,0.3153495594859123,-0.5269789610499516
2024-12-07 18:21:17.149342000,9.467342041015623,0.3829616448573767,0.2524281161487102,-0.3915117387987673
2024-12-07 18:21:17.159316000,9.47731591796875,0.3322084128934889,0.0396329222083091,-0.254655783869233
2024-12-07 18:21:17.169290000,9.4872900390625,0.3015163375098258,-0.2529068395763635,-0.0687060911532491
2024-12-07 18:21:17.179264000,9.497263916015624,0.3330045317072421,-0.412447997713089,0.1110783751975744
2024-12-07 18:21:17.189238000,9.507238037109374,0.4019114791948348,-0.4722533548563719,0.3474323220429942
2024-12-07 18:21:17.199212000,9.5172119140625,0.3918050957221538,-0.3861316531956195,0.5237820281721651
2024-12-07 18:21:17.209186000,9.52718603515625,0.3443541201740503,-0.1453068810790777,0.6486992513690143
2024-12-07 18:21:17.219160000,9.53716015625,0.3580008796673268,0.1424251881629228,0.7316811936993152
2024-12-07 18:21:17.229134000,9.547134033203124,0.3691278383594006,0.2874076595932245,0.6260833688046783
2024-12-07 18:21:17.239108000,9.557108154296875,0.3130002929460257,0.3469499818861484,0.3929777196981012
2024-12-07 18:21:17.249082000,9.56708203125,0.1641168685544282,0.2972778962224722,0.1136279683488421
2024-12-07 18:21:17.259054800,9.577054931640625,-0.1689391010791063,0.1933247697949409,-0.1526501199813559
2024-12-07 18:21:17.269028900,9.58702880859375,-0.4221358635127544,0.1153121403098106,-0.3394931265415624
2024-12-07 18:21:17.279003000,9.5970029296875,-0.5503893915254623,-0.0235340203225612,-0.5092361278820783
2024-12-07 18:21:17.288977000,9.606976806640626,-0.4827127895504235,-0.1868073507249355,-0.6933145650997757
2024-12-07 18:21:17.298951000,9.616950927734376,-0.3447013261765241,-0.2446907998949289,-0.8422922436460852
2024-12-07 18:21:17.308925000,9.626925048828124,-0.3114051692416891,-0.2573573892444372,-0.9485025013506412
2024-12-07 18:21:17.318899000,9.63689892578125,-0.4351525449415668,-0.1526426307946443,-0.9791513951797036
2024-12-07 18:21:17.328873000,9.646873046875,-0.5911491258066147,-0.0402677129805088,-0.9938725059062242
2024-12-07 18:21:17.338847000,9.656846923828123,-0.8052700884580611,0.0187269123017787,-0.8170609909515827
2024-12-07 18:21:17.348821000,9.666821044921877,-0.9356646470874548,-0.0022913258075714,-0.4605582774201407
2024-12-07 18:21:17.358795000,9.676794921875,-0.9807417331110686,-0.0811304692447185,0.0234003840055316
2024-12-07 18:21:17.368769000,9.68676904296875,-0.8319037552963942,0.136149176633358,0.5866201406074687
2024-12-07 18:21:17.378743000,9.696742919921874,-0.3959025211036205,0.2169458838790655,1.0522845089949666
2024-12-07 18:21:17.388717000,9.706717041015626,0.0226584065318107,0.5038613760411739,1.4213441774889826
2024-12-07 18:21:17.398690800,9.71669091796875,0.4278209234118461,0.6158218678355216,1.6979586403891442
2024-12-07 18:21:17.408664800,9.726664794921875,0.8022977215837687,0.6728022306859492,1.8046330084741111
2024-12-07 18:21:17.418638800,9.736638916015623,1.1115671574383974,0.687672467559576,1.8370733888298272
2024-12-07 18:21:17.428612000,9.746612060546877,1.2606465427935123,0.5739139864325523,1.7272009553559124
2024-12-07 18:21:17.438586000,9.756586181640625,1.196136368960142,0.3096937256813049,1.5767518890827894
2024-12-07 18:21:17.448559900,9.766559814453124,0.974939257377386,0.0519657495588064,1.4692156434714794
2024-12-07 18:21:17.458534000,9.776533935546874,0.7021306165009736,-0.0991635540634393,1.4670990897089242
2024-12-07 18:21:17.468508000,9.7865078125,0.4677069435983896,-0.1064466968089342,1.5174071351885794
2024-12-07 18:21:17.478482000,9.79648193359375,0.125488666409254,-0.0686053341925144,1.3929763072691856
2024-12-07 18:21:17.488456000,9.8064560546875,-0.1634820412496104,0.0665887336730957,1.2553121960282323
2024-12-07 18:21:17.498430000,9.816429931640624,-0.5082698036005721,0.367383698105812,1.1683886034000663
2024-12-07 18:21:17.508404000,9.826404052734375,-0.7959019561320543,0.4542582639604807,0.9861608355503528
2024-12-07 18:21:17.518378000,9.8363779296875,-1.1165104590594768,0.7161509585469961,0.896597469003126
2024-12-07 18:21:17.528352000,9.84635205078125,-1.2917717488974332,0.8599211315780878,0.8219917984172701
2024-12-07 18:21:17.538326000,9.856325927734376,-1.3537918594807383,0.951236894750595,0.7172690758567303
2024-12-07 18:21:17.548300000,9.866300048828125,-1.3710878621965643,1.334385732743144,0.7251018883742392
2024-12-07 18:21:17.558274000,9.876274169921874,-1.3011919036716222,1.592868326625228,0.5372443710092455
2024-12-07 18:21:17.568248000,9.886248046875,-1.2737082689404486,2.212753206115961,0.4930626994553953
2024-12-07 18:21:17.578222000,9.89622216796875,-1.2207757201761007,2.459225628730654,0.2179620751842856
2024-12-07 18:21:17.588196000,9.906196044921876,-1.3456488850355148,2.791775913864374,-0.0084626348536461
2024-12-07 18:21:17.598170000,9.916170166015624,-1.52566818305552,2.722692440766096,-0.1536389483556151
2024-12-07 18:21:17.608143000,9.92614306640625,-1.723226644897461,2.1765280465245245,-0.3436361811630428
2024-12-07 18:21:17.618117000,9.9361171875,-1.9832032767295835,1.4208371047496795,-0.4568038567900657
2024-12-07 18:21:17.628091100,9.946091064453125,-2.3762965856313705,0.660948711284995,-0.465572561918199
2024-12-07 18:21:17.638065200,9.956065185546874,-2.916799300849437,0.0645908378541469,-0.4103321015376597
2024-12-07 18:21:17.648039200,9.9660390625,-3.489211066025496,-0.3741811031609773,-0.3499792665794491
2024-12-07 18:21:17.658013200,9.97601318359375,-3.817715290638804,-0.6157014563262462,-0.6833310773544014
2024-12-07 18:21:17.667987200,9.9859873046875,-3.698559918904304,-0.4967109197646379,-1.5303788449645042
2024-12-07 18:21:17.677961200,9.995961181640626,-3.339580476528406,-0.2056657804518938,-2.582677528615296
2024-12-07 18:21:17.687935200,10.005935302734375,-2.6974802580982447,0.0380915379852056,-3.404443701583147
2024-12-07 18:21:17.697909000,10.015908935546875,0.0196739838935434,0.0982674820065498,-3.820379541411995
2024-12-07 18:21:17.707883000,10.025883056640623,3.511784132361412,0.0599088175177574,-3.3285610698640347
2024-12-07 18:21:17.717856800,10.035856689453125,6.535114885693788,-0.1054477488994598,-2.235792136397958
2024-12-07 18:21:17.727830800,10.045830810546876,7.357824184730648,-0.1361596980273723,-1.162254119233042
2024-12-07 18:21:17.737804500,10.055804443359374,5.943697975796461,-0.1030073700100183,-0.2697124284267425
2024-12-07 18:21:17.747778600,10.065778564453124,3.3015199182033537,-0.0251689280480146,0.4641606858262792
2024-12-07 18:21:17.757752600,10.075752685546876,0.4219900253012776,0.1771200694471597,0.895032046317309
2024-12-07 18:21:17.767726600,10.0857265625,-1.0633020159631967,0.4825450317680835,0.7175804068282247
2024-12-07 18:21:17.777699600,10.095699462890623,-0.8148439724892378,0.3811965348809957,0.2626869867693632
2024-12-07 18:21:17.787673600,10.105673583984377,-0.0403033688157796,-0.1411918469756841,-0.0354678795173065
2024-12-07 18:21:17.797647600,10.115647705078125,0.7800619974434375,-0.9089286158531904,-0.1394485835049301
2024-12-07 18:21:17.807621600,10.12562158203125,1.569866513483226,-1.652779482230544,-0.1197124576279893
2024-12-07 18:21:17.817595600,10.135595703125,2.117505364191532,-2.2695564588338137,-0.1322873866386711
2024-12-07 18:21:17.827569700,10.145569580078124,2.1215026171341536,-2.703047829097509,-0.3912056319916621
2024-12-07 18:21:17.837543700,10.155543701171876,1.947171009361744,-2.999273001396656,-0.6052838880125433
2024-12-07 18:21:17.847517700,10.165517578125,1.696136977919936,-3.16653627821803,-0.7422687848176807
2024-12-07 18:21:17.857491700,10.17549169921875,1.5166197842031717,-3.1991666281878945,-0.827221515764296
2024-12-07 18:21:17.867465700,10.1854658203125,1.4505091894358395,-3.1049434531360864,-0.8600984609063714
2024-12-07 18:21:17.877439700,10.195439697265623,1.3434125042855738,-2.988984247094393,-0.8579325150441378
2024-12-07 18:21:17.887413800,10.205413818359377,1.0498650267630816,-2.816592375212908,-0.950571854970604
2024-12-07 18:21:17.897387800,10.2153876953125,0.6050782093726098,-2.6694232073932884,-1.1194432976409792
2024-12-07 18:21:17.907361800,10.22536181640625,0.0098829499803483,-2.5241151572704315,-1.361517777557671
2024-12-07 18:21:17.917335800,10.235335693359374,-0.7143729890890419,-2.288333055496216,-1.5788941618084906
2024-12-07 18:21:17.927309800,10.245309814453124,-1.5656272684782742,-1.877106124010682,-1.635752067323029
2024-12-07 18:21:17.937283800,10.255283935546874,-2.254573409235477,-1.270343176421523,-1.2413511829540134
2024-12-07 18:21:17.947256600,10.265256591796875,-2.843153634402156,-0.6092354751825332,-0.6768647308845073
2024-12-07 18:21:17.957230600,10.275230712890624,-3.155841865724325,-0.1293283907026052,0.1010632319386117
2024-12-07 18:21:17.967204600,10.28520458984375,-3.225784001478553,0.2172282079517841,0.8255138350635767
2024-12-07 18:21:17.977178600,10.2951787109375,-3.252784821128845,0.6116513041526079,1.459949656345695
2024-12-07 18:21:17.987152600,10.305152587890625,-3.1791888390421867,1.3774457067906856,2.0344769523710013
2024-12-07 18:21:17.997126700,10.315126708984376,-3.0984529220730064,2.553958506870269,2.4838307854160666
2024-12-07 18:21:18.007100700,10.3251005859375,-3.5888498363852497,3.756108437031507,3.019120442160964
2024-12-07 18:21:18.017074700,10.33507470703125,-4.464518572193384,4.470374312484264,3.441336385172605
2024-12-07 18:21:18.027048700,10.345048583984376,-4.421166337200999,4.219678719216585,3.2025627003669737
2024-12-07 18:21:18.037022500,10.3550224609375,-2.6674054378300904,3.028580344423652,2.374001460431516
2024-12-07 18:21:18.046996500,10.36499658203125,-0.0551483251176774,1.385673436909914,1.217682357270643
2024-12-07 18:21:18.056970500,10.374970458984375,2.075102977269888,-0.2887351088047027,-0.2004445204059593
2024-12-07 18:21:18.066944500,10.384944580078123,3.036383711650968,-1.8889847778528928,-1.7203860146440564
2024-12-07 18:21:18.076918500,10.39491845703125,3.567331247538328,-3.017410131111741,-3.0080691790536043
2024-12-07 18:21:18.086892500,10.404892578125,3.6118759071856736,-3.336729178750515,-4.264277739399671
2024-12-07 18:21:18.096866600,10.414866455078124,2.982437601929903,-2.699157835921645,-5.310920296984911
2024-12-07 18:21:18.106840600,10.424840576171874,2.019500186382979,-1.4579448923945426,-5.759759458506107
2024-12-07 18:21:18.116813600,10.4348134765625,0.7850209350250661,-0.0157990421563386,-4.339641315680742
2024-12-07 18:21:18.126787600,10.44478759765625,0.2059633020937442,0.9298515768945216,-1.5637880703523754
2024-12-07 18:21:18.136761600,10.45476171875,0.5374029956370592,1.411723823967576,0.93755732896626
2024-12-07 18:21:18.146735600,10.464735595703123,1.004279333630204,1.6020768844753503,2.567598909687996
2024-12-07 18:21:18.156709600,10.474709716796877,0.8086399302173405,1.6985498842805622,3.3711560567483305
2024-12-07 18:21:18.166683600,10.48468359375,0.2215127534031868,1.543398485535383,3.2768075017511844
2024-12-07 18:21:18.176657700,10.49465771484375,0.3203425454676151,1.03666359988451,2.2498396587118505
2024-12-07 18:21:18.186631700,10.504631591796874,1.3049860352575775,0.4770499414831399,0.7669065285984427
2024-12-07 18:21:18.196605700,10.514605712890624,1.9218458678387105,0.1217746143221855,-0.6611104777179658
2024-12-07 18:21:18.206579700,10.524579833984374,1.7263929999738932,-0.0152414082735776,-2.05740920740813
2024-12-07 18:21:18.216553700,10.5345537109375,1.1980722323935478,0.0398462726980447,-2.699756386336684
2024-12-07 18:21:18.226527700,10.54452783203125,0.7609948934018611,0.0554582678496837,-2.8087226647511123
2024-12-07 18:21:18.236501800,10.554501708984375,0.4565373878736048,-0.0046323359757661,-2.7048116238996385
2024-12-07 18:21:18.246475800,10.564475830078123,0.3099322836775332,-0.051798576298356,-2.310701246909797
2024-12-07 18:21:18.256449800,10.57444970703125,0.3283037336051463,-0.0084925185352563,-1.5944665556021034
2024-12-07 18:21:18.266423800,10.584423828125,0.6022405017286538,0.1734890194684266,-0.6599666414450853
2024-12-07 18:21:18.276397800,10.594397705078125,0.8382756284158677,0.434096934941411,0.134376833198592
2024-12-07 18:21:18.286370800,10.604370849609374,0.905366466392204,0.617678893879056,0.6126492291487753
2024-12-07 18:21:18.296344800,10.6143447265625,0.8975625877082347,0.5831733976870774,0.8839981727361679
2024-12-07 18:21:18.306318800,10.62431884765625,0.9472878648638724,0.4188987812876701,1.0059202327050267
2024-12-07 18:21:18.316292900,10.63429296875,0.9867325710237026,0.292501767861843,1.022075687083602
2024-12-07 18:21:18.326267000,10.644266845703124,1.009014545458555,0.2239981404781341,1.013951417338848
2024-12-07 18:21:18.336241000,10.654240966796875,1.1002373696506025,0.1981359694689512,0.9683209352161736
2024-12-07 18:21:18.346214700,10.664214599609377,1.2087673024743797,0.1493114405453205,0.8419915801990777
2024-12-07 18:21:18.356188700,10.674188720703125,1.2169131995290516,0.0170446583032608,0.5672309650046751
2024-12-07 18:21:18.366162700,10.68416259765625,1.190599193099141,-0.1862409490138292,0.2722079715695232
2024-12-07 18:21:18.376136700,10.69413671875,0.9363684114426374,-0.4148135578006505,-0.133846927572973
2024-12-07 18:21:18.386110700,10.70411083984375,0.5894599306106567,-0.595612023499608,-0.5152739467415959
2024-12-07 18:21:18.396084700,10.714084716796876,0.1538034912675619,-0.6651648676753044,-0.7586677656285464
2024-12-07 18:21:18.406058500,10.72405859375,-0.2402390446504577,-0.6727420249313115,-0.6720812229350209
2024-12-07 18:21:18.416032500,10.734032470703124,-0.431217616645433,-0.6274772343158721,-0.1648593574848026
2024-12-07 18:21:18.426006500,10.744006591796875,-0.3591331716328859,-0.5501274526536465,0.565677963409014
2024-12-07 18:21:18.435980500,10.75398046875,-0.1260153571644797,-0.4466419437378645,1.1860125959612429
2024-12-07 18:21:18.445953500,10.76395361328125,0.1629284807537682,-0.2246539740383625,1.4515567987926303
2024-12-07 18:21:18.455927600,10.773927490234374,0.3713093471169471,0.0727688836127519,1.4714919178403914
2024-12-07 18:21:18.465901600,10.783901611328124,0.4560884019970893,0.4706202006965875,1.3120403376832603
2024-12-07 18:21:18.475875600,10.79387548828125,0.3610737843066454,0.8038122908651828,0.8745217577300965
2024-12-07 18:21:18.485849600,10.803849609375,0.100592710083723,0.8451257135063409,0.3079944474827498
2024-12-07 18:21:18.495823600,10.81382373046875,-0.1719324559425003,0.6085948391914368,-0.3050529141381383
2024-12-07 18:21:18.505797600,10.823797607421875,-0.5213204603642225,0.2433282793700694,-0.6610175387375057
2024-12-07 18:21:18.515771600,10.833771728515623,-0.9802794493615626,-0.1182733282029628,-0.8547377375908195
2024-12-07 18:21:18.525745700,10.84374560546875,-1.5563292787790295,-0.3801636847019195,-0.9833063959673046
2024-12-07 18:21:18.535719700,10.8537197265625,-1.9369518131643533,-0.5813917749673128,-0.9259550078473984
2024-12-07 18:21:18.545693700,10.863693603515625,-2.1194290257304904,-0.6348363649070262,-0.7486724413149058
2024-12-07 18:21:18.555667700,10.873667724609374,-2.050736597776413,-0.5206546899318695,-0.5079593859445304
2024-12-07 18:21:18.565641700,10.883641845703124,-1.7873913662940262,-0.2403489712983369,-0.2478265406373888
2024-12-07 18:21:18.575615700,10.89361572265625,-1.462732711192965,0.1183627600520849,0.1043344538953155
2024-12-07 18:21:18.585589800,10.90358984375,-1.1148486633270978,0.4423106365352868,0.6897923092577606
2024-12-07 18:21:18.595563800,10.913563720703126,-0.8060749751001596,0.6564326951652765,1.3743854424372317
2024-12-07 18:21:18.605536800,10.923536865234375,-0.5982540624409913,0.6735398973107337,2.0789133293382824
2024-12-07 18:21:18.615510800,10.9335107421875,-0.526306432083249,0.6821458130925894,2.7696488377302884
2024-12-07 18:21:18.625484800,10.94348486328125,-0.5798562359631061,0.6528624354630709,3.12886384242773
2024-12-07 18:21:18.635458800,10.953458740234376,-0.3120797440350055,0.6577671586394309,3.3752383576259013
2024-12-07 18:21:18.645432800,10.963432861328124,0.0410042288278229,0.7265180387824773,3.312513605904579
2024-12-07 18:21:18.655406600,10.973406494140624,0.1789449285204522,0.6619844840735196,2.655962252795696
2024-12-07 18:21:18.665380600,10.983380615234376,0.1626356170207261,0.5874012445151805,1.9880102386198937
2024-12-07 18:21:18.675354600,10.993354736328126,-0.0255944234510883,0.5516577309608459,1.619121835039556
2024-12-07 18:21:18.685328600,11.00332861328125,-0.2934223350391723,0.7051414887547492,1.5791447755686938
2024-12-07 18:21:18.695302700,11.013302734375,-0.4103548248261213,0.8114964156270027,1.5818791689686476
2024-12-07 18:21:18.705276700,11.023276611328123,-0.3827028843233361,1.133703585922718,1.73597112178877
2024-12-07 18:21:18.715250700,11.033250732421877,-0.272171512016654,1.2544278144091368,1.8123250242814424
2024-12-07 18:21:18.725224700,11.043224609375,-0.1983499775458127,1.3667805203914642,1.9021034948840736
2024-12-07 18:21:18.735198500,11.053198486328125,-0.1700304034471511,1.1865367659658193,1.8161252933472392
2024-12-07 18:21:18.745172500,11.06317236328125,-0.284538241636753,0.8823504055291413,1.5307292658373712
2024-12-07 18:21:18.755146500,11.073146484375,-0.5804558823566883,0.7486229030847549,1.234492110839486
2024-12-07 18:21:18.765119500,11.083119384765626,-0.9721883512340486,0.83593293774724,0.9816578250426798
2024-12-07 18:21:18.775093500,11.093093505859375,-1.5285399390995502,1.3065677514910696,0.7755707504387944
2024-12-07 18:21:18.785067500,11.103067626953123,-2.274139694970846,2.045928905233741,0.5741380044467747
2024-12-07 18:21:18.795041500,11.11304150390625,-3.074841160339117,2.813718281081319,0.2733062882002443
2024-12-07 18:21:18.805015600,11.123015625,-3.796493638911843,3.401825043517351,-0.1924403881758451
2024-12-07 18:21:18.814989600,11.132989501953125,-4.034456007334589,3.311372619175911,-0.9239166338875888
2024-12-07 18:21:18.824963600,11.142963623046874,-3.561380230179429,2.6964287032186984,-1.73917415561378
2024-12-07 18:21:18.834937600,11.1529375,-2.89835003644526,1.7503706724107264,-2.281996399820596
2024-12-07 18:21:18.844911600,11.16291162109375,-2.3136580508887765,0.574942160436511,-2.835677599433064
2024-12-07 18:21:18.854885600,11.1728857421875,-1.822900340440124,-0.8566372876018286,-3.8918294513806697
2024-12-07 18:21:18.864859600,11.182859619140626,-1.145123828472942,-1.977769561243057,-4.323699357922375
2024-12-07 18:21:18.874833700,11.192833740234375,0.4435476309843361,-2.5430612652808424,-3.959687182076275
2024-12-07 18:21:18.884807700,11.2028076171875,2.754181804007292,-2.540799165567756,-3.163383951666951
2024-12-07 18:21:18.894781700,11.21278173828125,5.173182389855384,-2.054139684218168,-1.7755265948466956
2024-12-07 18:21:18.904755700,11.222755615234377,7.078385896581411,-1.433783095562458,-0.6154462394561618
2024-12-07 18:21:18.914729500,11.2327294921875,7.595244701361656,-0.7901748106569051,0.3197993785016239
2024-12-07 18:21:18.924702500,11.242702392578124,5.97786678737998,-0.4110194262146949,1.2116214497964828
2024-12-07 18:21:18.934676500,11.252676513671876,2.450248541548848,0.0516524458259344,1.9119778231665487
2024-12-07 18:21:18.944650500,11.262650390625,-1.3019798391789197,0.9669529347985982,2.5033240059152244
2024-12-07 18:21:18.954624500,11.27262451171875,-2.360858778002858,1.801008388236165,2.4125242294408378
2024-12-07 18:21:18.964598500,11.2825986328125,-0.7673404630362987,1.696030594936013,1.298925566174835
2024-12-07 18:21:18.974572500,11.292572509765623,0.8392682196497917,0.7166343581497668,-0.2186655107459053
2024-12-07 18:21:18.984546300,11.30254638671875,1.7259312276810406,-0.5541109693318605,-1.247389440204948
2024-12-07 18:21:18.994520300,11.312520263671876,1.9066148348286749,-1.6213848115354776,-1.6722538518987595
2024-12-07 18:21:19.004494300,11.322494384765625,1.7977882571458816,-2.408521861931681,-1.9876396517418324
2024-12-07 18:21:19.014468400,11.33246826171875,1.5681123632922769,-2.924071922200918,-2.190248090449721
2024-12-07 18:21:19.024442400,11.3424423828125,1.3979592102482914,-3.2734149367034435,-2.189057565490901
2024-12-07 18:21:19.034416400,11.35241650390625,1.4688853886038065,-3.3851001186877485,-2.0443308223873378
2024-12-07 18:21:19.044390400,11.362390380859376,1.5730641404807566,-3.269080122369528,-1.8680504186347129
2024-12-07 18:21:19.054364400,11.372364501953124,1.4985196254976092,-2.89402282089591,-1.5989572911500929
2024-12-07 18:21:19.064338400,11.38233837890625,1.2646205609910188,-2.422390812808275,-1.1878645805034789
2024-12-07 18:21:19.074312400,11.3923125,0.8718868791818618,-1.9768933629304168,-0.9469274340536444
2024-12-07 18:21:19.084285400,11.402285400390625,0.4109796787261963,-1.7536586080402137,-1.047583053305745
2024-12-07 18:21:19.094259500,11.412259521484376,-0.2113705679647624,-1.7511171068638562,-1.276780077601224
2024-12-07 18:21:19.104233500,11.4222333984375,-0.9277997589312492,-1.924913584846258,-1.6053415853597224
